%time,field.header.seq,field.header.stamp,field.header.frame_id,field.orientation.x,field.orientation.y,field.orientation.z,field.orientation.w,field.orientation_covariance0,field.orientation_covariance1,field.orientation_covariance2,field.orientation_covariance3,field.orientation_covariance4,field.orientation_covariance5,field.orientation_covariance6,field.orientation_covariance7,field.orientation_covariance8,field.angular_velocity.x,field.angular_velocity.y,field.angular_velocity.z,field.angular_velocity_covariance0,field.angular_velocity_covariance1,field.angular_velocity_covariance2,field.angular_velocity_covariance3,field.angular_velocity_covariance4,field.angular_velocity_covariance5,field.angular_velocity_covariance6,field.angular_velocity_covariance7,field.angular_velocity_covariance8,field.linear_acceleration.x,field.linear_acceleration.y,field.linear_acceleration.z,field.linear_acceleration_covariance0,field.linear_acceleration_covariance1,field.linear_acceleration_covariance2,field.linear_acceleration_covariance3,field.linear_acceleration_covariance4,field.linear_acceleration_covariance5,field.linear_acceleration_covariance6,field.linear_acceleration_covariance7,field.linear_acceleration_covariance8
1446034222138371733,1,1446034222137025117,robocape,0.0,0.0,0.0,0.0,10.0,0.0,0.0,0.0,10.0,0.0,0.0,0.0,10.0,-0.00532632218016,0.00918790576077,0.00958737992429,1.0,0.0,0.0,0.0,1.0,0.0,0.0,0.0,1.0,-0.162861328125,0.689765625,10.249486084,0.1,0.0,0.0,0.0,0.1,0.0,0.0,0.0,0.1
1446034222192956233,2,1446034222189625978,robocape,0.0,0.0,0.0,0.0,10.0,0.0,0.0,0.0,10.0,0.0,0.0,0.0,10.0,-0.00292947719909,0.00878843159726,0.00972053797879,1.0,0.0,0.0,0.0,1.0,0.0,0.0,0.0,1.0,-0.13412109375,0.567619628906,10.2195483398,0.1,0.0,0.0,0.0,0.1,0.0,0.0,0.0,0.1
1446034222239833399,3,1446034222238493919,robocape,0.0,0.0,0.0,0.0,10.0,0.0,0.0,0.0,10.0,0.0,0.0,0.0,10.0,0.0151800182135,0.0106526443603,0.00972053797879,1.0,0.0,0.0,0.0,1.0,0.0,0.0,0.0,1.0,-0.135318603516,0.526904296875,10.1944006348,0.1,0.0,0.0,0.0,0.1,0.0,0.0,0.0,0.1
1446034222288449483,4,1446034222286886930,robocape,0.0,0.0,0.0,0.0,10.0,0.0,0.0,0.0,10.0,0.0,0.0,0.0,10.0,0.0243679239742,0.0113184346328,0.00759000910673,1.0,0.0,0.0,0.0,1.0,0.0,0.0,0.0,1.0,-0.132923583984,0.653840332031,10.2183508301,0.1,0.0,0.0,0.0,0.1,0.0,0.0,0.0,0.1
1446034222338407774,5,1446034222337050914,robocape,0.0,0.0,0.0,0.0,10.0,0.0,0.0,0.0,10.0,0.0,0.0,0.0,10.0,0.0131826473959,0.0105194863058,0.00892158965177,1.0,0.0,0.0,0.0,1.0,0.0,0.0,0.0,1.0,-0.122145996094,0.726888427734,10.2027832031,0.1,0.0,0.0,0.0,0.1,0.0,0.0,0.0,0.1
1446034222388472441,6,1446034222386965990,robocape,0.0,0.0,0.0,0.0,10.0,0.0,0.0,0.0,10.0,0.0,0.0,0.0,10.0,-0.00759000910673,0.00892158965177,0.0102531701968,1.0,0.0,0.0,0.0,1.0,0.0,0.0,0.0,1.0,-0.142503662109,0.694555664063,10.213560791,0.1,0.0,0.0,0.0,0.1,0.0,0.0,0.0,0.1
1446034222442748524,7,1446034222440967082,robocape,0.0,0.0,0.0,0.0,10.0,0.0,0.0,0.0,10.0,0.0,0.0,0.0,10.0,-0.00159789665405,0.00892158965177,0.0101200121423,1.0,0.0,0.0,0.0,1.0,0.0,0.0,0.0,1.0,-0.159268798828,0.541274414062,10.2015856934,0.1,0.0,0.0,0.0,0.1,0.0,0.0,0.0,0.1
1446034222489327066,8,1446034222487641096,robocape,0.0,0.0,0.0,0.0,10.0,0.0,0.0,0.0,10.0,0.0,0.0,0.0,10.0,0.0154463343225,0.0105194863058,0.00878843159726,1.0,0.0,0.0,0.0,1.0,0.0,0.0,0.0,1.0,-0.116158447266,0.565224609375,10.2147583008,0.1,0.0,0.0,0.0,0.1,0.0,0.0,0.0,0.1
1446034222539379316,9,1446034222537987947,robocape,0.0,0.0,0.0,0.0,10.0,0.0,0.0,0.0,10.0,0.0,0.0,0.0,10.0,0.0209058145571,0.0111852765783,0.00865527354276,1.0,0.0,0.0,0.0,1.0,0.0,0.0,0.0,1.0,-0.117355957031,0.652642822266,10.2171533203,0.1,0.0,0.0,0.0,0.1,0.0,0.0,0.0,0.1
1446034222588279816,10,1446034222586903095,robocape,0.0,0.0,0.0,0.0,10.0,0.0,0.0,0.0,10.0,0.0,0.0,0.0,10.0,0.00705737688871,0.0103863282513,0.00918790576077,1.0,0.0,0.0,0.0,1.0,0.0,0.0,0.0,1.0,-0.135318603516,0.723295898438,10.2015856934,0.1,0.0,0.0,0.0,0.1,0.0,0.0,0.0,0.1
1446034222643267316,11,1446034222641613960,robocape,0.0,0.0,0.0,0.0,10.0,0.0,0.0,0.0,10.0,0.0,0.0,0.0,10.0,-0.102531701968,0.00226368692657,0.181361270234,1.0,0.0,0.0,0.0,1.0,0.0,0.0,0.0,1.0,-0.0443078613281,-0.223934326172,9.96926879883,0.1,0.0,0.0,0.0,0.1,0.0,0.0,0.0,0.1
1446034222688163275,12,1446034222686836957,robocape,0.0,0.0,0.0,0.0,10.0,0.0,0.0,0.0,10.0,0.0,0.0,0.0,10.0,0.0713727172141,0.0133158054504,0.0930774800983,1.0,0.0,0.0,0.0,1.0,0.0,0.0,0.0,1.0,-0.283809814453,0.537681884766,10.2530786133,0.1,0.0,0.0,0.0,0.1,0.0,0.0,0.0,0.1
1446034222739410733,13,1446034222738095998,robocape,0.0,0.0,0.0,0.0,10.0,0.0,0.0,0.0,10.0,0.0,0.0,0.0,10.0,0.123171200416,0.0133158054504,0.122505410144,1.0,0.0,0.0,0.0,1.0,0.0,0.0,0.0,1.0,-0.0514929199219,-0.2682421875,10.2099682617,0.1,0.0,0.0,0.0,0.1,0.0,0.0,0.0,0.1
1446034222789443525,14,1446034222788074016,robocape,0.0,0.0,0.0,0.0,10.0,0.0,0.0,0.0,10.0,0.0,0.0,0.0,10.0,0.260989786828,0.0162452826495,0.00852211548825,1.0,0.0,0.0,0.0,1.0,0.0,0.0,0.0,1.0,-0.408350830078,0.97716796875,10.387199707,0.1,0.0,0.0,0.0,0.1,0.0,0.0,0.0,0.1
1446034222842867316,15,1446034222841454982,robocape,0.0,0.0,0.0,0.0,10.0,0.0,0.0,0.0,10.0,0.0,0.0,0.0,10.0,0.32876723657,0.00852211548825,-0.176833896381,1.0,0.0,0.0,0.0,1.0,0.0,0.0,0.0,1.0,-0.429906005859,1.36037109375,10.3201391602,0.1,0.0,0.0,0.0,0.1,0.0,0.0,0.0,0.1
1446034222888580441,16,1446034222886745929,robocape,0.0,0.0,0.0,0.0,10.0,0.0,0.0,0.0,10.0,0.0,0.0,0.0,10.0,0.0500674284935,0.00759000910673,-0.0483363737849,1.0,0.0,0.0,0.0,1.0,0.0,0.0,0.0,1.0,-0.302969970703,1.95912597656,10.2518811035,0.1,0.0,0.0,0.0,0.1,0.0,0.0,0.0,0.1
1446034222938813400,17,1446034222937232971,robocape,0.0,0.0,0.0,0.0,10.0,0.0,0.0,0.0,10.0,0.0,0.0,0.0,10.0,-0.143144908592,0.00812264132474,-0.0110521185238,1.0,0.0,0.0,0.0,1.0,0.0,0.0,0.0,1.0,0.0634680175781,1.53520751953,10.2147583008,0.1,0.0,0.0,0.0,0.1,0.0,0.0,0.0,0.1
1446034222988250983,18,1446034222986797094,robocape,0.0,0.0,0.0,0.0,10.0,0.0,0.0,0.0,10.0,0.0,0.0,0.0,10.0,-0.24833977165,0.00159789665405,-0.00412789968962,1.0,0.0,0.0,0.0,1.0,0.0,0.0,0.0,1.0,0.411943359375,1.19990478516,10.1417102051,0.1,0.0,0.0,0.0,0.1,0.0,0.0,0.0,0.1
1446034223041762483,19,1446034223040343999,robocape,0.0,0.0,0.0,0.0,10.0,0.0,0.0,0.0,10.0,0.0,0.0,0.0,10.0,0.00865527354276,0.0123836990689,-0.269511902316,1.0,0.0,0.0,0.0,1.0,0.0,0.0,0.0,1.0,-0.00119750976563,0.443078613281,10.2195483398,0.1,0.0,0.0,0.0,0.1,0.0,0.0,0.0,0.1
1446034223088426941,20,1446034223086920976,robocape,0.0,0.0,0.0,0.0,10.0,0.0,0.0,0.0,10.0,0.0,0.0,0.0,10.0,-0.084289048501,-0.000133158054504,-0.268579795934,1.0,0.0,0.0,0.0,1.0,0.0,0.0,0.0,1.0,-0.338895263672,1.88368286133,10.2387084961,0.1,0.0,0.0,0.0,0.1,0.0,0.0,0.0,0.1
1446034223138656108,21,1446034223137259006,robocape,0.0,0.0,0.0,0.0,10.0,0.0,0.0,0.0,10.0,0.0,0.0,0.0,10.0,-0.414387865616,-0.0210389726116,-0.03488741028,1.0,0.0,0.0,0.0,1.0,0.0,0.0,0.0,1.0,-0.1916015625,2.069296875,10.3069665527,0.1,0.0,0.0,0.0,0.1,0.0,0.0,0.0,0.1
1446034223188497608,22,1446034223187068939,robocape,0.0,0.0,0.0,0.0,10.0,0.0,0.0,0.0,10.0,0.0,0.0,0.0,10.0,-0.635297078038,-0.034088461953,0.181494428289,1.0,0.0,0.0,0.0,1.0,0.0,0.0,0.0,1.0,0.188009033203,-1.20229980469,9.98962646484,0.1,0.0,0.0,0.0,0.1,0.0,0.0,0.0,0.1
1446034223239170566,23,1446034223237699031,robocape,0.0,0.0,0.0,0.0,10.0,0.0,0.0,0.0,10.0,0.0,0.0,0.0,10.0,-0.175768631945,-0.00692421883421,0.0376837294246,1.0,0.0,0.0,0.0,1.0,0.0,0.0,0.0,1.0,0.00239501953125,-1.4142590332,10.0938098145,0.1,0.0,0.0,0.0,0.1,0.0,0.0,0.0,0.1
1446034223290502441,24,1446034223288167953,robocape,0.0,0.0,0.0,0.0,10.0,0.0,0.0,0.0,10.0,0.0,0.0,0.0,10.0,0.158058610696,0.0267647689553,-0.00133158054504,1.0,0.0,0.0,0.0,1.0,0.0,0.0,0.0,1.0,0.144898681641,-1.05979614258,10.0566870117,0.1,0.0,0.0,0.0,0.1,0.0,0.0,0.0,0.1
1446034223338592733,25,1446034223337186098,robocape,0.0,0.0,0.0,0.0,10.0,0.0,0.0,0.0,10.0,0.0,0.0,0.0,10.0,0.346876731983,0.0404800485692,-0.0127831732324,1.0,0.0,0.0,0.0,1.0,0.0,0.0,0.0,1.0,-0.0502954101563,-0.177231445313,10.1105749512,0.1,0.0,0.0,0.0,0.1,0.0,0.0,0.0,0.1
1446034223388389900,26,1446034223386822938,robocape,0.0,0.0,0.0,0.0,10.0,0.0,0.0,0.0,10.0,0.0,0.0,0.0,10.0,0.333161452369,0.0350205683345,-0.0031957933081,1.0,0.0,0.0,0.0,1.0,0.0,0.0,0.0,1.0,-0.0646655273438,0.983155517578,10.1788330078,0.1,0.0,0.0,0.0,0.1,0.0,0.0,0.0,0.1
1446034223438383775,27,1446034223436973094,robocape,0.0,0.0,0.0,0.0,10.0,0.0,0.0,0.0,10.0,0.0,0.0,0.0,10.0,0.14900386299,0.0189084437396,0.0218379209386,1.0,0.0,0.0,0.0,1.0,0.0,0.0,0.0,1.0,-0.274229736328,1.39390136719,10.229128418,0.1,0.0,0.0,0.0,0.1,0.0,0.0,0.0,0.1
1446034223490861317,28,1446034223489063978,robocape,0.0,0.0,0.0,0.0,10.0,0.0,0.0,0.0,10.0,0.0,0.0,0.0,10.0,-0.017976337358,0.00892158965177,0.0167779148675,1.0,0.0,0.0,0.0,1.0,0.0,0.0,0.0,1.0,-0.215551757813,1.35797607422,10.2399060059,0.1,0.0,0.0,0.0,0.1,0.0,0.0,0.0,0.1
1446034223538618900,29,1446034223537080049,robocape,0.0,0.0,0.0,0.0,10.0,0.0,0.0,0.0,10.0,0.0,0.0,0.0,10.0,-0.153264920734,0.000266316109008,0.0238352917562,1.0,0.0,0.0,0.0,1.0,0.0,0.0,0.0,1.0,-0.113763427734,0.931662597656,10.1979931641,0.1,0.0,0.0,0.0,0.1,0.0,0.0,0.0,0.1
1446034223588477192,30,1446034223587017059,robocape,0.0,0.0,0.0,0.0,10.0,0.0,0.0,0.0,10.0,0.0,0.0,0.0,10.0,-0.202133926737,-0.00439421579863,0.0581900698182,1.0,0.0,0.0,0.0,1.0,0.0,0.0,0.0,1.0,-0.138911132813,0.694555664063,10.2039807129,0.1,0.0,0.0,0.0,0.1,0.0,0.0,0.0,0.1
1446034223638514900,31,1446034223637020111,robocape,0.0,0.0,0.0,0.0,10.0,0.0,0.0,0.0,10.0,0.0,0.0,0.0,10.0,-0.14221280221,-0.00292947719909,0.099602224769,1.0,0.0,0.0,0.0,1.0,0.0,0.0,0.0,1.0,0.107775878906,-0.828676757813,10.0974023437,0.1,0.0,0.0,0.0,0.1,0.0,0.0,0.0,0.1
1446034223694249192,32,1446034223692214012,robocape,0.0,0.0,0.0,0.0,10.0,0.0,0.0,0.0,10.0,0.0,0.0,0.0,10.0,0.0451405804768,0.0115847507418,0.113983294655,1.0,0.0,0.0,0.0,1.0,0.0,0.0,0.0,1.0,-0.0778381347656,-0.710123291016,10.0854272461,0.1,0.0,0.0,0.0,0.1,0.0,0.0,0.0,0.1
1446034223738443317,33,1446034223736960887,robocape,0.0,0.0,0.0,0.0,10.0,0.0,0.0,0.0,10.0,0.0,0.0,0.0,10.0,0.268180321771,0.0271642431188,0.084821680719,1.0,0.0,0.0,0.0,1.0,0.0,0.0,0.0,1.0,0.108973388672,-0.348475341797,10.1237475586,0.1,0.0,0.0,0.0,0.1,0.0,0.0,0.0,0.1
1446034223788463692,34,1446034223786981105,robocape,0.0,0.0,0.0,0.0,10.0,0.0,0.0,0.0,10.0,0.0,0.0,0.0,10.0,0.351803579999,0.0276968753368,0.0266316109008,1.0,0.0,0.0,0.0,1.0,0.0,0.0,0.0,1.0,-0.165256347656,0.518521728516,10.1979931641,0.1,0.0,0.0,0.0,0.1,0.0,0.0,0.0,0.1
1446034223838827483,35,1446034223837407112,robocape,0.0,0.0,0.0,0.0,10.0,0.0,0.0,0.0,10.0,0.0,0.0,0.0,10.0,0.223705531567,0.016644756813,0.0217047628841,1.0,0.0,0.0,0.0,1.0,0.0,0.0,0.0,1.0,-0.253872070313,1.47173950195,10.229128418,0.1,0.0,0.0,0.0,0.1,0.0,0.0,0.0,0.1
1446034223894509192,36,1446034223892990112,robocape,0.0,0.0,0.0,0.0,10.0,0.0,0.0,0.0,10.0,0.0,0.0,0.0,10.0,0.0961401153519,0.0109189604693,0.00399474163512,1.0,0.0,0.0,0.0,1.0,0.0,0.0,0.0,1.0,-0.238304443359,1.44419677734,10.2327209473,0.1,0.0,0.0,0.0,0.1,0.0,0.0,0.0,0.1
1446034223938184983,37,1446034223936801910,robocape,0.0,0.0,0.0,0.0,10.0,0.0,0.0,0.0,10.0,0.0,0.0,0.0,10.0,-0.0380832035881,0.00892158965177,0.00532632218016,1.0,0.0,0.0,0.0,1.0,0.0,0.0,0.0,1.0,-0.263452148438,1.22625,10.2111657715,0.1,0.0,0.0,0.0,0.1,0.0,0.0,0.0,0.1
1446034223988481733,38,1446034223986923933,robocape,0.0,0.0,0.0,0.0,10.0,0.0,0.0,0.0,10.0,0.0,0.0,0.0,10.0,-0.182559692725,0.00146473859954,0.0307595105904,1.0,0.0,0.0,0.0,1.0,0.0,0.0,0.0,1.0,-0.192799072266,1.24421264648,10.2434985352,0.1,0.0,0.0,0.0,0.1,0.0,0.0,0.0,0.1
1446034224038383358,39,1446034224036902904,robocape,0.0,0.0,0.0,0.0,10.0,0.0,0.0,0.0,10.0,0.0,0.0,0.0,10.0,-0.239418181998,-0.00532632218016,0.0391484680242,1.0,0.0,0.0,0.0,1.0,0.0,0.0,0.0,1.0,-0.124541015625,0.244291992188,10.1860180664,0.1,0.0,0.0,0.0,0.1,0.0,0.0,0.0,0.1
1446034224092360275,40,1446034224090943098,robocape,0.0,0.0,0.0,0.0,10.0,0.0,0.0,0.0,10.0,0.0,0.0,0.0,10.0,-0.201601294519,-0.00892158965177,0.145275437464,1.0,0.0,0.0,0.0,1.0,0.0,0.0,0.0,1.0,-0.0275427246094,-0.427510986328,10.0423168945,0.1,0.0,0.0,0.0,0.1,0.0,0.0,0.0,0.1
1446034224138530942,41,1446034224136996984,robocape,0.0,0.0,0.0,0.0,10.0,0.0,0.0,0.0,10.0,0.0,0.0,0.0,10.0,-0.0276968753368,-0.000532632218016,0.207859723081,1.0,0.0,0.0,0.0,1.0,0.0,0.0,0.0,1.0,-0.0646655273438,-0.911304931641,10.0818347168,0.1,0.0,0.0,0.0,0.1,0.0,0.0,0.0,0.1
1446034224189269775,42,1446034224187820911,robocape,0.0,0.0,0.0,0.0,10.0,0.0,0.0,0.0,10.0,0.0,0.0,0.0,10.0,0.39468047355,0.0278300333913,0.109056446639,1.0,0.0,0.0,0.0,1.0,0.0,0.0,0.0,1.0,0.0610729980469,-1.02147583008,10.0279467773,0.1,0.0,0.0,0.0,0.1,0.0,0.0,0.0,0.1
1446034224238279692,43,1446034224236855030,robocape,0.0,0.0,0.0,0.0,10.0,0.0,0.0,0.0,10.0,0.0,0.0,0.0,10.0,0.525841157236,0.0199737081756,0.0390153099697,1.0,0.0,0.0,0.0,1.0,0.0,0.0,0.0,1.0,-0.154478759766,0.604742431641,10.2794238281,0.1,0.0,0.0,0.0,0.1,0.0,0.0,0.0,0.1
1446034224290882317,44,1446034224289376020,robocape,0.0,0.0,0.0,0.0,10.0,0.0,0.0,0.0,10.0,0.0,0.0,0.0,10.0,0.480833734814,0.0117179087963,-0.016911072922,1.0,0.0,0.0,0.0,1.0,0.0,0.0,0.0,1.0,-0.51732421875,1.58071289063,10.1752404785,0.1,0.0,0.0,0.0,0.1,0.0,0.0,0.0,0.1
1446034224338387942,45,1446034224336958885,robocape,0.0,0.0,0.0,0.0,10.0,0.0,0.0,0.0,10.0,0.0,0.0,0.0,10.0,0.51412324844,0.0135821215594,-0.18122811218,1.0,0.0,0.0,0.0,1.0,0.0,0.0,0.0,1.0,-0.322130126953,1.54359008789,10.2590661621,0.1,0.0,0.0,0.0,0.1,0.0,0.0,0.0,0.1
1446034224388741484,46,1446034224387270927,robocape,0.0,0.0,0.0,0.0,10.0,0.0,0.0,0.0,10.0,0.0,0.0,0.0,10.0,0.149403337153,0.0189084437396,0.0221042370477,1.0,0.0,0.0,0.0,1.0,0.0,0.0,0.0,1.0,0.188009033203,2.49561035156,10.1560803223,0.1,0.0,0.0,0.0,0.1,0.0,0.0,0.0,0.1
1446034224438265359,47,1446034224436851978,robocape,0.0,0.0,0.0,0.0,10.0,0.0,0.0,0.0,10.0,0.0,0.0,0.0,10.0,-0.123970148743,0.00932106381528,-0.00825579937925,1.0,0.0,0.0,0.0,1.0,0.0,0.0,0.0,1.0,-0.292192382813,2.35310668945,10.3656445313,0.1,0.0,0.0,0.0,0.1,0.0,0.0,0.0,0.1
1446034224488576567,48,1446034224487091064,robocape,0.0,0.0,0.0,0.0,10.0,0.0,0.0,0.0,10.0,0.0,0.0,0.0,10.0,-0.215316574133,0.00732369299772,-0.0034621094171,1.0,0.0,0.0,0.0,1.0,0.0,0.0,0.0,1.0,-0.179626464844,1.84416503906,10.2387084961,0.1,0.0,0.0,0.0,0.1,0.0,0.0,0.0,0.1
1446034224540714275,49,1446034224539177894,robocape,0.0,0.0,0.0,0.0,10.0,0.0,0.0,0.0,10.0,0.0,0.0,0.0,10.0,-0.352203054163,0.00732369299772,0.0395479421877,1.0,0.0,0.0,0.0,1.0,0.0,0.0,0.0,1.0,-0.1916015625,1.54598510742,10.2482885742,0.1,0.0,0.0,0.0,0.1,0.0,0.0,0.0,0.1
1446034224588396734,50,1446034224586935997,robocape,0.0,0.0,0.0,0.0,10.0,0.0,0.0,0.0,10.0,0.0,0.0,0.0,10.0,-0.352069896108,0.00798948327024,0.0143810698864,1.0,0.0,0.0,0.0,1.0,0.0,0.0,0.0,1.0,-0.209564208984,0.758023681641,10.2219433594,0.1,0.0,0.0,0.0,0.1,0.0,0.0,0.0,0.1
1446034224638501275,51,1446034224637020111,robocape,0.0,0.0,0.0,0.0,10.0,0.0,0.0,0.0,10.0,0.0,0.0,0.0,10.0,-0.325305127153,0.000798948327024,0.0259658206283,1.0,0.0,0.0,0.0,1.0,0.0,0.0,0.0,1.0,-0.177231445313,0.299377441406,10.2578686523,0.1,0.0,0.0,0.0,0.1,0.0,0.0,0.0,0.1
1446034224688305150,52,1446034224686872959,robocape,0.0,0.0,0.0,0.0,10.0,0.0,0.0,0.0,10.0,0.0,0.0,0.0,10.0,-0.201734452574,0.00173105470855,0.00106526443603,1.0,0.0,0.0,0.0,1.0,0.0,0.0,0.0,1.0,-0.132923583984,-0.477806396484,10.177635498,0.1,0.0,0.0,0.0,0.1,0.0,0.0,0.0,0.1
1446034224739579942,53,1446034224738017082,robocape,0.0,0.0,0.0,0.0,10.0,0.0,0.0,0.0,10.0,0.0,0.0,0.0,10.0,0.018242653467,0.0109189604693,-0.00412789968962,1.0,0.0,0.0,0.0,1.0,0.0,0.0,0.0,1.0,0.0467028808594,-0.393980712891,10.132130127,0.1,0.0,0.0,0.0,0.1,0.0,0.0,0.0,0.1
1446034224788398651,54,1446034224786915063,robocape,0.0,0.0,0.0,0.0,10.0,0.0,0.0,0.0,10.0,0.0,0.0,0.0,10.0,0.17710021249,0.0175768631945,-0.0067910607797,1.0,0.0,0.0,0.0,1.0,0.0,0.0,0.0,1.0,-0.353265380859,0.102985839844,10.2171533203,0.1,0.0,0.0,0.0,0.1,0.0,0.0,0.0,0.1
1446034224838425192,55,1446034224836935043,robocape,0.0,0.0,0.0,0.0,10.0,0.0,0.0,0.0,10.0,0.0,0.0,0.0,10.0,0.184290747433,0.0130494893414,-0.00625842856169,1.0,0.0,0.0,0.0,1.0,0.0,0.0,0.0,1.0,-0.0742456054688,1.00351318359,11.3859228516,0.1,0.0,0.0,0.0,0.1,0.0,0.0,0.0,0.1
1446034224893298151,56,1446034224890640020,robocape,0.0,0.0,0.0,0.0,10.0,0.0,0.0,0.0,10.0,0.0,0.0,0.0,10.0,0.0926780059348,0.134090160885,0.0187752856851,1.0,0.0,0.0,0.0,1.0,0.0,0.0,0.0,1.0,-8.21731201172,3.04167480469,12.6241479492,0.1,0.0,0.0,0.0,0.1,0.0,0.0,0.0,0.1
1446034224938497401,57,1446034224937063932,robocape,0.0,0.0,0.0,0.0,10.0,0.0,0.0,0.0,10.0,0.0,0.0,0.0,10.0,-0.123703832634,-0.0439421579863,0.0137152796139,1.0,0.0,0.0,0.0,1.0,0.0,0.0,0.0,1.0,-9.20166503906,4.35893554688,10.9907446289,0.1,0.0,0.0,0.0,0.1,0.0,0.0,0.0,0.1
1446034224989402567,58,1446034224987884998,robocape,0.0,0.0,0.0,0.0,10.0,0.0,0.0,0.0,10.0,0.0,0.0,0.0,10.0,-0.489222692248,0.12889699676,-0.0105194863058,1.0,0.0,0.0,0.0,1.0,0.0,0.0,0.0,1.0,-0.681383056641,1.19391723633,9.06275390625,0.1,0.0,0.0,0.0,0.1,0.0,0.0,0.0,0.1
1446034225038463526,59,1446034225036955118,robocape,0.0,0.0,0.0,0.0,10.0,0.0,0.0,0.0,10.0,0.0,0.0,0.0,10.0,-0.783901466865,0.113583820492,-0.00106526443603,1.0,0.0,0.0,0.0,1.0,0.0,0.0,0.0,1.0,-5.31454833984,1.54598510742,11.9319873047,0.1,0.0,0.0,0.0,0.1,0.0,0.0,0.0,0.1
1446034225092486817,60,1446034225090924024,robocape,0.0,0.0,0.0,0.0,10.0,0.0,0.0,0.0,10.0,0.0,0.0,0.0,10.0,-1.22824989474,0.0844222065555,0.162053352331,1.0,0.0,0.0,0.0,1.0,0.0,0.0,0.0,1.0,-10.847043457,1.28612548828,10.8697961426,0.1,0.0,0.0,0.0,0.1,0.0,0.0,0.0,0.1
1446034225138359942,61,1446034225136878013,robocape,0.0,0.0,0.0,0.0,10.0,0.0,0.0,0.0,10.0,0.0,0.0,0.0,10.0,-1.69030834387,-0.050733218766,0.254731358266,1.0,0.0,0.0,0.0,1.0,0.0,0.0,0.0,1.0,-5.76121948242,2.30161376953,12.5678649902,0.1,0.0,0.0,0.0,0.1,0.0,0.0,0.0,0.1
1446034225188429359,62,1446034225187012910,robocape,0.0,0.0,0.0,0.0,10.0,0.0,0.0,0.0,10.0,0.0,0.0,0.0,10.0,-2.32414068331,0.205729194209,0.221308686586,1.0,0.0,0.0,0.0,1.0,0.0,0.0,0.0,1.0,2.46687011719,2.05732177734,6.38033203125,0.1,0.0,0.0,0.0,0.1,0.0,0.0,0.0,0.1
1446034225238304109,63,1446034225236799955,robocape,0.0,0.0,0.0,0.0,10.0,0.0,0.0,0.0,10.0,0.0,0.0,0.0,10.0,-3.09619108333,0.00506000607115,-0.0117179087963,1.0,0.0,0.0,0.0,1.0,0.0,0.0,0.0,1.0,-5.48100219727,1.60466308594,6.58271118164,0.1,0.0,0.0,0.0,0.1,0.0,0.0,0.0,0.1
1446034225291191109,64,1446034225289688110,robocape,0.0,0.0,0.0,0.0,10.0,0.0,0.0,0.0,10.0,0.0,0.0,0.0,10.0,-3.45758204325,0.361257801869,-0.445413692316,1.0,0.0,0.0,0.0,1.0,0.0,0.0,0.0,1.0,-1.01189575195,-9.49505493164,11.2386291504,0.1,0.0,0.0,0.0,0.1,0.0,0.0,0.0,0.1
1446034225338627901,65,1446034225337007999,robocape,0.0,0.0,0.0,0.0,10.0,0.0,0.0,0.0,10.0,0.0,0.0,0.0,10.0,0.674711862172,1.61241088199,-2.25290112415,1.0,0.0,0.0,0.0,1.0,0.0,0.0,0.0,1.0,6.62821655273,-12.1978344727,11.3775402832,0.1,0.0,0.0,0.0,0.1,0.0,0.0,0.0,0.1
1446034225389716484,66,1446034225388268947,robocape,0.0,0.0,0.0,0.0,10.0,0.0,0.0,0.0,10.0,0.0,0.0,0.0,10.0,-0.158857559023,1.03969808957,-0.937432703708,1.0,0.0,0.0,0.0,1.0,0.0,0.0,0.0,1.0,-1.33282836914,3.95657226563,6.30009887695,0.1,0.0,0.0,0.0,0.1,0.0,0.0,0.0,0.1
1446034225438377734,67,1446034225436940908,robocape,0.0,0.0,0.0,0.0,10.0,0.0,0.0,0.0,10.0,0.0,0.0,0.0,10.0,-1.02718123244,0.413455759235,-0.833968895358,1.0,0.0,0.0,0.0,1.0,0.0,0.0,0.0,1.0,2.57704101563,-2.94347900391,6.59348876953,0.1,0.0,0.0,0.0,0.1,0.0,0.0,0.0,0.1
1446034225489979651,68,1446034225488473892,robocape,0.0,0.0,0.0,0.0,10.0,0.0,0.0,0.0,10.0,0.0,0.0,0.0,10.0,-0.0339553038985,0.958072202156,-0.893623703776,1.0,0.0,0.0,0.0,1.0,0.0,0.0,0.0,1.0,0.00239501953125,1.71124145508,7.94787231445,0.1,0.0,0.0,0.0,0.1,0.0,0.0,0.0,0.1
1446034225538464818,69,1446034225536962985,robocape,0.0,0.0,0.0,0.0,10.0,0.0,0.0,0.0,10.0,0.0,0.0,0.0,10.0,-0.220642896313,0.435426838228,-0.495880594973,1.0,0.0,0.0,0.0,1.0,0.0,0.0,0.0,1.0,-0.943637695313,-0.678988037109,9.67348388672,0.1,0.0,0.0,0.0,0.1,0.0,0.0,0.0,0.1
1446034225588600193,70,1446034225587116003,robocape,0.0,0.0,0.0,0.0,10.0,0.0,0.0,0.0,10.0,0.0,0.0,0.0,10.0,-0.0165115987585,0.862198402913,-0.803608858931,1.0,0.0,0.0,0.0,1.0,0.0,0.0,0.0,1.0,-2.93270141602,-8.83881958008,10.0746496582,0.1,0.0,0.0,0.0,0.1,0.0,0.0,0.0,0.1
1446034225638524943,71,1446034225637041091,robocape,0.0,0.0,0.0,0.0,10.0,0.0,0.0,0.0,10.0,0.0,0.0,0.0,10.0,0.0460726868584,0.0731037719227,-0.200136555919,1.0,0.0,0.0,0.0,1.0,0.0,0.0,0.0,1.0,-4.12063110352,-4.0583605957,6.07017700195,0.1,0.0,0.0,0.0,0.1,0.0,0.0,0.0,0.1
1446034225689143859,72,1446034225687413930,robocape,0.0,0.0,0.0,0.0,10.0,0.0,0.0,0.0,10.0,0.0,0.0,0.0,10.0,-0.465121084382,-0.0790958843754,-0.0233026595382,1.0,0.0,0.0,0.0,1.0,0.0,0.0,0.0,1.0,3.29315185547,-3.76377319336,7.54790405273,0.1,0.0,0.0,0.0,0.1,0.0,0.0,0.0,0.1
1446034225739842109,73,1446034225738301038,robocape,0.0,0.0,0.0,0.0,10.0,0.0,0.0,0.0,10.0,0.0,0.0,0.0,10.0,-0.213851835533,0.107591708039,0.0587227020362,1.0,0.0,0.0,0.0,1.0,0.0,0.0,0.0,1.0,-0.647852783203,-5.5217175293,7.33833984375,0.1,0.0,0.0,0.0,0.1,0.0,0.0,0.0,0.1
1446034225788625776,74,1446034225786937952,robocape,0.0,0.0,0.0,0.0,10.0,0.0,0.0,0.0,10.0,0.0,0.0,0.0,10.0,-0.0298274042089,0.191214966268,0.0402137324602,1.0,0.0,0.0,0.0,1.0,0.0,0.0,0.0,1.0,-1.88009033203,-5.53728515625,8.26521240234,0.1,0.0,0.0,0.0,0.1,0.0,0.0,0.0,0.1
1446034225838443568,75,1446034225837085008,robocape,0.0,0.0,0.0,0.0,10.0,0.0,0.0,0.0,10.0,0.0,0.0,0.0,10.0,-0.049135322112,-0.27110979897,0.14101437972,1.0,0.0,0.0,0.0,1.0,0.0,0.0,0.0,1.0,-2.29442871094,-3.96974487305,6.30129638672,0.1,0.0,0.0,0.0,0.1,0.0,0.0,0.0,0.1
1446034225889060984,76,1446034225887396097,robocape,0.0,0.0,0.0,0.0,10.0,0.0,0.0,0.0,10.0,0.0,0.0,0.0,10.0,-0.240483446434,-0.338487774549,0.160322297623,1.0,0.0,0.0,0.0,1.0,0.0,0.0,0.0,1.0,2.70517456055,-6.80425048828,8.32628540039,0.1,0.0,0.0,0.0,0.1,0.0,0.0,0.0,0.1
1446034225939250109,77,1446034225937736034,robocape,0.0,0.0,0.0,0.0,10.0,0.0,0.0,0.0,10.0,0.0,0.0,0.0,10.0,0.0900148448447,-0.359393589106,0.0986701183874,1.0,0.0,0.0,0.0,1.0,0.0,0.0,0.0,1.0,0.473016357422,-5.14090942383,7.94667480469,0.1,0.0,0.0,0.0,0.1,0.0,0.0,0.0,0.1
1446034225988267734,78,1446034225986799955,robocape,0.0,0.0,0.0,0.0,10.0,0.0,0.0,0.0,10.0,0.0,0.0,0.0,10.0,0.0898816867902,-0.241681868925,0.254331884103,1.0,0.0,0.0,0.0,1.0,0.0,0.0,0.0,1.0,-0.814306640625,-5.94443847656,7.71435791016,0.1,0.0,0.0,0.0,0.1,0.0,0.0,0.0,0.1
1446034226038468818,79,1446034226036838054,robocape,0.0,0.0,0.0,0.0,10.0,0.0,0.0,0.0,10.0,0.0,0.0,0.0,10.0,0.130894367577,-0.323307756336,0.294012984345,1.0,0.0,0.0,0.0,1.0,0.0,0.0,0.0,1.0,-1.43581420898,-6.49409545898,5.94084594727,0.1,0.0,0.0,0.0,0.1,0.0,0.0,0.0,0.1
1446034226088198276,80,1446034226086713075,robocape,0.0,0.0,0.0,0.0,10.0,0.0,0.0,0.0,10.0,0.0,0.0,0.0,10.0,0.0486026898939,-0.361257801869,0.243679239742,1.0,0.0,0.0,0.0,1.0,0.0,0.0,0.0,1.0,-1.14002929688,-1.38671630859,9.61360839844,0.1,0.0,0.0,0.0,0.1,0.0,0.0,0.0,0.1
1446034226138536276,81,1446034226136997938,robocape,0.0,0.0,0.0,0.0,10.0,0.0,0.0,0.0,10.0,0.0,0.0,0.0,10.0,0.182293376616,-0.084821680719,0.422909981105,1.0,0.0,0.0,0.0,1.0,0.0,0.0,0.0,1.0,-0.312550048828,-4.84392700195,7.32157470703,0.1,0.0,0.0,0.0,0.1,0.0,0.0,0.0,0.1
1446034226188671818,82,1446034226186831951,robocape,0.0,0.0,0.0,0.0,10.0,0.0,0.0,0.0,10.0,0.0,0.0,0.0,10.0,0.136087531703,-0.0478037415669,0.176301264163,1.0,0.0,0.0,0.0,1.0,0.0,0.0,0.0,1.0,4.01405273438,-8.01852539063,4.72058349609,0.1,0.0,0.0,0.0,0.1,0.0,0.0,0.0,0.1
1446034226239573485,83,1446034226237890958,robocape,0.0,0.0,0.0,0.0,10.0,0.0,0.0,0.0,10.0,0.0,0.0,0.0,10.0,-0.107192233876,-0.176967054436,0.311589847539,1.0,0.0,0.0,0.0,1.0,0.0,0.0,0.0,1.0,1.85973266602,-6.57432861328,5.39717651367,0.1,0.0,0.0,0.0,0.1,0.0,0.0,0.0,0.1
1446034226292138568,84,1446034226290667057,robocape,0.0,0.0,0.0,0.0,10.0,0.0,0.0,0.0,10.0,0.0,0.0,0.0,10.0,-0.106393285549,-0.214783941915,0.18801917296,1.0,0.0,0.0,0.0,1.0,0.0,0.0,0.0,1.0,0.0682580566406,-4.53257446289,7.21499633789,0.1,0.0,0.0,0.0,0.1,0.0,0.0,0.0,0.1
1446034226338364151,85,1446034226336867094,robocape,0.0,0.0,0.0,0.0,10.0,0.0,0.0,0.0,10.0,0.0,0.0,0.0,10.0,0.082957467956,-0.259125574065,0.122638568198,1.0,0.0,0.0,0.0,1.0,0.0,0.0,0.0,1.0,3.75419311523,-8.60650268555,7.72274047852,0.1,0.0,0.0,0.0,0.1,0.0,0.0,0.0,0.1
1446034226388371193,86,1446034226386773109,robocape,0.0,0.0,0.0,0.0,10.0,0.0,0.0,0.0,10.0,0.0,0.0,0.0,10.0,0.149669653262,-0.0270310850643,0.238219759508,1.0,0.0,0.0,0.0,1.0,0.0,0.0,0.0,1.0,-2.81654296875,-3.32787963867,8.42567871094,0.1,0.0,0.0,0.0,0.1,0.0,0.0,0.0,0.1
1446034226440509068,87,1446034226438976049,robocape,0.0,0.0,0.0,0.0,10.0,0.0,0.0,0.0,10.0,0.0,0.0,0.0,10.0,0.159789665405,-0.0607200728538,0.13688648003,1.0,0.0,0.0,0.0,1.0,0.0,0.0,0.0,1.0,-0.323327636719,-5.99233886719,8.04127807617,0.1,0.0,0.0,0.0,0.1,0.0,0.0,0.0,0.1
1446034226488215068,88,1446034226486731052,robocape,0.0,0.0,0.0,0.0,10.0,0.0,0.0,0.0,10.0,0.0,0.0,0.0,10.0,0.22676816682,-0.0270310850643,-0.00279631914458,1.0,0.0,0.0,0.0,1.0,0.0,0.0,0.0,1.0,2.23096069336,-2.67403930664,7.46647338867,0.1,0.0,0.0,0.0,0.1,0.0,0.0,0.0,0.1
1446034226538431485,89,1446034226536914110,robocape,0.0,0.0,0.0,0.0,10.0,0.0,0.0,0.0,10.0,0.0,0.0,0.0,10.0,0.184024431324,-0.0117179087963,-0.0664458691975,1.0,0.0,0.0,0.0,1.0,0.0,0.0,0.0,1.0,1.01309326172,-5.52291503906,8.35622314453,0.1,0.0,0.0,0.0,0.1,0.0,0.0,0.0,0.1
1446034226588169610,90,1446034226586728096,robocape,0.0,0.0,0.0,0.0,10.0,0.0,0.0,0.0,10.0,0.0,0.0,0.0,10.0,0.195609182066,0.153664394898,-0.14221280221,1.0,0.0,0.0,0.0,1.0,0.0,0.0,0.0,1.0,-2.54111572266,-5.97317871094,8.47357910156,0.1,0.0,0.0,0.0,0.1,0.0,0.0,0.0,0.1
1446034226640003068,91,1446034226638494014,robocape,0.0,0.0,0.0,0.0,10.0,0.0,0.0,0.0,10.0,0.0,0.0,0.0,10.0,0.0968059056244,0.142345960265,-0.0906806351172,1.0,0.0,0.0,0.0,1.0,0.0,0.0,0.0,1.0,-4.91458007813,-6.25459350586,12.0349731445,0.1,0.0,0.0,0.0,0.1,0.0,0.0,0.0,0.1
1446034226688551026,92,1446034226687108039,robocape,0.0,0.0,0.0,0.0,10.0,0.0,0.0,0.0,10.0,0.0,0.0,0.0,10.0,0.0444747902043,0.0644484983799,-0.170042835602,1.0,0.0,0.0,0.0,1.0,0.0,0.0,0.0,1.0,-4.12182861328,-6.65456176758,8.06762329102,0.1,0.0,0.0,0.0,0.1,0.0,0.0,0.0,0.1
1446034226739671693,93,1446034226738149881,robocape,0.0,0.0,0.0,0.0,10.0,0.0,0.0,0.0,10.0,0.0,0.0,0.0,10.0,0.338354616495,0.236089230636,-0.343680938675,1.0,0.0,0.0,0.0,1.0,0.0,0.0,0.0,1.0,-6.35877685547,-1.93757080078,10.326126709,0.1,0.0,0.0,0.0,0.1,0.0,0.0,0.0,0.1
1446034226788492610,94,1446034226786976099,robocape,0.0,0.0,0.0,0.0,10.0,0.0,0.0,0.0,10.0,0.0,0.0,0.0,10.0,0.155262291552,0.494815330537,-1.08550446032,1.0,0.0,0.0,0.0,1.0,0.0,0.0,0.0,1.0,-0.420325927734,-3.23567138672,12.2086120605,0.1,0.0,0.0,0.0,0.1,0.0,0.0,0.0,0.1
1446034226839232151,95,1446034226837670087,robocape,0.0,0.0,0.0,0.0,10.0,0.0,0.0,0.0,10.0,0.0,0.0,0.0,10.0,0.466985297145,0.704139792217,-0.973252220369,1.0,0.0,0.0,0.0,1.0,0.0,0.0,0.0,1.0,-6.96830932617,1.83218994141,11.0817553711,0.1,0.0,0.0,0.0,0.1,0.0,0.0,0.0,0.1
1446034226889201277,96,1446034226887125968,robocape,0.0,0.0,0.0,0.0,10.0,0.0,0.0,0.0,10.0,0.0,0.0,0.0,10.0,0.0773648296668,0.7302387709,-0.925049004639,1.0,0.0,0.0,0.0,1.0,0.0,0.0,0.0,1.0,-3.19256103516,-0.463436279297,13.4085168457,0.1,0.0,0.0,0.0,0.1,0.0,0.0,0.0,0.1
1446034226938276235,97,1446034226936855077,robocape,0.0,0.0,0.0,0.0,10.0,0.0,0.0,0.0,10.0,0.0,0.0,0.0,10.0,0.00932106381528,0.689492406222,-1.12851451192,1.0,0.0,0.0,0.0,1.0,0.0,0.0,0.0,1.0,-2.39022949219,-1.10410400391,13.545032959,0.1,0.0,0.0,0.0,0.1,0.0,0.0,0.0,0.1
1446034226988252402,98,1446034226986784934,robocape,0.0,0.0,0.0,0.0,10.0,0.0,0.0,0.0,10.0,0.0,0.0,0.0,10.0,0.172572838637,1.0922955211,-1.28337732931,1.0,0.0,0.0,0.0,1.0,0.0,0.0,0.0,1.0,2.31837890625,-0.986748046875,12.4636816406,0.1,0.0,0.0,0.0,0.1,0.0,0.0,0.0,0.1
1446034227038254735,99,1446034227036837100,robocape,0.0,0.0,0.0,0.0,10.0,0.0,0.0,0.0,10.0,0.0,0.0,0.0,10.0,0.565655415533,0.974051168696,-1.35168741127,1.0,0.0,0.0,0.0,1.0,0.0,0.0,0.0,1.0,-2.82492553711,-1.65376098633,12.7355163574,0.1,0.0,0.0,0.0,0.1,0.0,0.0,0.0,0.1
1446034227090810485,100,1446034227089255094,robocape,0.0,0.0,0.0,0.0,10.0,0.0,0.0,0.0,10.0,0.0,0.0,0.0,10.0,1.03117597408,0.658466579522,-1.36926427446,1.0,0.0,0.0,0.0,1.0,0.0,0.0,0.0,1.0,-5.8282800293,-1.23702758789,11.6302148438,0.1,0.0,0.0,0.0,0.1,0.0,0.0,0.0,0.1
1446034227138502193,101,1446034227137000083,robocape,0.0,0.0,0.0,0.0,10.0,0.0,0.0,0.0,10.0,0.0,0.0,0.0,10.0,1.1900335331,0.569383841059,-1.13437346632,1.0,0.0,0.0,0.0,1.0,0.0,0.0,0.0,1.0,-1.97110107422,1.59867553711,10.8338708496,0.1,0.0,0.0,0.0,0.1,0.0,0.0,0.0,0.1
1446034227188306735,102,1446034227186902999,robocape,0.0,0.0,0.0,0.0,10.0,0.0,0.0,0.0,10.0,0.0,0.0,0.0,10.0,0.569250683004,0.271775589243,-0.385492567789,1.0,0.0,0.0,0.0,1.0,0.0,0.0,0.0,1.0,-3.62126953125,3.295546875,10.7692053223,0.1,0.0,0.0,0.0,0.1,0.0,0.0,0.0,0.1
1446034227238268652,103,1446034227236790895,robocape,0.0,0.0,0.0,0.0,10.0,0.0,0.0,0.0,10.0,0.0,0.0,0.0,10.0,-1.48844073325,-0.0404800485692,0.510261664859,1.0,0.0,0.0,0.0,1.0,0.0,0.0,0.0,1.0,-5.39837402344,5.26425292969,10.556048584,0.1,0.0,0.0,0.0,0.1,0.0,0.0,0.0,0.1
1446034227292682818,104,1446034227291160106,robocape,0.0,0.0,0.0,0.0,10.0,0.0,0.0,0.0,10.0,0.0,0.0,0.0,10.0,-3.75838608837,-0.522778521983,0.967126949862,1.0,0.0,0.0,0.0,1.0,0.0,0.0,0.0,1.0,-2.39022949219,5.42950927734,4.63436279297,0.1,0.0,0.0,0.0,0.1,0.0,0.0,0.0,0.1
1446034227338343693,105,1446034227336909055,robocape,0.0,0.0,0.0,0.0,10.0,0.0,0.0,0.0,10.0,0.0,0.0,0.0,10.0,-2.40456814823,0.200402872028,-0.532898534125,1.0,0.0,0.0,0.0,1.0,0.0,0.0,0.0,1.0,19.3361901855,-19.62,14.2599462891,0.1,0.0,0.0,0.0,0.1,0.0,0.0,0.0,0.1
1446034227388473193,106,1446034227386926889,robocape,0.0,0.0,0.0,0.0,10.0,0.0,0.0,0.0,10.0,0.0,0.0,0.0,10.0,1.68724570862,1.76980370241,-1.29243207702,1.0,0.0,0.0,0.0,1.0,0.0,0.0,0.0,1.0,-2.21299804688,-5.30856079102,4.50503173828,0.1,0.0,0.0,0.0,0.1,0.0,0.0,0.0,0.1
1446034227438587777,107,1446034227436825990,robocape,0.0,0.0,0.0,0.0,10.0,0.0,0.0,0.0,10.0,0.0,0.0,0.0,10.0,-0.160854929841,-0.105993811385,0.367915704594,1.0,0.0,0.0,0.0,1.0,0.0,0.0,0.0,1.0,-7.89518188477,7.23176147461,8.34784057617,0.1,0.0,0.0,0.0,0.1,0.0,0.0,0.0,0.1
1446034227491530277,108,1446034227489973068,robocape,0.0,0.0,0.0,0.0,10.0,0.0,0.0,0.0,10.0,0.0,0.0,0.0,10.0,-1.70322467516,-0.30067088707,0.160322297623,1.0,0.0,0.0,0.0,1.0,0.0,0.0,0.0,1.0,-1.04782104492,-10.8326733398,10.5943688965,0.1,0.0,0.0,0.0,0.1,0.0,0.0,0.0,0.1
1446034227538748193,109,1446034227536902904,robocape,0.0,0.0,0.0,0.0,10.0,0.0,0.0,0.0,10.0,0.0,0.0,0.0,10.0,0.902944767591,0.612793366827,-0.941826919507,1.0,0.0,0.0,0.0,1.0,0.0,0.0,0.0,1.0,3.51349365234,-5.90851318359,9.11544433594,0.1,0.0,0.0,0.0,0.1,0.0,0.0,0.0,0.1
1446034227588229277,110,1446034227586785078,robocape,0.0,0.0,0.0,0.0,10.0,0.0,0.0,0.0,10.0,0.0,0.0,0.0,10.0,0.522245889765,0.403202589038,-0.369513601248,1.0,0.0,0.0,0.0,1.0,0.0,0.0,0.0,1.0,-1.27055786133,3.62486206055,8.87953491211,0.1,0.0,0.0,0.0,0.1,0.0,0.0,0.0,0.1
1446034227638526569,111,1446034227636945009,robocape,0.0,0.0,0.0,0.0,10.0,0.0,0.0,0.0,10.0,0.0,0.0,0.0,10.0,-0.633965497493,0.176434422218,-0.397476792694,1.0,0.0,0.0,0.0,1.0,0.0,0.0,0.0,1.0,-2.54949829102,-3.54822143555,12.2720800781,0.1,0.0,0.0,0.0,0.1,0.0,0.0,0.0,0.1
1446034227691014069,112,1446034227689526081,robocape,0.0,0.0,0.0,0.0,10.0,0.0,0.0,0.0,10.0,0.0,0.0,0.0,10.0,0.102931176132,0.555934877554,-0.845287329991,1.0,0.0,0.0,0.0,1.0,0.0,0.0,0.0,1.0,-3.66318237305,-4.44036621094,12.5211621094,0.1,0.0,0.0,0.0,0.1,0.0,0.0,0.0,0.1
1446034227738274360,113,1446034227736867904,robocape,0.0,0.0,0.0,0.0,10.0,0.0,0.0,0.0,10.0,0.0,0.0,0.0,10.0,0.309459318667,0.638093397183,-0.801877804223,1.0,0.0,0.0,0.0,1.0,0.0,0.0,0.0,1.0,-3.85957397461,0.0203576660156,10.4315075684,0.1,0.0,0.0,0.0,0.1,0.0,0.0,0.0,0.1
1446034227788426402,114,1446034227786942958,robocape,0.0,0.0,0.0,0.0,10.0,0.0,0.0,0.0,10.0,0.0,0.0,0.0,10.0,0.264451896245,0.739027202497,-1.03690177042,1.0,0.0,0.0,0.0,1.0,0.0,0.0,0.0,1.0,1.83099243164,-2.02618652344,11.8254089355,0.1,0.0,0.0,0.0,0.1,0.0,0.0,0.0,0.1
1446034227838758860,115,1446034227837225914,robocape,0.0,0.0,0.0,0.0,10.0,0.0,0.0,0.0,10.0,0.0,0.0,0.0,10.0,1.56980030455,1.29429628978,-1.76114842887,1.0,0.0,0.0,0.0,1.0,0.0,0.0,0.0,1.0,1.92200317383,-4.56730224609,13.9258410645,0.1,0.0,0.0,0.0,0.1,0.0,0.0,0.0,0.1
1446034227888960069,116,1446034227887470006,robocape,0.0,0.0,0.0,0.0,10.0,0.0,0.0,0.0,10.0,0.0,0.0,0.0,10.0,3.62829066912,1.03224123851,-2.33798912098,1.0,0.0,0.0,0.0,1.0,0.0,0.0,0.0,1.0,-3.20214111328,-3.64162719727,9.36931640625,0.1,0.0,0.0,0.0,0.1,0.0,0.0,0.0,0.1
1446034227940372652,117,1446034227938522100,robocape,0.0,0.0,0.0,0.0,10.0,0.0,0.0,0.0,10.0,0.0,0.0,0.0,10.0,4.36318997193,0.626508646441,-2.42693870139,1.0,0.0,0.0,0.0,1.0,0.0,0.0,0.0,1.0,-6.49409545898,-2.9925769043,4.87506225586,0.1,0.0,0.0,0.0,0.1,0.0,0.0,0.0,0.1
1446034227988326985,118,1446034227986843109,robocape,0.0,0.0,0.0,0.0,10.0,0.0,0.0,0.0,10.0,0.0,0.0,0.0,10.0,4.36318997193,-0.0250337142467,-1.99683818534,1.0,0.0,0.0,0.0,1.0,0.0,0.0,0.0,1.0,-4.68226318359,-1.14721435547,-3.5673815918,0.1,0.0,0.0,0.0,0.1,0.0,0.0,0.0,0.1
1446034228038848444,119,1446034228037347078,robocape,0.0,0.0,0.0,0.0,10.0,0.0,0.0,0.0,10.0,0.0,0.0,0.0,10.0,4.36318997193,-0.40533311791,-0.947685873905,1.0,0.0,0.0,0.0,1.0,0.0,0.0,0.0,1.0,-3.07281005859,11.2230615234,-1.92918823242,0.1,0.0,0.0,0.0,0.1,0.0,0.0,0.0,0.1
1446034228088386485,120,1446034228086910009,robocape,0.0,0.0,0.0,0.0,10.0,0.0,0.0,0.0,10.0,0.0,0.0,0.0,10.0,-1.4841796755,2.72547905959,2.6578347679,1.0,0.0,0.0,0.0,1.0,0.0,0.0,0.0,1.0,13.529465332,19.6194012451,8.24605224609,0.1,0.0,0.0,0.0,0.1,0.0,0.0,0.0,0.1
1446034228140479319,121,1446034228138966083,robocape,0.0,0.0,0.0,0.0,10.0,0.0,0.0,0.0,10.0,0.0,0.0,0.0,10.0,-4.36332312999,1.20188459995,2.27127693567,1.0,0.0,0.0,0.0,1.0,0.0,0.0,0.0,1.0,-7.44012817383,3.86795654297,3.79131591797,0.1,0.0,0.0,0.0,0.1,0.0,0.0,0.0,0.1
1446034228188386110,122,1446034228186953067,robocape,0.0,0.0,0.0,0.0,10.0,0.0,0.0,0.0,10.0,0.0,0.0,0.0,10.0,-4.36332312999,-0.223039741294,1.00774015649,1.0,0.0,0.0,0.0,1.0,0.0,0.0,0.0,1.0,-2.97581176758,2.10162963867,1.92200317383,0.1,0.0,0.0,0.0,0.1,0.0,0.0,0.0,0.1
1446034228239705985,123,1446034228238219022,robocape,0.0,0.0,0.0,0.0,10.0,0.0,0.0,0.0,10.0,0.0,0.0,0.0,10.0,-4.36332312999,-0.173638103073,1.91108439824,1.0,0.0,0.0,0.0,1.0,0.0,0.0,0.0,1.0,-3.74581054688,5.45705200195,0.112565917969,0.1,0.0,0.0,0.0,0.1,0.0,0.0,0.0,0.1
1446034228288386486,124,1446034228286897897,robocape,0.0,0.0,0.0,0.0,10.0,0.0,0.0,0.0,10.0,0.0,0.0,0.0,10.0,-4.36332312999,-0.339952513149,1.2608736181,1.0,0.0,0.0,0.0,1.0,0.0,0.0,0.0,1.0,-1.12446166992,-1.88607788086,-1.94475585938,0.1,0.0,0.0,0.0,0.1,0.0,0.0,0.0,0.1
1446034228342950611,125,1446034228340909957,robocape,0.0,0.0,0.0,0.0,10.0,0.0,0.0,0.0,10.0,0.0,0.0,0.0,10.0,-2.22094319107,2.09750567455,-3.21696543876,1.0,0.0,0.0,0.0,1.0,0.0,0.0,0.0,1.0,19.6194012451,-19.62,19.6194012451,0.1,0.0,0.0,0.0,0.1,0.0,0.0,0.0,0.1
1446034228388420444,126,1446034228386955976,robocape,0.0,0.0,0.0,0.0,10.0,0.0,0.0,0.0,10.0,0.0,0.0,0.0,10.0,4.20047082933,2.24637637948,-3.30711344166,1.0,0.0,0.0,0.0,1.0,0.0,0.0,0.0,1.0,-8.97294067383,-2.74708740234,6.80544799805,0.1,0.0,0.0,0.0,0.1,0.0,0.0,0.0,0.1
1446034228438437111,127,1446034228437010049,robocape,0.0,0.0,0.0,0.0,10.0,0.0,0.0,0.0,10.0,0.0,0.0,0.0,10.0,3.96544686313,0.278433491968,-0.91679320526,1.0,0.0,0.0,0.0,1.0,0.0,0.0,0.0,1.0,-8.28197753906,4.92176513672,5.78516967773,0.1,0.0,0.0,0.0,0.1,0.0,0.0,0.0,0.1
1446034228488253694,128,1446034228486792087,robocape,0.0,0.0,0.0,0.0,10.0,0.0,0.0,0.0,10.0,0.0,0.0,0.0,10.0,2.1626199632,-0.151400707971,0.136353847812,1.0,0.0,0.0,0.0,1.0,0.0,0.0,0.0,1.0,-0.989143066406,4.4415637207,5.25946289063,0.1,0.0,0.0,0.0,0.1,0.0,0.0,0.0,0.1
1446034228542491319,129,1446034228540987968,robocape,0.0,0.0,0.0,0.0,10.0,0.0,0.0,0.0,10.0,0.0,0.0,0.0,10.0,0.545282233194,0.0318247750264,0.448343169515,1.0,0.0,0.0,0.0,1.0,0.0,0.0,0.0,1.0,-5.45705200195,3.97932495117,11.8972595215,0.1,0.0,0.0,0.0,0.1,0.0,0.0,0.0,0.1
1446034228588321444,130,1446034228586915016,robocape,0.0,0.0,0.0,0.0,10.0,0.0,0.0,0.0,10.0,0.0,0.0,0.0,10.0,-0.580302801528,-0.141813328047,0.472045303217,1.0,0.0,0.0,0.0,1.0,0.0,0.0,0.0,1.0,6.14083007813,2.6441015625,11.1021130371,0.1,0.0,0.0,0.0,0.1,0.0,0.0,0.0,0.1
1446034228638383652,131,1446034228636876106,robocape,0.0,0.0,0.0,0.0,10.0,0.0,0.0,0.0,10.0,0.0,0.0,0.0,10.0,-1.16806245411,0.111985923838,0.205329720045,1.0,0.0,0.0,0.0,1.0,0.0,0.0,0.0,1.0,-0.908909912109,1.17834960938,9.6986315918,0.1,0.0,0.0,0.0,0.1,0.0,0.0,0.0,0.1
1446034228688808902,132,1446034228686971902,robocape,0.0,0.0,0.0,0.0,10.0,0.0,0.0,0.0,10.0,0.0,0.0,0.0,10.0,-0.437424209046,0.267914005662,-0.497079017463,1.0,0.0,0.0,0.0,1.0,0.0,0.0,0.0,1.0,3.36500244141,-1.69926635742,12.4708666992,0.1,0.0,0.0,0.0,0.1,0.0,0.0,0.0,0.1
1446034228741053902,133,1446034228739625930,robocape,0.0,0.0,0.0,0.0,10.0,0.0,0.0,0.0,10.0,0.0,0.0,0.0,10.0,1.28936944176,0.231828172891,-1.38124849937,1.0,0.0,0.0,0.0,1.0,0.0,0.0,0.0,1.0,-7.81973876953,-4.10266845703,11.2027038574,0.1,0.0,0.0,0.0,0.1,0.0,0.0,0.0,0.1
1446034228788719069,134,1446034228786895036,robocape,0.0,0.0,0.0,0.0,10.0,0.0,0.0,0.0,10.0,0.0,0.0,0.0,10.0,3.3453298033,-0.113450662437,-1.64090670565,1.0,0.0,0.0,0.0,1.0,0.0,0.0,0.0,1.0,4.58167236328,-2.05732177734,7.25571166992,0.1,0.0,0.0,0.0,0.1,0.0,0.0,0.0,0.1
1446034228839655402,135,1446034228838206052,robocape,0.0,0.0,0.0,0.0,10.0,0.0,0.0,0.0,10.0,0.0,0.0,0.0,10.0,4.36318997193,0.00772316716123,-1.45848017098,1.0,0.0,0.0,0.0,1.0,0.0,0.0,0.0,1.0,-6.61384643555,-0.334105224609,3.41889038086,0.1,0.0,0.0,0.0,0.1,0.0,0.0,0.0,0.1
1446034228888439652,136,1446034228886990070,robocape,0.0,0.0,0.0,0.0,10.0,0.0,0.0,0.0,10.0,0.0,0.0,0.0,10.0,4.36318997193,0.106925917767,-0.736097725298,1.0,0.0,0.0,0.0,1.0,0.0,0.0,0.0,1.0,1.22145996094,1.91841064453,4.80440917969,0.1,0.0,0.0,0.0,0.1,0.0,0.0,0.0,0.1
1446034228939779569,137,1446034228938287973,robocape,0.0,0.0,0.0,0.0,10.0,0.0,0.0,0.0,10.0,0.0,0.0,0.0,10.0,0.151533866026,1.91507913988,2.27034482929,1.0,0.0,0.0,0.0,1.0,0.0,0.0,0.0,1.0,12.1427490234,19.6194012451,19.297869873,0.1,0.0,0.0,0.0,0.1,0.0,0.0,0.0,0.1
1446034228988268986,138,1446034228986824989,robocape,0.0,0.0,0.0,0.0,10.0,0.0,0.0,0.0,10.0,0.0,0.0,0.0,10.0,-3.99833690259,0.811864658311,1.82772745612,1.0,0.0,0.0,0.0,1.0,0.0,0.0,0.0,1.0,-4.10745849609,3.68833007813,4.31103515625,0.1,0.0,0.0,0.0,0.1,0.0,0.0,0.0,0.1
1446034229038504944,139,1446034229036977052,robocape,0.0,0.0,0.0,0.0,10.0,0.0,0.0,0.0,10.0,0.0,0.0,0.0,10.0,-3.72509657475,0.218379209386,0.861665770695,1.0,0.0,0.0,0.0,1.0,0.0,0.0,0.0,1.0,1.11727661133,1.72201904297,8.07361083984,0.1,0.0,0.0,0.0,0.1,0.0,0.0,0.0,0.1
1446034229088321944,140,1446034229086869955,robocape,0.0,0.0,0.0,0.0,10.0,0.0,0.0,0.0,10.0,0.0,0.0,0.0,10.0,-3.15251694038,-0.258859257956,0.635829710256,1.0,0.0,0.0,0.0,1.0,0.0,0.0,0.0,1.0,-7.56347167969,1.27534790039,5.68457885742,0.1,0.0,0.0,0.0,0.1,0.0,0.0,0.0,0.1
1446034229138676528,141,1446034229137283086,robocape,0.0,0.0,0.0,0.0,10.0,0.0,0.0,0.0,10.0,0.0,0.0,0.0,10.0,-2.99712149078,0.0406132066237,0.56645436386,1.0,0.0,0.0,0.0,1.0,0.0,0.0,0.0,1.0,0.914897460938,2.63092895508,8.94539794922,0.1,0.0,0.0,0.0,0.1,0.0,0.0,0.0,0.1
1446034229189865528,142,1446034229188457965,robocape,0.0,0.0,0.0,0.0,10.0,0.0,0.0,0.0,10.0,0.0,0.0,0.0,10.0,-3.04678944511,0.205995510318,0.312122479757,1.0,0.0,0.0,0.0,1.0,0.0,0.0,0.0,1.0,-4.55173461914,-0.78556640625,10.7620202637,0.1,0.0,0.0,0.0,0.1,0.0,0.0,0.0,0.1
1446034229238607236,143,1446034229237117052,robocape,0.0,0.0,0.0,0.0,10.0,0.0,0.0,0.0,10.0,0.0,0.0,0.0,10.0,-1.70269204294,0.136620163921,-0.621315482315,1.0,0.0,0.0,0.0,1.0,0.0,0.0,0.0,1.0,2.17467773438,-2.9470715332,13.0827941895,0.1,0.0,0.0,0.0,0.1,0.0,0.0,0.0,0.1
1446034229288402153,144,1446034229286909103,robocape,0.0,0.0,0.0,0.0,10.0,0.0,0.0,0.0,10.0,0.0,0.0,0.0,10.0,-0.18242653467,0.400938902111,-1.06459864576,1.0,0.0,0.0,0.0,1.0,0.0,0.0,0.0,1.0,1.91122558594,-2.61416381836,12.5906176758,0.1,0.0,0.0,0.0,0.1,0.0,0.0,0.0,0.1
1446034229338883944,145,1446034229337475061,robocape,0.0,0.0,0.0,0.0,10.0,0.0,0.0,0.0,10.0,0.0,0.0,0.0,10.0,1.34423056022,0.451405804768,-1.32931685811,1.0,0.0,0.0,0.0,1.0,0.0,0.0,0.0,1.0,1.22625,-2.58662109375,10.1249450684,0.1,0.0,0.0,0.0,0.1,0.0,0.0,0.0,0.1
1446034229393124153,146,1446034229391115903,robocape,0.0,0.0,0.0,0.0,10.0,0.0,0.0,0.0,10.0,0.0,0.0,0.0,10.0,2.86449606849,0.237154495072,-1.5210644566,1.0,0.0,0.0,0.0,1.0,0.0,0.0,0.0,1.0,0.108973388672,-2.71475463867,8.62326782227,0.1,0.0,0.0,0.0,0.1,0.0,0.0,0.0,0.1
1446034229438516861,147,1446034229437103033,robocape,0.0,0.0,0.0,0.0,10.0,0.0,0.0,0.0,10.0,0.0,0.0,0.0,10.0,4.36318997193,-0.172972312801,-1.45541753573,1.0,0.0,0.0,0.0,1.0,0.0,0.0,0.0,1.0,-5.83786010742,-1.85135009766,6.71683227539,0.1,0.0,0.0,0.0,0.1,0.0,0.0,0.0,0.1
1446034229488251903,148,1446034229486797094,robocape,0.0,0.0,0.0,0.0,10.0,0.0,0.0,0.0,10.0,0.0,0.0,0.0,10.0,4.36318997193,-0.0476705835124,-1.08217550895,1.0,0.0,0.0,0.0,1.0,0.0,0.0,0.0,1.0,-0.086220703125,1.06817871094,6.85095336914,0.1,0.0,0.0,0.0,0.1,0.0,0.0,0.0,0.1
1446034229538391611,149,1446034229536904096,robocape,0.0,0.0,0.0,0.0,10.0,0.0,0.0,0.0,10.0,0.0,0.0,0.0,10.0,4.36318997193,0.0697748205601,-0.204797087827,1.0,0.0,0.0,0.0,1.0,0.0,0.0,0.0,1.0,8.4651965332,19.6194012451,7.47964599609,0.1,0.0,0.0,0.0,0.1,0.0,0.0,0.0,0.1
1446034229590656778,150,1446034229588799953,robocape,0.0,0.0,0.0,0.0,10.0,0.0,0.0,0.0,10.0,0.0,0.0,0.0,10.0,-2.21135581115,2.20136895706,2.48419666483,1.0,0.0,0.0,0.0,1.0,0.0,0.0,0.0,1.0,-1.50646728516,19.6194012451,13.5617980957,0.1,0.0,0.0,0.0,0.1,0.0,0.0,0.0,0.1
1446034229638446694,151,1446034229636918067,robocape,0.0,0.0,0.0,0.0,10.0,0.0,0.0,0.0,10.0,0.0,0.0,0.0,10.0,-3.89993310031,0.356330953853,1.37365849026,1.0,0.0,0.0,0.0,1.0,0.0,0.0,0.0,1.0,-4.67627563477,1.50047973633,7.35151245117,0.1,0.0,0.0,0.0,0.1,0.0,0.0,0.0,0.1
1446034229688349820,152,1446034229686830043,robocape,0.0,0.0,0.0,0.0,10.0,0.0,0.0,0.0,10.0,0.0,0.0,0.0,10.0,-3.21443543573,0.139017008902,0.456732126949,1.0,0.0,0.0,0.0,1.0,0.0,0.0,0.0,1.0,1.24421264648,-0.861009521484,6.48092285156,0.1,0.0,0.0,0.0,0.1,0.0,0.0,0.0,0.1
1446034229738306153,153,1446034229736828088,robocape,0.0,0.0,0.0,0.0,10.0,0.0,0.0,0.0,10.0,0.0,0.0,0.0,10.0,-2.3549001939,-0.0420779452233,0.353667792763,1.0,0.0,0.0,0.0,1.0,0.0,0.0,0.0,1.0,-4.87985229492,0.40236328125,5.53848266602,0.1,0.0,0.0,0.0,0.1,0.0,0.0,0.0,0.1
1446034229791456570,154,1446034229789927005,robocape,0.0,0.0,0.0,0.0,10.0,0.0,0.0,0.0,10.0,0.0,0.0,0.0,10.0,-1.90735597271,-0.0223705531567,0.239817656162,1.0,0.0,0.0,0.0,1.0,0.0,0.0,0.0,1.0,1.42862915039,1.16158447266,10.6063439941,0.1,0.0,0.0,0.0,0.1,0.0,0.0,0.0,0.1
1446034229838704153,155,1446034229837325096,robocape,0.0,0.0,0.0,0.0,10.0,0.0,0.0,0.0,10.0,0.0,0.0,0.0,10.0,-1.60841614035,0.161787036222,0.207593406972,1.0,0.0,0.0,0.0,1.0,0.0,0.0,0.0,1.0,0.492176513672,1.22505249023,14.6359643555,0.1,0.0,0.0,0.0,0.1,0.0,0.0,0.0,0.1
1446034229888458111,156,1446034229886981010,robocape,0.0,0.0,0.0,0.0,10.0,0.0,0.0,0.0,10.0,0.0,0.0,0.0,10.0,-1.68884360527,-0.137552270303,0.190016543777,1.0,0.0,0.0,0.0,1.0,0.0,0.0,0.0,1.0,-4.89661743164,1.302890625,10.290201416,0.1,0.0,0.0,0.0,0.1,0.0,0.0,0.0,0.1
1446034229938269528,157,1446034229936826944,robocape,0.0,0.0,0.0,0.0,10.0,0.0,0.0,0.0,10.0,0.0,0.0,0.0,10.0,-1.96394814588,0.253932409939,0.191747598486,1.0,0.0,0.0,0.0,1.0,0.0,0.0,0.0,1.0,0.342487792969,1.85494262695,7.92272460938,0.1,0.0,0.0,0.0,0.1,0.0,0.0,0.0,0.1
1446034229990816528,158,1446034229989419937,robocape,0.0,0.0,0.0,0.0,10.0,0.0,0.0,0.0,10.0,0.0,0.0,0.0,10.0,-2.18645525496,-0.184290747433,0.0557932248372,1.0,0.0,0.0,0.0,1.0,0.0,0.0,0.0,1.0,-0.186811523438,1.70645141602,8.59572509766,0.1,0.0,0.0,0.0,0.1,0.0,0.0,0.0,0.1
1446034230038394903,159,1446034230036931991,robocape,0.0,0.0,0.0,0.0,10.0,0.0,0.0,0.0,10.0,0.0,0.0,0.0,10.0,-2.33452701156,0.363787804905,-0.110121711075,1.0,0.0,0.0,0.0,1.0,0.0,0.0,0.0,1.0,4.03321289063,1.48970214844,6.19591552734,0.1,0.0,0.0,0.0,0.1,0.0,0.0,0.0,0.1
1446034230088319320,160,1446034230086838960,robocape,0.0,0.0,0.0,0.0,10.0,0.0,0.0,0.0,10.0,0.0,0.0,0.0,10.0,-2.35237019087,0.0898816867902,-0.325704601317,1.0,0.0,0.0,0.0,1.0,0.0,0.0,0.0,1.0,-0.626297607422,0.0239501953125,6.92160644531,0.1,0.0,0.0,0.0,0.1,0.0,0.0,0.0,0.1
1446034230138548403,161,1446034230137063980,robocape,0.0,0.0,0.0,0.0,10.0,0.0,0.0,0.0,10.0,0.0,0.0,0.0,10.0,-0.923983740203,0.855673658242,-1.12611766694,1.0,0.0,0.0,0.0,1.0,0.0,0.0,0.0,1.0,11.8936669922,-10.4614453125,15.4143457031,0.1,0.0,0.0,0.0,0.1,0.0,0.0,0.0,0.1
1446034230189629653,162,1446034230188143014,robocape,0.0,0.0,0.0,0.0,10.0,0.0,0.0,0.0,10.0,0.0,0.0,0.0,10.0,1.53930711007,1.15514612282,-1.89044489979,1.0,0.0,0.0,0.0,1.0,0.0,0.0,0.0,1.0,-5.98036376953,-6.53720581055,16.6825085449,0.1,0.0,0.0,0.0,0.1,0.0,0.0,0.0,0.1
1446034230238359195,163,1446034230236881017,robocape,0.0,0.0,0.0,0.0,10.0,0.0,0.0,0.0,10.0,0.0,0.0,0.0,10.0,3.67529546236,0.945422186978,-1.99044659873,1.0,0.0,0.0,0.0,1.0,0.0,0.0,0.0,1.0,-3.18298095703,-3.49912353516,10.9308691406,0.1,0.0,0.0,0.0,0.1,0.0,0.0,0.0,0.1
1446034230288475361,164,1446034230286986112,robocape,0.0,0.0,0.0,0.0,10.0,0.0,0.0,0.0,10.0,0.0,0.0,0.0,10.0,4.36318997193,0.524642734746,-2.07500196334,1.0,0.0,0.0,0.0,1.0,0.0,0.0,0.0,1.0,-1.82500488281,-2.16270263672,6.29530883789,0.1,0.0,0.0,0.0,0.1,0.0,0.0,0.0,0.1
1446034230338696736,165,1446034230337270021,robocape,0.0,0.0,0.0,0.0,10.0,0.0,0.0,0.0,10.0,0.0,0.0,0.0,10.0,4.36318997193,-0.18801917296,-1.47286124087,1.0,0.0,0.0,0.0,1.0,0.0,0.0,0.0,1.0,-1.59268798828,-1.45018432617,1.1076965332,0.1,0.0,0.0,0.0,0.1,0.0,0.0,0.0,0.1
1446034230388478695,166,1446034230386990070,robocape,0.0,0.0,0.0,0.0,10.0,0.0,0.0,0.0,10.0,0.0,0.0,0.0,10.0,4.36318997193,-0.131693315904,-0.959270624647,1.0,0.0,0.0,0.0,1.0,0.0,0.0,0.0,1.0,-0.382005615234,-0.650247802734,-5.13731689453,0.1,0.0,0.0,0.0,0.1,0.0,0.0,0.0,0.1
1446034230439745320,167,1446034230438324928,robocape,0.0,0.0,0.0,0.0,10.0,0.0,0.0,0.0,10.0,0.0,0.0,0.0,10.0,0.609597573519,2.97328619902,2.59192153092,1.0,0.0,0.0,0.0,1.0,0.0,0.0,0.0,1.0,16.0526184082,19.6194012451,16.0681860352,0.1,0.0,0.0,0.0,0.1,0.0,0.0,0.0,0.1
1446034230488796445,168,1446034230487307071,robocape,0.0,0.0,0.0,0.0,10.0,0.0,0.0,0.0,10.0,0.0,0.0,0.0,10.0,-4.36332312999,1.26713204666,1.80735427378,1.0,0.0,0.0,0.0,1.0,0.0,0.0,0.0,1.0,-4.78405151367,5.80073730469,1.75315429688,0.1,0.0,0.0,0.0,0.1,0.0,0.0,0.0,0.1
1446034230538382278,169,1446034230536890983,robocape,0.0,0.0,0.0,0.0,10.0,0.0,0.0,0.0,10.0,0.0,0.0,0.0,10.0,-4.36332312999,0.439288421809,1.11413344203,1.0,0.0,0.0,0.0,1.0,0.0,0.0,0.0,1.0,-3.72784790039,1.55676269531,10.1453027344,0.1,0.0,0.0,0.0,0.1,0.0,0.0,0.0,0.1
1446034230588350778,170,1446034230586918115,robocape,0.0,0.0,0.0,0.0,10.0,0.0,0.0,0.0,10.0,0.0,0.0,0.0,10.0,-4.36332312999,0.443283163444,0.269645060371,1.0,0.0,0.0,0.0,1.0,0.0,0.0,0.0,1.0,0.222736816406,-3.0692175293,10.7991430664,0.1,0.0,0.0,0.0,0.1,0.0,0.0,0.0,0.1
1446034230642231320,171,1446034230639969110,robocape,0.0,0.0,0.0,0.0,10.0,0.0,0.0,0.0,10.0,0.0,0.0,0.0,10.0,-2.03785086613,0.0535295379106,-0.604803883557,1.0,0.0,0.0,0.0,1.0,0.0,0.0,0.0,1.0,-3.25243652344,-5.20557495117,13.3749865723,0.1,0.0,0.0,0.0,0.1,0.0,0.0,0.0,0.1
1446034230688254487,172,1446034230686844110,robocape,0.0,0.0,0.0,0.0,10.0,0.0,0.0,0.0,10.0,0.0,0.0,0.0,10.0,-0.853276813261,0.00532632218016,-0.57031594744,1.0,0.0,0.0,0.0,1.0,0.0,0.0,0.0,1.0,-0.960402832031,-0.615520019531,11.1560009766,0.1,0.0,0.0,0.0,0.1,0.0,0.0,0.0,0.1
1446034230738332403,173,1446034230736852884,robocape,0.0,0.0,0.0,0.0,10.0,0.0,0.0,0.0,10.0,0.0,0.0,0.0,10.0,-0.489755324466,0.0675111336335,-0.379367297282,1.0,0.0,0.0,0.0,1.0,0.0,0.0,0.0,1.0,0.97716796875,0.9196875,6.61863647461,0.1,0.0,0.0,0.0,0.1,0.0,0.0,0.0,0.1
1446034230788432362,174,1446034230786941051,robocape,0.0,0.0,0.0,0.0,10.0,0.0,0.0,0.0,10.0,0.0,0.0,0.0,10.0,-0.428635777448,-0.0952080089703,-0.245010820287,1.0,0.0,0.0,0.0,1.0,0.0,0.0,0.0,1.0,-0.3448828125,1.15918945312,7.58023681641,0.1,0.0,0.0,0.0,0.1,0.0,0.0,0.0,0.1
1446034230842780237,175,1446034230840133905,robocape,0.0,0.0,0.0,0.0,10.0,0.0,0.0,0.0,10.0,0.0,0.0,0.0,10.0,-0.416784710597,0.188684963232,-0.252867145503,1.0,0.0,0.0,0.0,1.0,0.0,0.0,0.0,1.0,3.9469921875,1.05740112305,10.8446484375,0.1,0.0,0.0,0.0,0.1,0.0,0.0,0.0,0.1
1446034230888226278,176,1446034230886749982,robocape,0.0,0.0,0.0,0.0,10.0,0.0,0.0,0.0,10.0,0.0,0.0,0.0,10.0,-0.370046233467,0.305331418978,-0.312655111975,1.0,0.0,0.0,0.0,1.0,0.0,0.0,0.0,1.0,1.22505249023,0.161663818359,12.3846459961,0.1,0.0,0.0,0.0,0.1,0.0,0.0,0.0,0.1
1446034230938405653,177,1446034230936974048,robocape,0.0,0.0,0.0,0.0,10.0,0.0,0.0,0.0,10.0,0.0,0.0,0.0,10.0,-0.290151400764,0.171507574201,-0.332229345987,1.0,0.0,0.0,0.0,1.0,0.0,0.0,0.0,1.0,2.18665283203,0.0107775878906,12.5978027344,0.1,0.0,0.0,0.0,0.1,0.0,0.0,0.0,0.1
1446034230990960695,178,1446034230989445924,robocape,0.0,0.0,0.0,0.0,10.0,0.0,0.0,0.0,10.0,0.0,0.0,0.0,10.0,-0.243279765579,0.0310258266994,-0.384294145298,1.0,0.0,0.0,0.0,1.0,0.0,0.0,0.0,1.0,-1.90164550781,0.540076904297,7.60777954102,0.1,0.0,0.0,0.0,0.1,0.0,0.0,0.0,0.1
1446034231038257903,179,1446034231036843061,robocape,0.0,0.0,0.0,0.0,10.0,0.0,0.0,0.0,10.0,0.0,0.0,0.0,10.0,-0.148737546881,0.228366063474,-0.416385236434,1.0,0.0,0.0,0.0,1.0,0.0,0.0,0.0,1.0,2.73870483398,1.3064831543,7.52036132813,0.1,0.0,0.0,0.0,0.1,0.0,0.0,0.0,0.1
1446034231088376154,180,1446034231086936950,robocape,0.0,0.0,0.0,0.0,10.0,0.0,0.0,0.0,10.0,0.0,0.0,0.0,10.0,-0.0623179695079,0.0410126807872,-0.443283163444,1.0,0.0,0.0,0.0,1.0,0.0,0.0,0.0,1.0,-1.15799194336,0.504151611328,10.8147106934,0.1,0.0,0.0,0.0,0.1,0.0,0.0,0.0,0.1
1446034231138606237,181,1446034231137008905,robocape,0.0,0.0,0.0,0.0,10.0,0.0,0.0,0.0,10.0,0.0,0.0,0.0,10.0,-0.0126500151779,-0.0203731823391,-0.464322136055,1.0,0.0,0.0,0.0,1.0,0.0,0.0,0.0,1.0,-3.43685302734,0.929267578125,10.1920056152,0.1,0.0,0.0,0.0,0.1,0.0,0.0,0.0,0.1
1446034231190791737,182,1446034231189280986,robocape,0.0,0.0,0.0,0.0,10.0,0.0,0.0,0.0,10.0,0.0,0.0,0.0,10.0,0.178431793035,0.254331884103,-0.479635312323,1.0,0.0,0.0,0.0,1.0,0.0,0.0,0.0,1.0,7.85686157227,0.0562829589844,7.16110839844,0.1,0.0,0.0,0.0,0.1,0.0,0.0,0.0,0.1
1446034231238189737,183,1446034231236787080,robocape,0.0,0.0,0.0,0.0,10.0,0.0,0.0,0.0,10.0,0.0,0.0,0.0,10.0,0.253000303558,0.429701041884,-0.487891111703,1.0,0.0,0.0,0.0,1.0,0.0,0.0,0.0,1.0,0.456251220703,2.01421142578,15.3353100586,0.1,0.0,0.0,0.0,0.1,0.0,0.0,0.0,0.1
1446034231288516820,184,1446034231287024021,robocape,0.0,0.0,0.0,0.0,10.0,0.0,0.0,0.0,10.0,0.0,0.0,0.0,10.0,0.36365464685,-0.0636495500529,-0.465387400491,1.0,0.0,0.0,0.0,1.0,0.0,0.0,0.0,1.0,-5.76960205078,0.784368896484,10.2722387695,0.1,0.0,0.0,0.0,0.1,0.0,0.0,0.0,0.1
1446034231338533820,185,1446034231337217092,robocape,0.0,0.0,0.0,0.0,10.0,0.0,0.0,0.0,10.0,0.0,0.0,0.0,10.0,0.418782081415,0.370845181794,-0.41478733978,1.0,0.0,0.0,0.0,1.0,0.0,0.0,0.0,1.0,4.57328979492,0.429906005859,11.2278515625,0.1,0.0,0.0,0.0,0.1,0.0,0.0,0.0,0.1
1446034231389215070,186,1446034231387717962,robocape,0.0,0.0,0.0,0.0,10.0,0.0,0.0,0.0,10.0,0.0,0.0,0.0,10.0,0.455666862513,0.0262321367373,-0.399074689348,1.0,0.0,0.0,0.0,1.0,0.0,0.0,0.0,1.0,-2.24173828125,1.30887817383,7.03656738281,0.1,0.0,0.0,0.0,0.1,0.0,0.0,0.0,0.1
1446034231438384445,187,1446034231436975002,robocape,0.0,0.0,0.0,0.0,10.0,0.0,0.0,0.0,10.0,0.0,0.0,0.0,10.0,0.573778056858,0.183092324943,-0.406531540401,1.0,0.0,0.0,0.0,1.0,0.0,0.0,0.0,1.0,1.96271850586,1.44898681641,6.04742431641,0.1,0.0,0.0,0.0,0.1,0.0,0.0,0.0,0.1
1446034231488352362,188,1446034231486860036,robocape,0.0,0.0,0.0,0.0,10.0,0.0,0.0,0.0,10.0,0.0,0.0,0.0,10.0,0.68323397766,-0.353934108872,-0.415453130052,1.0,0.0,0.0,0.0,1.0,0.0,0.0,0.0,1.0,-4.84871704102,1.302890625,8.52746704102,0.1,0.0,0.0,0.0,0.1,0.0,0.0,0.0,0.1
1446034231538467987,189,1446034231536993026,robocape,0.0,0.0,0.0,0.0,10.0,0.0,0.0,0.0,10.0,0.0,0.0,0.0,10.0,0.818788877145,0.318647224428,-0.37191044623,1.0,0.0,0.0,0.0,1.0,0.0,0.0,0.0,1.0,0.196391601563,1.0346484375,13.0564489746,0.1,0.0,0.0,0.0,0.1,0.0,0.0,0.0,0.1
1446034231588229779,190,1446034231586759090,robocape,0.0,0.0,0.0,0.0,10.0,0.0,0.0,0.0,10.0,0.0,0.0,0.0,10.0,1.0068080501,0.0539290120741,-0.323174598281,1.0,0.0,0.0,0.0,1.0,0.0,0.0,0.0,1.0,-5.07983642578,1.04422851562,9.68785400391,0.1,0.0,0.0,0.0,0.1,0.0,0.0,0.0,0.1
1446034231640284737,191,1446034231638833999,robocape,0.0,0.0,0.0,0.0,10.0,0.0,0.0,0.0,10.0,0.0,0.0,0.0,10.0,1.14822190399,0.0607200728538,-0.320644595246,1.0,0.0,0.0,0.0,1.0,0.0,0.0,0.0,1.0,4.07752075195,1.456171875,7.94068725586,0.1,0.0,0.0,0.0,0.1,0.0,0.0,0.0,0.1
1446034231688414945,192,1446034231687000989,robocape,0.0,0.0,0.0,0.0,10.0,0.0,0.0,0.0,10.0,0.0,0.0,0.0,10.0,1.38391166046,-0.00279631914458,-0.239684498107,1.0,0.0,0.0,0.0,1.0,0.0,0.0,0.0,1.0,-1.80584472656,1.85135009766,10.6590344238,0.1,0.0,0.0,0.0,0.1,0.0,0.0,0.0,0.1
1446034231739318195,193,1446034231737917900,robocape,0.0,0.0,0.0,0.0,10.0,0.0,0.0,0.0,10.0,0.0,0.0,0.0,10.0,1.46513807371,0.208392355299,-0.120108565163,1.0,0.0,0.0,0.0,1.0,0.0,0.0,0.0,1.0,3.04287231445,1.73638916016,8.89869506836,0.1,0.0,0.0,0.0,0.1,0.0,0.0,0.0,0.1
1446034231788389612,194,1446034231786892890,robocape,0.0,0.0,0.0,0.0,10.0,0.0,0.0,0.0,10.0,0.0,0.0,0.0,10.0,1.4721954506,0.0615190211808,0.0688427141785,1.0,0.0,0.0,0.0,1.0,0.0,0.0,0.0,1.0,0.789158935547,2.48842529297,10.0710571289,0.1,0.0,0.0,0.0,0.1,0.0,0.0,0.0,0.1
1446034231842361654,195,1446034231840132951,robocape,0.0,0.0,0.0,0.0,10.0,0.0,0.0,0.0,10.0,0.0,0.0,0.0,10.0,1.35634794318,0.113850136601,0.240217130325,1.0,0.0,0.0,0.0,1.0,0.0,0.0,0.0,1.0,0.235909423828,2.3411315918,8.31311279297,0.1,0.0,0.0,0.0,0.1,0.0,0.0,0.0,0.1
1446034231889614946,196,1446034231888113975,robocape,0.0,0.0,0.0,0.0,10.0,0.0,0.0,0.0,10.0,0.0,0.0,0.0,10.0,1.17325561823,0.309592476722,0.437024734882,1.0,0.0,0.0,0.0,1.0,0.0,0.0,0.0,1.0,1.68848876953,2.7207421875,7.34312988281,0.1,0.0,0.0,0.0,0.1,0.0,0.0,0.0,0.1
1446034231938348779,197,1446034231936824083,robocape,0.0,0.0,0.0,0.0,10.0,0.0,0.0,0.0,10.0,0.0,0.0,0.0,10.0,0.838363111157,0.271509273134,0.604138093284,1.0,0.0,0.0,0.0,1.0,0.0,0.0,0.0,1.0,-0.817899169922,2.65128662109,12.303215332,0.1,0.0,0.0,0.0,0.1,0.0,0.0,0.0,0.1
1446034231988151237,198,1446034231986766099,robocape,0.0,0.0,0.0,0.0,10.0,0.0,0.0,0.0,10.0,0.0,0.0,0.0,10.0,0.676176600771,0.43223104492,0.804540965313,1.0,0.0,0.0,0.0,1.0,0.0,0.0,0.0,1.0,4.16613647461,2.87522094727,8.56219482422,0.1,0.0,0.0,0.0,0.1,0.0,0.0,0.0,0.1
1446034232041464821,199,1446034232039994001,robocape,0.0,0.0,0.0,0.0,10.0,0.0,0.0,0.0,10.0,0.0,0.0,0.0,10.0,0.392549944678,0.0862864193186,0.894422652103,1.0,0.0,0.0,0.0,1.0,0.0,0.0,0.0,1.0,-0.959205322266,1.9196081543,10.1417102051,0.1,0.0,0.0,0.0,0.1,0.0,0.0,0.0,0.1
1446034232088266529,200,1446034232086839914,robocape,0.0,0.0,0.0,0.0,10.0,0.0,0.0,0.0,10.0,0.0,0.0,0.0,10.0,-0.034354778062,0.580835433746,0.968991162625,1.0,0.0,0.0,0.0,1.0,0.0,0.0,0.0,1.0,1.17715209961,5.08103393555,12.9247229004,0.1,0.0,0.0,0.0,0.1,0.0,0.0,0.0,0.1
1446034232138818154,201,1446034232137393951,robocape,0.0,0.0,0.0,0.0,10.0,0.0,0.0,0.0,10.0,0.0,0.0,0.0,10.0,-0.108390656366,0.318247750264,0.862864193186,1.0,0.0,0.0,0.0,1.0,0.0,0.0,0.0,1.0,5.11935424805,3.63204711914,12.8217370605,0.1,0.0,0.0,0.0,0.1,0.0,0.0,0.0,0.1
1446034232188603612,202,1446034232187182903,robocape,0.0,0.0,0.0,0.0,10.0,0.0,0.0,0.0,10.0,0.0,0.0,0.0,10.0,-0.068176923906,0.117445404072,0.798149378697,1.0,0.0,0.0,0.0,1.0,0.0,0.0,0.0,1.0,5.65104858398,2.31957641602,7.25211914063,0.1,0.0,0.0,0.0,0.1,0.0,0.0,0.0,0.1
1446034232240809821,203,1446034232239186048,robocape,0.0,0.0,0.0,0.0,10.0,0.0,0.0,0.0,10.0,0.0,0.0,0.0,10.0,-0.0808269390839,-0.0101200121423,0.770718819469,1.0,0.0,0.0,0.0,1.0,0.0,0.0,0.0,1.0,-0.5748046875,2.19383789063,8.67955078125,0.1,0.0,0.0,0.0,0.1,0.0,0.0,0.0,0.1
1446034232288525112,204,1446034232286835908,robocape,0.0,0.0,0.0,0.0,10.0,0.0,0.0,0.0,10.0,0.0,0.0,0.0,10.0,0.134489635049,0.492418485556,0.781371463829,1.0,0.0,0.0,0.0,1.0,0.0,0.0,0.0,1.0,3.0237121582,3.24405395508,12.0708984375,0.1,0.0,0.0,0.0,0.1,0.0,0.0,0.0,0.1
1446034232338300696,205,1446034232336827993,robocape,0.0,0.0,0.0,0.0,10.0,0.0,0.0,0.0,10.0,0.0,0.0,0.0,10.0,0.203332349228,0.517585357857,0.731836667554,1.0,0.0,0.0,0.0,1.0,0.0,0.0,0.0,1.0,4.46790893555,1.88368286133,9.67348388672,0.1,0.0,0.0,0.0,0.1,0.0,0.0,0.0,0.1
1446034232388255071,206,1446034232386723041,robocape,0.0,0.0,0.0,0.0,10.0,0.0,0.0,0.0,10.0,0.0,0.0,0.0,10.0,0.358062008561,0.408795227327,0.712928223814,1.0,0.0,0.0,0.0,1.0,0.0,0.0,0.0,1.0,2.3028112793,1.71483398438,7.23655151367,0.1,0.0,0.0,0.0,0.1,0.0,0.0,0.0,0.1
1446034232439085779,207,1446034232437583923,robocape,0.0,0.0,0.0,0.0,10.0,0.0,0.0,0.0,10.0,0.0,0.0,0.0,10.0,0.661396056721,0.506799555442,0.717455597667,1.0,0.0,0.0,0.0,1.0,0.0,0.0,0.0,1.0,6.88927368164,2.17707275391,8.64003295898,0.1,0.0,0.0,0.0,0.1,0.0,0.0,0.0,0.1
1446034232491536779,208,1446034232489047050,robocape,0.0,0.0,0.0,0.0,10.0,0.0,0.0,0.0,10.0,0.0,0.0,0.0,10.0,0.743021944132,0.161387562059,0.696816099219,1.0,0.0,0.0,0.0,1.0,0.0,0.0,0.0,1.0,5.8594152832,1.63939086914,7.44012817383,0.1,0.0,0.0,0.0,0.1,0.0,0.0,0.0,0.1
1446034232538377029,209,1446034232536887884,robocape,0.0,0.0,0.0,0.0,10.0,0.0,0.0,0.0,10.0,0.0,0.0,0.0,10.0,1.06646285852,0.314785640847,0.791890950135,1.0,0.0,0.0,0.0,1.0,0.0,0.0,0.0,1.0,4.54933959961,1.6825012207,11.5595617676,0.1,0.0,0.0,0.0,0.1,0.0,0.0,0.0,0.1
1446034232588286654,210,1446034232586827993,robocape,0.0,0.0,0.0,0.0,10.0,0.0,0.0,0.0,10.0,0.0,0.0,0.0,10.0,1.38697429571,0.838229953102,0.682435029333,1.0,0.0,0.0,0.0,1.0,0.0,0.0,0.0,1.0,-0.878972167969,1.83099243164,9.6183984375,0.1,0.0,0.0,0.0,0.1,0.0,0.0,0.0,0.1
1446034232638497946,211,1446034232637001037,robocape,0.0,0.0,0.0,0.0,10.0,0.0,0.0,0.0,10.0,0.0,0.0,0.0,10.0,0.544749600976,0.938897442307,1.49429968764,1.0,0.0,0.0,0.0,1.0,0.0,0.0,0.0,1.0,9.56690551758,12.6936035156,9.75491455078,0.1,0.0,0.0,0.0,0.1,0.0,0.0,0.0,0.1
1446034232689840738,212,1446034232688409090,robocape,0.0,0.0,0.0,0.0,10.0,0.0,0.0,0.0,10.0,0.0,0.0,0.0,10.0,-0.708134533852,1.11080449067,1.68058780589,1.0,0.0,0.0,0.0,1.0,0.0,0.0,0.0,1.0,0.971180419922,2.94946655273,10.2590661621,0.1,0.0,0.0,0.0,0.1,0.0,0.0,0.0,0.1
1446034232738359238,213,1446034232736884117,robocape,0.0,0.0,0.0,0.0,10.0,0.0,0.0,0.0,10.0,0.0,0.0,0.0,10.0,-0.248606087759,0.944623238651,1.34303213773,1.0,0.0,0.0,0.0,1.0,0.0,0.0,0.0,1.0,-1.19990478516,2.55069580078,10.8997338867,0.1,0.0,0.0,0.0,0.1,0.0,0.0,0.0,0.1
1446034232788243029,214,1446034232786839008,robocape,0.0,0.0,0.0,0.0,10.0,0.0,0.0,0.0,10.0,0.0,0.0,0.0,10.0,0.217979735223,0.614923895699,1.24729149654,1.0,0.0,0.0,0.0,1.0,0.0,0.0,0.0,1.0,2.58422607422,1.23822509766,9.28788574219,0.1,0.0,0.0,0.0,0.1,0.0,0.0,0.0,0.1
1446034232838190279,215,1446034232836740970,robocape,0.0,0.0,0.0,0.0,10.0,0.0,0.0,0.0,10.0,0.0,0.0,0.0,10.0,0.748481424367,0.790293053481,1.08670288281,1.0,0.0,0.0,0.0,1.0,0.0,0.0,0.0,1.0,0.858614501953,2.24173828125,12.6672583008,0.1,0.0,0.0,0.0,0.1,0.0,0.0,0.0,0.1
1446034232891524113,216,1446034232889489889,robocape,0.0,0.0,0.0,0.0,10.0,0.0,0.0,0.0,10.0,0.0,0.0,0.0,10.0,1.3586116301,1.0141317431,1.36793269392,1.0,0.0,0.0,0.0,1.0,0.0,0.0,0.0,1.0,5.61751831055,6.81622558594,13.504317627,0.1,0.0,0.0,0.0,0.1,0.0,0.0,0.0,0.1
1446034232938211738,217,1446034232936817884,robocape,0.0,0.0,0.0,0.0,10.0,0.0,0.0,0.0,10.0,0.0,0.0,0.0,10.0,-0.491752695283,1.48457914966,1.96048603646,1.0,0.0,0.0,0.0,1.0,0.0,0.0,0.0,1.0,1.01069824219,4.4870690918,11.1560009766,0.1,0.0,0.0,0.0,0.1,0.0,0.0,0.0,0.1
1446034232988294154,218,1446034232986826896,robocape,0.0,0.0,0.0,0.0,10.0,0.0,0.0,0.0,10.0,0.0,0.0,0.0,10.0,-0.183491799106,0.848483123299,1.44929226522,1.0,0.0,0.0,0.0,1.0,0.0,0.0,0.0,1.0,3.63803466797,0.140108642578,8.25443481445,0.1,0.0,0.0,0.0,0.1,0.0,0.0,0.0,0.1
1446034233038685071,219,1446034233036839962,robocape,0.0,0.0,0.0,0.0,10.0,0.0,0.0,0.0,10.0,0.0,0.0,0.0,10.0,0.531034321362,0.746350895495,1.16420087053,1.0,0.0,0.0,0.0,1.0,0.0,0.0,0.0,1.0,-3.89070922852,0.801134033203,10.484197998,0.1,0.0,0.0,0.0,0.1,0.0,0.0,0.0,0.1
1446034233092285404,220,1446034233090877056,robocape,0.0,0.0,0.0,0.0,10.0,0.0,0.0,0.0,10.0,0.0,0.0,0.0,10.0,0.664991324193,0.813728871074,1.45421911324,1.0,0.0,0.0,0.0,1.0,0.0,0.0,0.0,1.0,0.969982910156,8.37897583008,8.10714111328,0.1,0.0,0.0,0.0,0.1,0.0,0.0,0.0,0.1
1446034233138422238,221,1446034233136957883,robocape,0.0,0.0,0.0,0.0,10.0,0.0,0.0,0.0,10.0,0.0,0.0,0.0,10.0,-0.0557932248372,1.01080279174,1.59310296409,1.0,0.0,0.0,0.0,1.0,0.0,0.0,0.0,1.0,5.27503051758,0.946032714844,7.87721923828,0.1,0.0,0.0,0.0,0.1,0.0,0.0,0.0,0.1
1446034233188336905,222,1446034233186913013,robocape,0.0,0.0,0.0,0.0,10.0,0.0,0.0,0.0,10.0,0.0,0.0,0.0,10.0,0.27523769866,0.940628497016,1.33584160278,1.0,0.0,0.0,0.0,1.0,0.0,0.0,0.0,1.0,-1.6058605957,2.75427246094,9.3537487793,0.1,0.0,0.0,0.0,0.1,0.0,0.0,0.0,0.1
1446034233238201696,223,1446034233236742019,robocape,0.0,0.0,0.0,0.0,10.0,0.0,0.0,0.0,10.0,0.0,0.0,0.0,10.0,0.270044534534,1.118927132,1.46713544452,1.0,0.0,0.0,0.0,1.0,0.0,0.0,0.0,1.0,1.73279663086,5.99353637695,9.08430908203,0.1,0.0,0.0,0.0,0.1,0.0,0.0,0.0,0.1
1446034233288628363,224,1446034233286787033,robocape,0.0,0.0,0.0,0.0,10.0,0.0,0.0,0.0,10.0,0.0,0.0,0.0,10.0,0.275903488932,0.882305269143,1.392566934,1.0,0.0,0.0,0.0,1.0,0.0,0.0,0.0,1.0,0.395178222656,6.42344238281,8.79451171875,0.1,0.0,0.0,0.0,0.1,0.0,0.0,0.0,0.1
1446034233338147446,225,1446034233336702108,robocape,0.0,0.0,0.0,0.0,10.0,0.0,0.0,0.0,10.0,0.0,0.0,0.0,10.0,0.22290658324,1.09216236304,1.52039866633,1.0,0.0,0.0,0.0,1.0,0.0,0.0,0.0,1.0,-0.5748046875,2.31598388672,9.9213684082,0.1,0.0,0.0,0.0,0.1,0.0,0.0,0.0,0.1
1446034233388421530,226,1446034233386950969,robocape,0.0,0.0,0.0,0.0,10.0,0.0,0.0,0.0,10.0,0.0,0.0,0.0,10.0,0.171241258092,0.860467348205,1.4885738913,1.0,0.0,0.0,0.0,1.0,0.0,0.0,0.0,1.0,3.02969970703,1.97229858398,11.4182556152,0.1,0.0,0.0,0.0,0.1,0.0,0.0,0.0,0.1
1446034233438628405,227,1446034233436863899,robocape,0.0,0.0,0.0,0.0,10.0,0.0,0.0,0.0,10.0,0.0,0.0,0.0,10.0,0.153797552952,0.988831712746,1.43810698864,1.0,0.0,0.0,0.0,1.0,0.0,0.0,0.0,1.0,2.56985595703,8.21611450195,7.48204101563,0.1,0.0,0.0,0.0,0.1,0.0,0.0,0.0,0.1
1446034233490735155,228,1446034233489340066,robocape,0.0,0.0,0.0,0.0,10.0,0.0,0.0,0.0,10.0,0.0,0.0,0.0,10.0,0.3222424919,0.969257478734,1.42053012545,1.0,0.0,0.0,0.0,1.0,0.0,0.0,0.0,1.0,2.47764770508,6.91322387695,9.57169555664,0.1,0.0,0.0,0.0,0.1,0.0,0.0,0.0,0.1
1446034233538618446,229,1446034233537080049,robocape,0.0,0.0,0.0,0.0,10.0,0.0,0.0,0.0,10.0,0.0,0.0,0.0,10.0,0.22144184464,0.9933590866,1.38311271213,1.0,0.0,0.0,0.0,1.0,0.0,0.0,0.0,1.0,1.94595336914,4.81877929688,9.24836791992,0.1,0.0,0.0,0.0,0.1,0.0,0.0,0.0,0.1
1446034233588312071,230,1446034233586848974,robocape,0.0,0.0,0.0,0.0,10.0,0.0,0.0,0.0,10.0,0.0,0.0,0.0,10.0,0.21611552246,1.12119081892,1.414538013,1.0,0.0,0.0,0.0,1.0,0.0,0.0,0.0,1.0,-0.398770751953,8.12630126953,11.3296398926,0.1,0.0,0.0,0.0,0.1,0.0,0.0,0.0,0.1
1446034233639233821,231,1446034233637768983,robocape,0.0,0.0,0.0,0.0,10.0,0.0,0.0,0.0,10.0,0.0,0.0,0.0,10.0,0.418249449197,1.062734433,1.40774695222,1.0,0.0,0.0,0.0,1.0,0.0,0.0,0.0,1.0,-1.21427490234,6.28572875977,8.99569335938,0.1,0.0,0.0,0.0,0.1,0.0,0.0,0.0,0.1
1446034233688659530,232,1446034233686891078,robocape,0.0,0.0,0.0,0.0,10.0,0.0,0.0,0.0,10.0,0.0,0.0,0.0,10.0,0.0762995652308,1.13450662437,1.43304698257,1.0,0.0,0.0,0.0,1.0,0.0,0.0,0.0,1.0,3.23806640625,4.22241943359,9.52140014648,0.1,0.0,0.0,0.0,0.1,0.0,0.0,0.0,0.1
1446034233738324155,233,1446034233736844062,robocape,0.0,0.0,0.0,0.0,10.0,0.0,0.0,0.0,10.0,0.0,0.0,0.0,10.0,0.0400805744057,1.01599595587,1.54942712221,1.0,0.0,0.0,0.0,1.0,0.0,0.0,0.0,1.0,2.28963867188,4.75411376953,9.09987670898,0.1,0.0,0.0,0.0,0.1,0.0,0.0,0.0,0.1
1446034233790364530,234,1446034233788048028,robocape,0.0,0.0,0.0,0.0,10.0,0.0,0.0,0.0,10.0,0.0,0.0,0.0,10.0,0.237420811181,1.01093594979,1.70162677851,1.0,0.0,0.0,0.0,1.0,0.0,0.0,0.0,1.0,2.44770996094,4.96248046875,10.6207141113,0.1,0.0,0.0,0.0,0.1,0.0,0.0,0.0,0.1
1446034233838252696,235,1446034233836774110,robocape,0.0,0.0,0.0,0.0,10.0,0.0,0.0,0.0,10.0,0.0,0.0,0.0,10.0,0.385359409734,1.08217550895,1.75622158085,1.0,0.0,0.0,0.0,1.0,0.0,0.0,0.0,1.0,3.47876586914,6.75994262695,7.34672241211,0.1,0.0,0.0,0.0,0.1,0.0,0.0,0.0,0.1
1446034233888280613,236,1446034233886748075,robocape,0.0,0.0,0.0,0.0,10.0,0.0,0.0,0.0,10.0,0.0,0.0,0.0,10.0,0.0910801092807,1.22505410144,1.86874013691,1.0,0.0,0.0,0.0,1.0,0.0,0.0,0.0,1.0,-0.640667724609,3.25004150391,9.88903564453,0.1,0.0,0.0,0.0,0.1,0.0,0.0,0.0,0.1
1446034233938421863,237,1446034233937006950,robocape,0.0,0.0,0.0,0.0,10.0,0.0,0.0,0.0,10.0,0.0,0.0,0.0,10.0,0.421045768342,1.29869050558,2.00269713974,1.0,0.0,0.0,0.0,1.0,0.0,0.0,0.0,1.0,1.47892456055,5.56961791992,10.5895788574,0.1,0.0,0.0,0.0,0.1,0.0,0.0,0.0,0.1
1446034233988185697,238,1446034233986723899,robocape,0.0,0.0,0.0,0.0,10.0,0.0,0.0,0.0,10.0,0.0,0.0,0.0,10.0,0.0575242795457,1.59563296712,2.208559492,1.0,0.0,0.0,0.0,1.0,0.0,0.0,0.0,1.0,-3.66198486328,5.96719116211,11.3559851074,0.1,0.0,0.0,0.0,0.1,0.0,0.0,0.0,0.1
1446034234038628113,239,1446034234036793947,robocape,0.0,0.0,0.0,0.0,10.0,0.0,0.0,0.0,10.0,0.0,0.0,0.0,10.0,0.291482981309,1.45208858437,2.29218275023,1.0,0.0,0.0,0.0,1.0,0.0,0.0,0.0,1.0,0.355660400391,1.77590698242,11.0386450195,0.1,0.0,0.0,0.0,0.1,0.0,0.0,0.0,0.1
1446034234088970197,240,1446034234087517023,robocape,0.0,0.0,0.0,0.0,10.0,0.0,0.0,0.0,10.0,0.0,0.0,0.0,10.0,0.54901065872,1.48737546881,2.3399864918,1.0,0.0,0.0,0.0,1.0,0.0,0.0,0.0,1.0,0.319735107422,2.71235961914,11.710447998,0.1,0.0,0.0,0.0,0.1,0.0,0.0,0.0,0.1
1446034234138475905,241,1446034234136981010,robocape,0.0,0.0,0.0,0.0,10.0,0.0,0.0,0.0,10.0,0.0,0.0,0.0,10.0,0.488423743921,1.51254234111,2.51575512374,1.0,0.0,0.0,0.0,1.0,0.0,0.0,0.0,1.0,1.36516113281,5.54327270508,11.3200598145,0.1,0.0,0.0,0.0,0.1,0.0,0.0,0.0,0.1
1446034234188313405,242,1446034234186906099,robocape,0.0,0.0,0.0,0.0,10.0,0.0,0.0,0.0,10.0,0.0,0.0,0.0,10.0,0.00545948023466,1.71387731952,2.8249481263,1.0,0.0,0.0,0.0,1.0,0.0,0.0,0.0,1.0,-7.02578979492,3.63084960938,10.9009313965,0.1,0.0,0.0,0.0,0.1,0.0,0.0,0.0,0.1
1446034234238348863,243,1446034234236782073,robocape,0.0,0.0,0.0,0.0,10.0,0.0,0.0,0.0,10.0,0.0,0.0,0.0,10.0,0.0310258266994,1.5210644566,2.50616774382,1.0,0.0,0.0,0.0,1.0,0.0,0.0,0.0,1.0,-6.58271118164,1.68369873047,10.6015539551,0.1,0.0,0.0,0.0,0.1,0.0,0.0,0.0,0.1
1446034234292408447,244,1446034234290925025,robocape,0.0,0.0,0.0,0.0,10.0,0.0,0.0,0.0,10.0,0.0,0.0,0.0,10.0,0.345545151438,1.29176628674,1.80296005798,1.0,0.0,0.0,0.0,1.0,0.0,0.0,0.0,1.0,-4.6786706543,0.864602050781,10.5368884277,0.1,0.0,0.0,0.0,0.1,0.0,0.0,0.0,0.1
1446034234338285447,245,1446034234336853981,robocape,0.0,0.0,0.0,0.0,10.0,0.0,0.0,0.0,10.0,0.0,0.0,0.0,10.0,0.480567418705,0.862198402913,1.37272638388,1.0,0.0,0.0,0.0,1.0,0.0,0.0,0.0,1.0,-3.64282470703,1.85494262695,10.4327050781,0.1,0.0,0.0,0.0,0.1,0.0,0.0,0.0,0.1
1446034234388239405,246,1446034234386755943,robocape,0.0,0.0,0.0,0.0,10.0,0.0,0.0,0.0,10.0,0.0,0.0,0.0,10.0,0.759267226782,1.02398543914,1.57912136836,1.0,0.0,0.0,0.0,1.0,0.0,0.0,0.0,1.0,-6.90843383789,6.43901000977,15.8825720215,0.1,0.0,0.0,0.0,0.1,0.0,0.0,0.0,0.1
1446034234438373488,247,1446034234436992883,robocape,0.0,0.0,0.0,0.0,10.0,0.0,0.0,0.0,10.0,0.0,0.0,0.0,10.0,0.164050723149,1.02411859719,1.50188969675,1.0,0.0,0.0,0.0,1.0,0.0,0.0,0.0,1.0,-1.73519165039,2.70277954102,10.7069348145,0.1,0.0,0.0,0.0,0.1,0.0,0.0,0.0,0.1
1446034234491799363,248,1446034234490204095,robocape,0.0,0.0,0.0,0.0,10.0,0.0,0.0,0.0,10.0,0.0,0.0,0.0,10.0,-0.682035555169,0.715724542959,1.25434887343,1.0,0.0,0.0,0.0,1.0,0.0,0.0,0.0,1.0,0.201181640625,2.90635620117,11.1464208984,0.1,0.0,0.0,0.0,0.1,0.0,0.0,0.0,0.1
1446034234538702530,249,1446034234536864995,robocape,0.0,0.0,0.0,0.0,10.0,0.0,0.0,0.0,10.0,0.0,0.0,0.0,10.0,-0.739293518606,0.467517929363,1.25448203148,1.0,0.0,0.0,0.0,1.0,0.0,0.0,0.0,1.0,1.77710449219,2.94108398438,12.1439465332,0.1,0.0,0.0,0.0,0.1,0.0,0.0,0.0,0.1
1446034234588228989,250,1446034234586774110,robocape,0.0,0.0,0.0,0.0,10.0,0.0,0.0,0.0,10.0,0.0,0.0,0.0,10.0,-0.896819497084,0.495481120809,1.24982149957,1.0,0.0,0.0,0.0,1.0,0.0,0.0,0.0,1.0,-1.85494262695,3.1075378418,11.1847412109,0.1,0.0,0.0,0.0,0.1,0.0,0.0,0.0,0.1
1446034234638525655,251,1446034234636980056,robocape,0.0,0.0,0.0,0.0,10.0,0.0,0.0,0.0,10.0,0.0,0.0,0.0,10.0,-1.68138675422,0.571514369931,1.66780463266,1.0,0.0,0.0,0.0,1.0,0.0,0.0,0.0,1.0,-1.80823974609,5.19000732422,12.2529199219,0.1,0.0,0.0,0.0,0.1,0.0,0.0,0.0,0.1
1446034234690876280,252,1446034234689354896,robocape,0.0,0.0,0.0,0.0,10.0,0.0,0.0,0.0,10.0,0.0,0.0,0.0,10.0,-3.00431202572,0.419581029742,1.94863496961,1.0,0.0,0.0,0.0,1.0,0.0,0.0,0.0,1.0,1.71004394531,4.32061523438,10.233918457,0.1,0.0,0.0,0.0,0.1,0.0,0.0,0.0,0.1
1446034234738178239,253,1446034234736747026,robocape,0.0,0.0,0.0,0.0,10.0,0.0,0.0,0.0,10.0,0.0,0.0,0.0,10.0,-4.16811342208,0.0836232582285,1.96474709421,1.0,0.0,0.0,0.0,1.0,0.0,0.0,0.0,1.0,-2.39501953125,4.36133056641,7.03297485352,0.1,0.0,0.0,0.0,0.1,0.0,0.0,0.0,0.1
1446034234788398239,254,1446034234786921024,robocape,0.0,0.0,0.0,0.0,10.0,0.0,0.0,0.0,10.0,0.0,0.0,0.0,10.0,-4.36332312999,-0.393482051059,1.89710280252,1.0,0.0,0.0,0.0,1.0,0.0,0.0,0.0,1.0,-1.04303100586,4.80440917969,0.665815429688,0.1,0.0,0.0,0.0,0.1,0.0,0.0,0.0,0.1
1446034234838296739,255,1446034234836839914,robocape,0.0,0.0,0.0,0.0,10.0,0.0,0.0,0.0,10.0,0.0,0.0,0.0,10.0,-4.36332312999,-0.772316716123,1.47019807978,1.0,0.0,0.0,0.0,1.0,0.0,0.0,0.0,1.0,-2.36508178711,-2.84767822266,-3.36380493164,0.1,0.0,0.0,0.0,0.1,0.0,0.0,0.0,0.1
1446034234889400614,256,1446034234887978076,robocape,0.0,0.0,0.0,0.0,10.0,0.0,0.0,0.0,10.0,0.0,0.0,0.0,10.0,0.587493336471,1.63424880293,-2.08379039493,1.0,0.0,0.0,0.0,1.0,0.0,0.0,0.0,1.0,8.19575683594,-19.62,17.9877941895,0.1,0.0,0.0,0.0,0.1,0.0,0.0,0.0,0.1
1446034234939232530,257,1446034234937184095,robocape,0.0,0.0,0.0,0.0,10.0,0.0,0.0,0.0,10.0,0.0,0.0,0.0,10.0,3.26370391589,1.67233200652,-2.14304572919,1.0,0.0,0.0,0.0,1.0,0.0,0.0,0.0,1.0,-8.16462158203,4.07871826172,4.82716186523,0.1,0.0,0.0,0.0,0.1,0.0,0.0,0.0,0.1
1446034234988313489,258,1446034234986848115,robocape,0.0,0.0,0.0,0.0,10.0,0.0,0.0,0.0,10.0,0.0,0.0,0.0,10.0,1.50362075146,0.560462251407,-0.578305430711,1.0,0.0,0.0,0.0,1.0,0.0,0.0,0.0,1.0,-3.24884399414,3.22010375977,10.4219274902,0.1,0.0,0.0,0.0,0.1,0.0,0.0,0.0,0.1
1446034235038274697,259,1446034235036874055,robocape,0.0,0.0,0.0,0.0,10.0,0.0,0.0,0.0,10.0,0.0,0.0,0.0,10.0,0.63622918442,0.411192072308,-0.451805278932,1.0,0.0,0.0,0.0,1.0,0.0,0.0,0.0,1.0,2.68481689453,1.63220581055,10.5632336426,0.1,0.0,0.0,0.0,0.1,0.0,0.0,0.0,0.1
1446034235088262197,260,1446034235086811065,robocape,0.0,0.0,0.0,0.0,10.0,0.0,0.0,0.0,10.0,0.0,0.0,0.0,10.0,-0.00812264132474,0.359659905215,-0.443815795662,1.0,0.0,0.0,0.0,1.0,0.0,0.0,0.0,1.0,1.60825561523,1.76752441406,10.2818188477,0.1,0.0,0.0,0.0,0.1,0.0,0.0,0.0,0.1
1446034235139724447,261,1446034235138322114,robocape,0.0,0.0,0.0,0.0,10.0,0.0,0.0,0.0,10.0,0.0,0.0,0.0,10.0,-0.342216200075,0.0537958540196,-0.539689594905,1.0,0.0,0.0,0.0,1.0,0.0,0.0,0.0,1.0,6.06179443359,1.57352783203,10.8290808105,0.1,0.0,0.0,0.0,0.1,0.0,0.0,0.0,0.1
1446034235188239489,262,1446034235186820030,robocape,0.0,0.0,0.0,0.0,10.0,0.0,0.0,0.0,10.0,0.0,0.0,0.0,10.0,-0.575109637403,0.390685731915,-0.585762281763,1.0,0.0,0.0,0.0,1.0,0.0,0.0,0.0,1.0,-1.65016845703,0.663420410156,8.74900634766,0.1,0.0,0.0,0.0,0.1,0.0,0.0,0.0,0.1
1446034235238353239,263,1446034235236881971,robocape,0.0,0.0,0.0,0.0,10.0,0.0,0.0,0.0,10.0,0.0,0.0,0.0,10.0,-0.499475862444,0.496413227191,-0.862464719022,1.0,0.0,0.0,0.0,1.0,0.0,0.0,0.0,1.0,4.92296264648,-0.0263452148438,12.4014111328,0.1,0.0,0.0,0.0,0.1,0.0,0.0,0.0,0.1
1446034235288239406,264,1446034235286833047,robocape,0.0,0.0,0.0,0.0,10.0,0.0,0.0,0.0,10.0,0.0,0.0,0.0,10.0,-0.217047628841,0.574577005185,-1.14795558788,1.0,0.0,0.0,0.0,1.0,0.0,0.0,0.0,1.0,-2.79977783203,-1.17116455078,12.2708825684,0.1,0.0,0.0,0.0,0.1,0.0,0.0,0.0,0.1
1446034235343471447,265,1446034235340639114,robocape,0.0,0.0,0.0,0.0,10.0,0.0,0.0,0.0,10.0,0.0,0.0,0.0,10.0,0.0253000303558,0.996421721853,-1.1560782292,1.0,0.0,0.0,0.0,1.0,0.0,0.0,0.0,1.0,0.156873779297,-0.179626464844,14.1030725098,0.1,0.0,0.0,0.0,0.1,0.0,0.0,0.0,0.1
1446034235388610197,266,1446034235386738061,robocape,0.0,0.0,0.0,0.0,10.0,0.0,0.0,0.0,10.0,0.0,0.0,0.0,10.0,0.310790899212,0.733035090044,-1.32825159368,1.0,0.0,0.0,0.0,1.0,0.0,0.0,0.0,1.0,-2.09923461914,1.12086914062,8.73703125,0.1,0.0,0.0,0.0,0.1,0.0,0.0,0.0,0.1
1446034235438513697,267,1446034235437000989,robocape,0.0,0.0,0.0,0.0,10.0,0.0,0.0,0.0,10.0,0.0,0.0,0.0,10.0,0.292947719909,0.65100972847,-1.03876598319,1.0,0.0,0.0,0.0,1.0,0.0,0.0,0.0,1.0,1.24062011719,-0.178428955078,14.1868981934,0.1,0.0,0.0,0.0,0.1,0.0,0.0,0.0,0.1
1446034235488210656,268,1446034235486745119,robocape,0.0,0.0,0.0,0.0,10.0,0.0,0.0,0.0,10.0,0.0,0.0,0.0,10.0,0.371111497903,0.190948650159,-1.09908658188,1.0,0.0,0.0,0.0,1.0,0.0,0.0,0.0,1.0,-1.68609375,0.372425537109,9.19807250977,0.1,0.0,0.0,0.0,0.1,0.0,0.0,0.0,0.1
1446034235542206614,269,1446034235540776968,robocape,0.0,0.0,0.0,0.0,10.0,0.0,0.0,0.0,10.0,0.0,0.0,0.0,10.0,0.508264294042,0.575109637403,-1.10561132655,1.0,0.0,0.0,0.0,1.0,0.0,0.0,0.0,1.0,-0.991538085938,-0.311352539063,11.6194372559,0.1,0.0,0.0,0.0,0.1,0.0,0.0,0.0,0.1
1446034235588137031,270,1446034235586694955,robocape,0.0,0.0,0.0,0.0,10.0,0.0,0.0,0.0,10.0,0.0,0.0,0.0,10.0,0.841425746411,0.526640105563,-1.20121880968,1.0,0.0,0.0,0.0,1.0,0.0,0.0,0.0,1.0,-0.261057128906,-0.698148193359,11.1703710938,0.1,0.0,0.0,0.0,0.1,0.0,0.0,0.0,0.1
1446034235638517072,271,1446034235636956930,robocape,0.0,0.0,0.0,0.0,10.0,0.0,0.0,0.0,10.0,0.0,0.0,0.0,10.0,1.5283881496,0.441418950681,-1.45954543542,1.0,0.0,0.0,0.0,1.0,0.0,0.0,0.0,1.0,0.0838256835938,-0.437091064453,9.85670288086,0.1,0.0,0.0,0.0,0.1,0.0,0.0,0.0,0.1
1446034235688236281,272,1446034235686806917,robocape,0.0,0.0,0.0,0.0,10.0,0.0,0.0,0.0,10.0,0.0,0.0,0.0,10.0,2.34810913312,0.370312549576,-1.53238289123,1.0,0.0,0.0,0.0,1.0,0.0,0.0,0.0,1.0,2.81175292969,0.00119750976563,9.55493041992,0.1,0.0,0.0,0.0,0.1,0.0,0.0,0.0,0.1
1446034235740763989,273,1446034235739360094,robocape,0.0,0.0,0.0,0.0,10.0,0.0,0.0,0.0,10.0,0.0,0.0,0.0,10.0,3.04585733872,0.149270179099,-1.38684113766,1.0,0.0,0.0,0.0,1.0,0.0,0.0,0.0,1.0,-3.52427124023,0.384400634766,7.01022216797,0.1,0.0,0.0,0.0,0.1,0.0,0.0,0.0,0.1
1446034235788706947,274,1446034235786830902,robocape,0.0,0.0,0.0,0.0,10.0,0.0,0.0,0.0,10.0,0.0,0.0,0.0,10.0,3.52775633797,-0.0372842552611,-0.955409041066,1.0,0.0,0.0,0.0,1.0,0.0,0.0,0.0,1.0,0.251477050781,1.55197265625,7.07249267578,0.1,0.0,0.0,0.0,0.1,0.0,0.0,0.0,0.1
1446034235838389947,275,1446034235836920022,robocape,0.0,0.0,0.0,0.0,10.0,0.0,0.0,0.0,10.0,0.0,0.0,0.0,10.0,3.82842722504,0.0723048235957,-0.352336212217,1.0,0.0,0.0,0.0,1.0,0.0,0.0,0.0,1.0,-0.667012939453,2.08007446289,6.40667724609,0.1,0.0,0.0,0.0,0.1,0.0,0.0,0.0,0.1
1446034235888524197,276,1446034235886996984,robocape,0.0,0.0,0.0,0.0,10.0,0.0,0.0,0.0,10.0,0.0,0.0,0.0,10.0,3.98661899379,0.268846112043,0.294279300454,1.0,0.0,0.0,0.0,1.0,0.0,0.0,0.0,1.0,-4.84392700195,3.12430297852,9.83754272461,0.1,0.0,0.0,0.0,0.1,0.0,0.0,0.0,0.1
1446034235940382281,277,1446034235938932895,robocape,0.0,0.0,0.0,0.0,10.0,0.0,0.0,0.0,10.0,0.0,0.0,0.0,10.0,-0.365785175722,1.61866931055,2.58792678928,1.0,0.0,0.0,0.0,1.0,0.0,0.0,0.0,1.0,3.31590454102,19.6194012451,12.8337121582,0.1,0.0,0.0,0.0,0.1,0.0,0.0,0.0,0.1
1446034235988573781,278,1446034235987164974,robocape,0.0,0.0,0.0,0.0,10.0,0.0,0.0,0.0,10.0,0.0,0.0,0.0,10.0,-1.95156444681,1.2743225816,2.1122862186,1.0,0.0,0.0,0.0,1.0,0.0,0.0,0.0,1.0,-5.10857666016,0.492176513672,6.73239990234,0.1,0.0,0.0,0.0,0.1,0.0,0.0,0.0,0.1
1446034236038416364,279,1446034236036919116,robocape,0.0,0.0,0.0,0.0,10.0,0.0,0.0,0.0,10.0,0.0,0.0,0.0,10.0,-1.37725375773,0.513723774276,1.30082103445,1.0,0.0,0.0,0.0,1.0,0.0,0.0,0.0,1.0,0.8047265625,1.25618774414,10.6518493652,0.1,0.0,0.0,0.0,0.1,0.0,0.0,0.0,0.1
1446034236088202114,280,1446034236086744070,robocape,0.0,0.0,0.0,0.0,10.0,0.0,0.0,0.0,10.0,0.0,0.0,0.0,10.0,-0.807337284458,0.366717282104,0.961267995464,1.0,0.0,0.0,0.0,1.0,0.0,0.0,0.0,1.0,0.0694555664063,1.85973266602,10.6267016602,0.1,0.0,0.0,0.0,0.1,0.0,0.0,0.0,0.1
1446034236138886239,281,1446034236137485027,robocape,0.0,0.0,0.0,0.0,10.0,0.0,0.0,0.0,10.0,0.0,0.0,0.0,10.0,-0.562592780279,0.312521953921,0.900681080665,1.0,0.0,0.0,0.0,1.0,0.0,0.0,0.0,1.0,-0.669407958984,1.87889282227,9.90819580078,0.1,0.0,0.0,0.0,0.1,0.0,0.0,0.0,0.1
1446034236189626573,282,1446034236188225984,robocape,0.0,0.0,0.0,0.0,10.0,0.0,0.0,0.0,10.0,0.0,0.0,0.0,10.0,-0.594683871415,0.392683102732,0.972186955933,1.0,0.0,0.0,0.0,1.0,0.0,0.0,0.0,1.0,-2.42375976563,2.14473999023,12.2876477051,0.1,0.0,0.0,0.0,0.1,0.0,0.0,0.0,0.1
1446034236238443823,283,1446034236236953020,robocape,0.0,0.0,0.0,0.0,10.0,0.0,0.0,0.0,10.0,0.0,0.0,0.0,10.0,-0.814261503292,0.265250844572,1.21440145708,1.0,0.0,0.0,0.0,1.0,0.0,0.0,0.0,1.0,0.349672851562,4.05716308594,11.4182556152,0.1,0.0,0.0,0.0,0.1,0.0,0.0,0.0,0.1
1446034236288238073,284,1446034236286833047,robocape,0.0,0.0,0.0,0.0,10.0,0.0,0.0,0.0,10.0,0.0,0.0,0.0,10.0,-2.06421616092,0.405865750128,1.81507744094,1.0,0.0,0.0,0.0,1.0,0.0,0.0,0.0,1.0,1.2681628418,5.24150024414,12.1894519043,0.1,0.0,0.0,0.0,0.1,0.0,0.0,0.0,0.1
1446034236338229656,285,1446034236336774110,robocape,0.0,0.0,0.0,0.0,10.0,0.0,0.0,0.0,10.0,0.0,0.0,0.0,10.0,-3.26663339309,0.275903488932,1.98152500907,1.0,0.0,0.0,0.0,1.0,0.0,0.0,0.0,1.0,-6.14083007813,4.77566894531,11.7403857422,0.1,0.0,0.0,0.0,0.1,0.0,0.0,0.0,0.1
1446034236391470281,286,1446034236389638900,robocape,0.0,0.0,0.0,0.0,10.0,0.0,0.0,0.0,10.0,0.0,0.0,0.0,10.0,-4.36332312999,-0.151001233807,1.96767657141,1.0,0.0,0.0,0.0,1.0,0.0,0.0,0.0,1.0,-8.1203137207,4.16134643555,6.46415771484,0.1,0.0,0.0,0.0,0.1,0.0,0.0,0.0,0.1
1446034236438257406,287,1446034236436846971,robocape,0.0,0.0,0.0,0.0,10.0,0.0,0.0,0.0,10.0,0.0,0.0,0.0,10.0,-4.36332312999,-0.465786874655,1.53238289123,1.0,0.0,0.0,0.0,1.0,0.0,0.0,0.0,1.0,-0.244291992188,3.22968383789,-0.581989746094,0.1,0.0,0.0,0.0,0.1,0.0,0.0,0.0,0.1
1446034236489371448,288,1446034236487951040,robocape,0.0,0.0,0.0,0.0,10.0,0.0,0.0,0.0,10.0,0.0,0.0,0.0,10.0,-1.60708455981,0.812663606638,-1.52026550827,1.0,0.0,0.0,0.0,1.0,0.0,0.0,0.0,1.0,16.881295166,-19.62,15.9879528809,0.1,0.0,0.0,0.0,0.1,0.0,0.0,0.0,0.1
1446034236538289739,289,1446034236536885976,robocape,0.0,0.0,0.0,0.0,10.0,0.0,0.0,0.0,10.0,0.0,0.0,0.0,10.0,2.616555771,2.22986478072,-2.52667408421,1.0,0.0,0.0,0.0,1.0,0.0,0.0,0.0,1.0,-4.84751953125,-2.60458374023,4.60083251953,0.1,0.0,0.0,0.0,0.1,0.0,0.0,0.0,0.1
1446034236592568531,290,1446034236590286970,robocape,0.0,0.0,0.0,0.0,10.0,0.0,0.0,0.0,10.0,0.0,0.0,0.0,10.0,1.51680339885,0.816658348273,-0.87391631171,1.0,0.0,0.0,0.0,1.0,0.0,0.0,0.0,1.0,-6.90723632813,2.28245361328,9.77287719727,0.1,0.0,0.0,0.0,0.1,0.0,0.0,0.0,0.1
1446034236638460323,291,1446034236636992931,robocape,0.0,0.0,0.0,0.0,10.0,0.0,0.0,0.0,10.0,0.0,0.0,0.0,10.0,0.276835595314,0.225969218493,-0.286156659129,1.0,0.0,0.0,0.0,1.0,0.0,0.0,0.0,1.0,1.55796020508,3.69072509766,8.56339233398,0.1,0.0,0.0,0.0,0.1,0.0,0.0,0.0,0.1
1446034236688316448,292,1446034236686909914,robocape,0.0,0.0,0.0,0.0,10.0,0.0,0.0,0.0,10.0,0.0,0.0,0.0,10.0,-0.974716958969,0.211721306661,-0.105860653331,1.0,0.0,0.0,0.0,1.0,0.0,0.0,0.0,1.0,1.61544067383,3.30033691406,8.04247558594,0.1,0.0,0.0,0.0,0.1,0.0,0.0,0.0,0.1
1446034236741679656,293,1446034236740097045,robocape,0.0,0.0,0.0,0.0,10.0,0.0,0.0,0.0,10.0,0.0,0.0,0.0,10.0,-1.60735087592,0.165249145639,-0.455933178622,1.0,0.0,0.0,0.0,1.0,0.0,0.0,0.0,1.0,-2.86085083008,0.808319091797,9.06035888672,0.1,0.0,0.0,0.0,0.1,0.0,0.0,0.0,0.1
1446034236788671698,294,1446034236786835908,robocape,0.0,0.0,0.0,0.0,10.0,0.0,0.0,0.0,10.0,0.0,0.0,0.0,10.0,-1.47499176974,0.374040975102,-0.89522160043,1.0,0.0,0.0,0.0,1.0,0.0,0.0,0.0,1.0,1.6058605957,-7.21858886719,9.1238269043,0.1,0.0,0.0,0.0,0.1,0.0,0.0,0.0,0.1
1446034236838447906,295,1446034236836929082,robocape,0.0,0.0,0.0,0.0,10.0,0.0,0.0,0.0,10.0,0.0,0.0,0.0,10.0,0.608399151029,1.46433912538,-1.77992371455,1.0,0.0,0.0,0.0,1.0,0.0,0.0,0.0,1.0,5.50255737305,-2.47285766602,14.0563696289,0.1,0.0,0.0,0.0,0.1,0.0,0.0,0.0,0.1
1446034236888739656,296,1446034236886909008,robocape,0.0,0.0,0.0,0.0,10.0,0.0,0.0,0.0,10.0,0.0,0.0,0.0,10.0,0.723314552066,1.22625252393,-1.58005347474,1.0,0.0,0.0,0.0,1.0,0.0,0.0,0.0,1.0,-0.44068359375,0.355660400391,10.9667944336,0.1,0.0,0.0,0.0,0.1,0.0,0.0,0.0,0.1
1446034236938301490,297,1446034236936872005,robocape,0.0,0.0,0.0,0.0,10.0,0.0,0.0,0.0,10.0,0.0,0.0,0.0,10.0,0.668586591664,0.806937810294,-1.44982489744,1.0,0.0,0.0,0.0,1.0,0.0,0.0,0.0,1.0,2.87881347656,0.263452148438,13.6731665039,0.1,0.0,0.0,0.0,0.1,0.0,0.0,0.0,0.1
1446034236989045031,298,1446034236987607955,robocape,0.0,0.0,0.0,0.0,10.0,0.0,0.0,0.0,10.0,0.0,0.0,0.0,10.0,0.574976479348,0.944623238651,-1.30881051772,1.0,0.0,0.0,0.0,1.0,0.0,0.0,0.0,1.0,-4.44276123047,0.504151611328,12.763059082,0.1,0.0,0.0,0.0,0.1,0.0,0.0,0.0,0.1
1446034237038372990,299,1446034237036881923,robocape,0.0,0.0,0.0,0.0,10.0,0.0,0.0,0.0,10.0,0.0,0.0,0.0,10.0,0.51944957062,0.561660673898,-1.21506724735,1.0,0.0,0.0,0.0,1.0,0.0,0.0,0.0,1.0,0.738863525391,0.911304931641,7.89877441406,0.1,0.0,0.0,0.0,0.1,0.0,0.0,0.0,0.1
1446034237088301406,300,1446034237086895942,robocape,0.0,0.0,0.0,0.0,10.0,0.0,0.0,0.0,10.0,0.0,0.0,0.0,10.0,0.578305430711,0.638626029401,-1.20667828991,1.0,0.0,0.0,0.0,1.0,0.0,0.0,0.0,1.0,2.12917236328,0.0119750976563,10.7428601074,0.1,0.0,0.0,0.0,0.1,0.0,0.0,0.0,0.1
1446034237138533490,301,1446034237137041091,robocape,0.0,0.0,0.0,0.0,10.0,0.0,0.0,0.0,10.0,0.0,0.0,0.0,10.0,0.632900233057,0.522645363928,-1.15354822617,1.0,0.0,0.0,0.0,1.0,0.0,0.0,0.0,1.0,3.17220336914,1.05021606445,9.91538085938,0.1,0.0,0.0,0.0,0.1,0.0,0.0,0.0,0.1
1446034237188924698,302,1446034237187439918,robocape,0.0,0.0,0.0,0.0,10.0,0.0,0.0,0.0,10.0,0.0,0.0,0.0,10.0,0.800546223678,0.414654181725,-1.12345450585,1.0,0.0,0.0,0.0,1.0,0.0,0.0,0.0,1.0,-0.701740722656,0.768801269531,11.629017334,0.1,0.0,0.0,0.0,0.1,0.0,0.0,0.0,0.1
1446034237238417990,303,1446034237236939907,robocape,0.0,0.0,0.0,0.0,10.0,0.0,0.0,0.0,10.0,0.0,0.0,0.0,10.0,1.00228067625,0.110388027184,-1.09176288888,1.0,0.0,0.0,0.0,1.0,0.0,0.0,0.0,1.0,-6.361171875,0.356857910156,10.5476660156,0.1,0.0,0.0,0.0,0.1,0.0,0.0,0.0,0.1
1446034237288296656,304,1446034237286895990,robocape,0.0,0.0,0.0,0.0,10.0,0.0,0.0,0.0,10.0,0.0,0.0,0.0,10.0,1.31347104963,0.245143978342,-1.01892543306,1.0,0.0,0.0,0.0,1.0,0.0,0.0,0.0,1.0,-0.615520019531,0.296982421875,11.7882861328,0.1,0.0,0.0,0.0,0.1,0.0,0.0,0.0,0.1
1446034237338353865,305,1446034237336901903,robocape,0.0,0.0,0.0,0.0,10.0,0.0,0.0,0.0,10.0,0.0,0.0,0.0,10.0,1.64889618892,0.26045715461,-0.975116433133,1.0,0.0,0.0,0.0,1.0,0.0,0.0,0.0,1.0,-3.91944946289,0.531694335938,9.1585546875,0.1,0.0,0.0,0.0,0.1,0.0,0.0,0.0,0.1
1446034237388685365,306,1446034237387223958,robocape,0.0,0.0,0.0,0.0,10.0,0.0,0.0,0.0,10.0,0.0,0.0,0.0,10.0,1.96288288144,0.109855394966,-0.824514673489,1.0,0.0,0.0,0.0,1.0,0.0,0.0,0.0,1.0,-4.89901245117,1.05979614258,9.32021850586,0.1,0.0,0.0,0.0,0.1,0.0,0.0,0.0,0.1
1446034237439236865,307,1446034237437808990,robocape,0.0,0.0,0.0,0.0,10.0,0.0,0.0,0.0,10.0,0.0,0.0,0.0,10.0,2.31455330339,0.0162452826495,-0.575375953512,1.0,0.0,0.0,0.0,1.0,0.0,0.0,0.0,1.0,-0.663420410156,1.41545654297,8.660390625,0.1,0.0,0.0,0.0,0.1,0.0,0.0,0.0,0.1
1446034237488311782,308,1446034237486834049,robocape,0.0,0.0,0.0,0.0,10.0,0.0,0.0,0.0,10.0,0.0,0.0,0.0,10.0,2.51775249456,0.111852765783,-0.279498756404,1.0,0.0,0.0,0.0,1.0,0.0,0.0,0.0,1.0,3.602109375,2.25371337891,8.68074829102,0.1,0.0,0.0,0.0,0.1,0.0,0.0,0.0,0.1
1446034237538299240,309,1446034237536887884,robocape,0.0,0.0,0.0,0.0,10.0,0.0,0.0,0.0,10.0,0.0,0.0,0.0,10.0,2.44584714513,0.176034948054,0.151933340189,1.0,0.0,0.0,0.0,1.0,0.0,0.0,0.0,1.0,1.69806884766,2.89557861328,9.29746582031,0.1,0.0,0.0,0.0,0.1,0.0,0.0,0.0,0.1
1446034237588392198,310,1446034237586935043,robocape,0.0,0.0,0.0,0.0,10.0,0.0,0.0,0.0,10.0,0.0,0.0,0.0,10.0,2.21481792056,0.262987157645,0.535961169378,1.0,0.0,0.0,0.0,1.0,0.0,0.0,0.0,1.0,3.84640136719,3.40092773438,7.28564941406,0.1,0.0,0.0,0.0,0.1,0.0,0.0,0.0,0.1
1446034237641077323,311,1446034237639206886,robocape,0.0,0.0,0.0,0.0,10.0,0.0,0.0,0.0,10.0,0.0,0.0,0.0,10.0,1.85582380562,0.589890181453,0.948351664177,1.0,0.0,0.0,0.0,1.0,0.0,0.0,0.0,1.0,-1.05380859375,3.2608190918,10.7763903809,0.1,0.0,0.0,0.0,0.1,0.0,0.0,0.0,0.1
1446034237688374823,312,1446034237686945915,robocape,0.0,0.0,0.0,0.0,10.0,0.0,0.0,0.0,10.0,0.0,0.0,0.0,10.0,0.34621094171,1.02638228412,1.77499686654,1.0,0.0,0.0,0.0,1.0,0.0,0.0,0.0,1.0,-0.113763427734,12.170291748,12.952265625,0.1,0.0,0.0,0.0,0.1,0.0,0.0,0.0,0.1
1446034237738604157,313,1446034237737128973,robocape,0.0,0.0,0.0,0.0,10.0,0.0,0.0,0.0,10.0,0.0,0.0,0.0,10.0,-0.956740621611,1.31613421072,1.73278576326,1.0,0.0,0.0,0.0,1.0,0.0,0.0,0.0,1.0,-9.41482177734,4.67268310547,12.6373205566,0.1,0.0,0.0,0.0,0.1,0.0,0.0,0.0,0.1
1446034237788713407,314,1446034237786876916,robocape,0.0,0.0,0.0,0.0,10.0,0.0,0.0,0.0,10.0,0.0,0.0,0.0,10.0,-1.03676861237,0.541553807668,1.48018493387,1.0,0.0,0.0,0.0,1.0,0.0,0.0,0.0,1.0,7.0545300293,2.35550170898,10.3752246094,0.1,0.0,0.0,0.0,0.1,0.0,0.0,0.0,0.1
1446034237842582657,315,1446034237840595006,robocape,0.0,0.0,0.0,0.0,10.0,0.0,0.0,0.0,10.0,0.0,0.0,0.0,10.0,-1.41826643852,0.371644130121,1.51240918306,1.0,0.0,0.0,0.0,1.0,0.0,0.0,0.0,1.0,-5.93845092773,3.97573242188,10.0638720703,0.1,0.0,0.0,0.0,0.1,0.0,0.0,0.0,0.1
1446034237888453240,316,1446034237886975049,robocape,0.0,0.0,0.0,0.0,10.0,0.0,0.0,0.0,10.0,0.0,0.0,0.0,10.0,-2.03252454395,0.601075458031,1.64356986674,1.0,0.0,0.0,0.0,1.0,0.0,0.0,0.0,1.0,3.40931030273,4.06075561523,11.6385974121,0.1,0.0,0.0,0.0,0.1,0.0,0.0,0.0,0.1
1446034237939150490,317,1446034237937288999,robocape,0.0,0.0,0.0,0.0,10.0,0.0,0.0,0.0,10.0,0.0,0.0,0.0,10.0,-2.82707865517,0.0812264132474,1.72892417968,1.0,0.0,0.0,0.0,1.0,0.0,0.0,0.0,1.0,1.27654541016,3.88711669922,8.48315917969,0.1,0.0,0.0,0.0,0.1,0.0,0.0,0.0,0.1
1446034237988524823,318,1446034237987068891,robocape,0.0,0.0,0.0,0.0,10.0,0.0,0.0,0.0,10.0,0.0,0.0,0.0,10.0,-3.61843697309,0.188818121287,1.60894877257,1.0,0.0,0.0,0.0,1.0,0.0,0.0,0.0,1.0,-1.42743164063,3.00455200195,8.94899047852,0.1,0.0,0.0,0.0,0.1,0.0,0.0,0.0,0.1
1446034238040710365,319,1446034238039199113,robocape,0.0,0.0,0.0,0.0,10.0,0.0,0.0,0.0,10.0,0.0,0.0,0.0,10.0,-4.32923466803,-0.334892507077,1.18217720789,1.0,0.0,0.0,0.0,1.0,0.0,0.0,0.0,1.0,-5.72888671875,2.32316894531,5.58398803711,0.1,0.0,0.0,0.0,0.1,0.0,0.0,0.0,0.1
1446034238088569782,320,1446034238087167024,robocape,0.0,0.0,0.0,0.0,10.0,0.0,0.0,0.0,10.0,0.0,0.0,0.0,10.0,-4.36332312999,-0.0901480028992,0.838895743375,1.0,0.0,0.0,0.0,1.0,0.0,0.0,0.0,1.0,5.26425292969,2.26928100586,4.03201538086,0.1,0.0,0.0,0.0,0.1,0.0,0.0,0.0,0.1
1446034238138594574,321,1446034238137126922,robocape,0.0,0.0,0.0,0.0,10.0,0.0,0.0,0.0,10.0,0.0,0.0,0.0,10.0,-3.57116586374,0.215449732187,-0.827710466797,1.0,0.0,0.0,0.0,1.0,0.0,0.0,0.0,1.0,13.5965258789,-19.62,10.1225500488,0.1,0.0,0.0,0.0,0.1,0.0,0.0,0.0,0.1
1446034238191419574,322,1446034238190021038,robocape,0.0,0.0,0.0,0.0,10.0,0.0,0.0,0.0,10.0,0.0,0.0,0.0,10.0,2.32227647055,1.82346639838,-2.39884235189,1.0,0.0,0.0,0.0,1.0,0.0,0.0,0.0,1.0,-6.43182495117,-5.3265234375,12.7043811035,0.1,0.0,0.0,0.0,0.1,0.0,0.0,0.0,0.1
1446034238238637407,323,1446034238237169981,robocape,0.0,0.0,0.0,0.0,10.0,0.0,0.0,0.0,10.0,0.0,0.0,0.0,10.0,1.7753963407,0.752076691838,-1.14915401037,1.0,0.0,0.0,0.0,1.0,0.0,0.0,0.0,1.0,-3.65599731445,2.36867431641,8.25922485352,0.1,0.0,0.0,0.0,0.1,0.0,0.0,0.0,0.1
1446034238288664490,324,1446034238287187099,robocape,0.0,0.0,0.0,0.0,10.0,0.0,0.0,0.0,10.0,0.0,0.0,0.0,10.0,0.913197937788,0.302401941778,-0.70600400498,1.0,0.0,0.0,0.0,1.0,0.0,0.0,0.0,1.0,0.0874182128906,1.49209716797,10.8566235352,0.1,0.0,0.0,0.0,0.1,0.0,0.0,0.0,0.1
1446034238338485282,325,1446034238337024927,robocape,0.0,0.0,0.0,0.0,10.0,0.0,0.0,0.0,10.0,0.0,0.0,0.0,10.0,0.24154871087,0.417716816979,-0.488556901975,1.0,0.0,0.0,0.0,1.0,0.0,0.0,0.0,1.0,-3.39613769531,1.85614013672,11.4829211426,0.1,0.0,0.0,0.0,0.1,0.0,0.0,0.0,0.1
1446034238388955032,326,1446034238387459993,robocape,0.0,0.0,0.0,0.0,10.0,0.0,0.0,0.0,10.0,0.0,0.0,0.0,10.0,-0.385758883898,0.296143513217,-0.355398847471,1.0,0.0,0.0,0.0,1.0,0.0,0.0,0.0,1.0,-1.61663818359,1.3412109375,10.8542285156,0.1,0.0,0.0,0.0,0.1,0.0,0.0,0.0,0.1
1446034238439029074,327,1446034238437535047,robocape,0.0,0.0,0.0,0.0,10.0,0.0,0.0,0.0,10.0,0.0,0.0,0.0,10.0,-0.852877339098,0.134090160885,-0.401871008493,1.0,0.0,0.0,0.0,1.0,0.0,0.0,0.0,1.0,-2.56506591797,1.19990478516,11.2829370117,0.1,0.0,0.0,0.0,0.1,0.0,0.0,0.0,0.1
1446034238489698574,328,1446034238487385034,robocape,0.0,0.0,0.0,0.0,10.0,0.0,0.0,0.0,10.0,0.0,0.0,0.0,10.0,-1.2371714844,0.49401638221,-0.50054112688,1.0,0.0,0.0,0.0,1.0,0.0,0.0,0.0,1.0,2.41537719727,0.748443603516,10.3117565918,0.1,0.0,0.0,0.0,0.1,0.0,0.0,0.0,0.1
1446034238538417115,329,1446034238536935091,robocape,0.0,0.0,0.0,0.0,10.0,0.0,0.0,0.0,10.0,0.0,0.0,0.0,10.0,-1.1499529587,0.475241096525,-0.824647831543,1.0,0.0,0.0,0.0,1.0,0.0,0.0,0.0,1.0,-1.20229980469,-0.753233642578,12.7175537109,0.1,0.0,0.0,0.0,0.1,0.0,0.0,0.0,0.1
1446034238588391657,330,1446034238586925029,robocape,0.0,0.0,0.0,0.0,10.0,0.0,0.0,0.0,10.0,0.0,0.0,0.0,10.0,-1.00001698932,0.734632986698,-0.983105916403,1.0,0.0,0.0,0.0,1.0,0.0,0.0,0.0,1.0,1.60825561523,0.536484375,12.354708252,0.1,0.0,0.0,0.0,0.1,0.0,0.0,0.0,0.1
1446034238638487615,331,1446034238637012004,robocape,0.0,0.0,0.0,0.0,10.0,0.0,0.0,0.0,10.0,0.0,0.0,0.0,10.0,-0.361124643815,0.978978016713,-1.37991691882,1.0,0.0,0.0,0.0,1.0,0.0,0.0,0.0,1.0,2.56027587891,-5.87139038086,11.3440100098,0.1,0.0,0.0,0.0,0.1,0.0,0.0,0.0,0.1
1446034238689865824,332,1446034238688465118,robocape,0.0,0.0,0.0,0.0,10.0,0.0,0.0,0.0,10.0,0.0,0.0,0.0,10.0,0.238352917562,0.907738457554,-1.32785211951,1.0,0.0,0.0,0.0,1.0,0.0,0.0,0.0,1.0,-1.77710449219,-0.113763427734,10.2255358887,0.1,0.0,0.0,0.0,0.1,0.0,0.0,0.0,0.1
1446034238738826615,333,1446034238737318038,robocape,0.0,0.0,0.0,0.0,10.0,0.0,0.0,0.0,10.0,0.0,0.0,0.0,10.0,0.332495662096,0.799214643133,-1.36194058147,1.0,0.0,0.0,0.0,1.0,0.0,0.0,0.0,1.0,6.94795166016,-0.267044677734,9.87586303711,0.1,0.0,0.0,0.0,0.1,0.0,0.0,0.0,0.1
1446034238788540616,334,1446034238787053108,robocape,0.0,0.0,0.0,0.0,10.0,0.0,0.0,0.0,10.0,0.0,0.0,0.0,10.0,0.501340075207,1.12345450585,-1.36287268785,1.0,0.0,0.0,0.0,1.0,0.0,0.0,0.0,1.0,-3.92543701172,-0.0682580566406,10.673404541,0.1,0.0,0.0,0.0,0.1,0.0,0.0,0.0,0.1
1446034238838399157,335,1446034238836926937,robocape,0.0,0.0,0.0,0.0,10.0,0.0,0.0,0.0,10.0,0.0,0.0,0.0,10.0,0.61079599601,0.815859399946,-1.26420256946,1.0,0.0,0.0,0.0,1.0,0.0,0.0,0.0,1.0,2.44052490234,0.573607177734,9.53457275391,0.1,0.0,0.0,0.0,0.1,0.0,0.0,0.0,0.1
1446034238896127032,336,1446034238891086101,robocape,0.0,0.0,0.0,0.0,10.0,0.0,0.0,0.0,10.0,0.0,0.0,0.0,10.0,0.707735059689,0.549676448992,-1.24089990992,1.0,0.0,0.0,0.0,1.0,0.0,0.0,0.0,1.0,-0.359252929688,0.257464599609,8.44004882813,0.1,0.0,0.0,0.0,0.1,0.0,0.0,0.0,0.1
1446034238938598574,337,1446034238937164068,robocape,0.0,0.0,0.0,0.0,10.0,0.0,0.0,0.0,10.0,0.0,0.0,0.0,10.0,0.786830944064,0.666056588629,-1.16806245411,1.0,0.0,0.0,0.0,1.0,0.0,0.0,0.0,1.0,-2.84408569336,-0.259859619141,10.6650219727,0.1,0.0,0.0,0.0,0.1,0.0,0.0,0.0,0.1
1446034238989299157,338,1446034238987900018,robocape,0.0,0.0,0.0,0.0,10.0,0.0,0.0,0.0,10.0,0.0,0.0,0.0,10.0,0.997620144344,0.282827707766,-1.2017514419,1.0,0.0,0.0,0.0,1.0,0.0,0.0,0.0,1.0,-0.368833007813,0.247884521484,7.9742175293,0.1,0.0,0.0,0.0,0.1,0.0,0.0,0.0,0.1
1446034239038400241,339,1446034239036912918,robocape,0.0,0.0,0.0,0.0,10.0,0.0,0.0,0.0,10.0,0.0,0.0,0.0,10.0,1.29549471227,0.238486075617,-1.1827098401,1.0,0.0,0.0,0.0,1.0,0.0,0.0,0.0,1.0,-1.31606323242,-0.126936035156,10.0495019531,0.1,0.0,0.0,0.0,0.1,0.0,0.0,0.0,0.1
1446034239092698866,340,1446034239091315984,robocape,0.0,0.0,0.0,0.0,10.0,0.0,0.0,0.0,10.0,0.0,0.0,0.0,10.0,1.83252114608,0.297075619598,-1.26593362417,1.0,0.0,0.0,0.0,1.0,0.0,0.0,0.0,1.0,-0.544866943359,-0.243094482422,8.6220703125,0.1,0.0,0.0,0.0,0.1,0.0,0.0,0.0,0.1
1446034239138857532,341,1446034239137248039,robocape,0.0,0.0,0.0,0.0,10.0,0.0,0.0,0.0,10.0,0.0,0.0,0.0,10.0,2.4953819414,0.154463343225,-1.26593362417,1.0,0.0,0.0,0.0,1.0,0.0,0.0,0.0,1.0,-0.47900390625,0.0407153320313,7.75986328125,0.1,0.0,0.0,0.0,0.1,0.0,0.0,0.0,0.1
1446034239188962366,342,1446034239187446117,robocape,0.0,0.0,0.0,0.0,10.0,0.0,0.0,0.0,10.0,0.0,0.0,0.0,10.0,3.02588363055,-0.0941427445343,-1.08177603479,1.0,0.0,0.0,0.0,1.0,0.0,0.0,0.0,1.0,-0.565224609375,0.877774658203,5.63069091797,0.1,0.0,0.0,0.0,0.1,0.0,0.0,0.0,0.1
1446034239238562782,343,1446034239237091064,robocape,0.0,0.0,0.0,0.0,10.0,0.0,0.0,0.0,10.0,0.0,0.0,0.0,10.0,3.27821814383,0.141547011938,-0.532365901907,1.0,0.0,0.0,0.0,1.0,0.0,0.0,0.0,1.0,-0.595162353516,1.48251708984,6.35159179688,0.1,0.0,0.0,0.0,0.1,0.0,0.0,0.0,0.1
1446034239291478074,344,1446034239289956092,robocape,0.0,0.0,0.0,0.0,10.0,0.0,0.0,0.0,10.0,0.0,0.0,0.0,10.0,3.11869479454,0.119975407108,0.118111194345,1.0,0.0,0.0,0.0,1.0,0.0,0.0,0.0,1.0,3.38775512695,3.11711791992,9.76449462891,0.1,0.0,0.0,0.0,0.1,0.0,0.0,0.0,0.1
1446034239338444449,345,1446034239336971998,robocape,0.0,0.0,0.0,0.0,10.0,0.0,0.0,0.0,10.0,0.0,0.0,0.0,10.0,2.70830167056,0.691090302876,0.646748670726,1.0,0.0,0.0,0.0,1.0,0.0,0.0,0.0,1.0,-2.22138061523,4.16014892578,10.6746020508,0.1,0.0,0.0,0.0,0.1,0.0,0.0,0.0,0.1
1446034239388589324,346,1446034239387124061,robocape,0.0,0.0,0.0,0.0,10.0,0.0,0.0,0.0,10.0,0.0,0.0,0.0,10.0,0.999084882943,0.947153241687,1.64996145336,1.0,0.0,0.0,0.0,1.0,0.0,0.0,0.0,1.0,1.72201904297,19.6194012451,10.9260791016,0.1,0.0,0.0,0.0,0.1,0.0,0.0,0.0,0.1
1446034239439678699,347,1446034239438277006,robocape,0.0,0.0,0.0,0.0,10.0,0.0,0.0,0.0,10.0,0.0,0.0,0.0,10.0,-1.51387392166,1.16420087053,1.9454391763,1.0,0.0,0.0,0.0,1.0,0.0,0.0,0.0,1.0,3.04406982422,3.51229614258,10.6255041504,0.1,0.0,0.0,0.0,0.1,0.0,0.0,0.0,0.1
1446034239488407366,348,1446034239487024068,robocape,0.0,0.0,0.0,0.0,10.0,0.0,0.0,0.0,10.0,0.0,0.0,0.0,10.0,-1.69030834387,0.466319506873,1.59203769965,1.0,0.0,0.0,0.0,1.0,0.0,0.0,0.0,1.0,-8.83163452148,4.73615112305,9.78844482422,0.1,0.0,0.0,0.0,0.1,0.0,0.0,0.0,0.1
1446034239538601366,349,1446034239537106037,robocape,0.0,0.0,0.0,0.0,10.0,0.0,0.0,0.0,10.0,0.0,0.0,0.0,10.0,-1.52652393683,0.714792436577,1.19029984921,1.0,0.0,0.0,0.0,1.0,0.0,0.0,0.0,1.0,2.4525,2.43333984375,9.81838256836,0.1,0.0,0.0,0.0,0.1,0.0,0.0,0.0,0.1
1446034239588905908,350,1446034239587472915,robocape,0.0,0.0,0.0,0.0,10.0,0.0,0.0,0.0,10.0,0.0,0.0,0.0,10.0,-1.77712739541,0.119309616836,1.10401342989,1.0,0.0,0.0,0.0,1.0,0.0,0.0,0.0,1.0,-6.18274291992,2.27646606445,8.55021972656,0.1,0.0,0.0,0.0,0.1,0.0,0.0,0.0,0.1
1446034239638887116,351,1446034239637368917,robocape,0.0,0.0,0.0,0.0,10.0,0.0,0.0,0.0,10.0,0.0,0.0,0.0,10.0,-1.94091180245,0.0576574376002,1.04622283424,1.0,0.0,0.0,0.0,1.0,0.0,0.0,0.0,1.0,0.476608886719,2.80935791016,10.4195324707,0.1,0.0,0.0,0.0,0.1,0.0,0.0,0.0,0.1
1446034239688649033,352,1446034239686901092,robocape,0.0,0.0,0.0,0.0,10.0,0.0,0.0,0.0,10.0,0.0,0.0,0.0,10.0,-2.31708330642,0.0103863282513,1.03290702879,1.0,0.0,0.0,0.0,1.0,0.0,0.0,0.0,1.0,-3.22010375977,2.90276367188,11.9858752441,0.1,0.0,0.0,0.0,0.1,0.0,0.0,0.0,0.1
1446034239740031908,353,1446034239738317966,robocape,0.0,0.0,0.0,0.0,10.0,0.0,0.0,0.0,10.0,0.0,0.0,0.0,10.0,-2.68033847911,-0.0833569421195,0.785898837682,1.0,0.0,0.0,0.0,1.0,0.0,0.0,0.0,1.0,1.9579284668,1.52802246094,5.60913574219,0.1,0.0,0.0,0.0,0.1,0.0,0.0,0.0,0.1
1446034239788395908,354,1446034239786905050,robocape,0.0,0.0,0.0,0.0,10.0,0.0,0.0,0.0,10.0,0.0,0.0,0.0,10.0,-2.89006241495,-0.305730893141,0.420379978069,1.0,0.0,0.0,0.0,1.0,0.0,0.0,0.0,1.0,1.53880004883,1.27774291992,5.0235534668,0.1,0.0,0.0,0.0,0.1,0.0,0.0,0.0,0.1
1446034239838565574,355,1446034239837110042,robocape,0.0,0.0,0.0,0.0,10.0,0.0,0.0,0.0,10.0,0.0,0.0,0.0,10.0,-2.97208777653,-0.0636495500529,0.0443416321498,1.0,0.0,0.0,0.0,1.0,0.0,0.0,0.0,1.0,0.814306640625,1.16757202148,8.45082641602,0.1,0.0,0.0,0.0,0.1,0.0,0.0,0.0,0.1
1446034239888593699,356,1446034239887129068,robocape,0.0,0.0,0.0,0.0,10.0,0.0,0.0,0.0,10.0,0.0,0.0,0.0,10.0,-2.97341935707,0.276302963096,-0.306263525359,1.0,0.0,0.0,0.0,1.0,0.0,0.0,0.0,1.0,-2.92671386719,0.117355957031,9.46751220703,0.1,0.0,0.0,0.0,0.1,0.0,0.0,0.0,0.1
1446034239942994949,357,1446034239941082000,robocape,0.0,0.0,0.0,0.0,10.0,0.0,0.0,0.0,10.0,0.0,0.0,0.0,10.0,-2.15369837355,0.468583193799,-1.05740811082,1.0,0.0,0.0,0.0,1.0,0.0,0.0,0.0,1.0,5.18401977539,-13.2193103027,13.1031518555,0.1,0.0,0.0,0.0,0.1,0.0,0.0,0.0,0.1
1446034239988352658,358,1446034239986882925,robocape,0.0,0.0,0.0,0.0,10.0,0.0,0.0,0.0,10.0,0.0,0.0,0.0,10.0,0.812397290529,1.56047924073,-1.90788860493,1.0,0.0,0.0,0.0,1.0,0.0,0.0,0.0,1.0,-3.77574829102,-4.71818847656,10.995534668,0.1,0.0,0.0,0.0,0.1,0.0,0.0,0.0,0.1
1446034240039574658,359,1446034240038081884,robocape,0.0,0.0,0.0,0.0,10.0,0.0,0.0,0.0,10.0,0.0,0.0,0.0,10.0,0.840094165865,0.975782223405,-1.33917055415,1.0,0.0,0.0,0.0,1.0,0.0,0.0,0.0,1.0,0.852626953125,1.36755615234,9.99441650391,0.1,0.0,0.0,0.0,0.1,0.0,0.0,0.0,0.1
1446034240088437699,360,1446034240086985111,robocape,0.0,0.0,0.0,0.0,10.0,0.0,0.0,0.0,10.0,0.0,0.0,0.0,10.0,0.464588452164,0.503736920188,-1.05767442692,1.0,0.0,0.0,0.0,1.0,0.0,0.0,0.0,1.0,-3.26321411133,1.20828735352,9.46391967773,0.1,0.0,0.0,0.0,0.1,0.0,0.0,0.0,0.1
1446034240142976116,361,1446034240141015052,robocape,0.0,0.0,0.0,0.0,10.0,0.0,0.0,0.0,10.0,0.0,0.0,0.0,10.0,0.0938764284253,0.462191607183,-0.854608393806,1.0,0.0,0.0,0.0,1.0,0.0,0.0,0.0,1.0,0.960402832031,1.86811523438,8.94779296875,0.1,0.0,0.0,0.0,0.1,0.0,0.0,0.0,0.1
1446034240188307283,362,1446034240186902999,robocape,0.0,0.0,0.0,0.0,10.0,0.0,0.0,0.0,10.0,0.0,0.0,0.0,10.0,-0.22290658324,0.195609182066,-0.819987299635,1.0,0.0,0.0,0.0,1.0,0.0,0.0,0.0,1.0,0.586779785156,1.39869140625,8.57776245117,0.1,0.0,0.0,0.0,0.1,0.0,0.0,0.0,0.1
1446034240238383533,363,1446034240236917018,robocape,0.0,0.0,0.0,0.0,10.0,0.0,0.0,0.0,10.0,0.0,0.0,0.0,10.0,-0.666322904738,0.457131601112,-0.678839761861,1.0,0.0,0.0,0.0,1.0,0.0,0.0,0.0,1.0,2.33993408203,0.550854492188,12.1559216309,0.1,0.0,0.0,0.0,0.1,0.0,0.0,0.0,0.1
1446034240288393908,364,1446034240286912918,robocape,0.0,0.0,0.0,0.0,10.0,0.0,0.0,0.0,10.0,0.0,0.0,0.0,10.0,-0.747948792149,0.880307898326,-0.861532612641,1.0,0.0,0.0,0.0,1.0,0.0,0.0,0.0,1.0,-0.523311767578,-0.0778381347656,13.662388916,0.1,0.0,0.0,0.0,0.1,0.0,0.0,0.0,0.1
1446034240340665450,365,1446034240339153051,robocape,0.0,0.0,0.0,0.0,10.0,0.0,0.0,0.0,10.0,0.0,0.0,0.0,10.0,-0.568851208841,0.659531843958,-1.18484036898,1.0,0.0,0.0,0.0,1.0,0.0,0.0,0.0,1.0,-0.00239501953125,0.282612304688,8.64961303711,0.1,0.0,0.0,0.0,0.1,0.0,0.0,0.0,0.1
1446034240388695575,366,1446034240386846065,robocape,0.0,0.0,0.0,0.0,10.0,0.0,0.0,0.0,10.0,0.0,0.0,0.0,10.0,-0.340751461476,0.988032764419,-1.29349734145,1.0,0.0,0.0,0.0,1.0,0.0,0.0,0.0,1.0,-3.59612182617,-1.82021484375,10.2506835938,0.1,0.0,0.0,0.0,0.1,0.0,0.0,0.0,0.1
1446034240438480158,367,1446034240436939954,robocape,0.0,0.0,0.0,0.0,10.0,0.0,0.0,0.0,10.0,0.0,0.0,0.0,10.0,-0.0806937810294,0.873783153655,-1.35448373041,1.0,0.0,0.0,0.0,1.0,0.0,0.0,0.0,1.0,1.3376184082,0.0167651367188,9.20645507812,0.1,0.0,0.0,0.0,0.1,0.0,0.0,0.0,0.1
1446034240488340075,368,1446034240486865043,robocape,0.0,0.0,0.0,0.0,10.0,0.0,0.0,0.0,10.0,0.0,0.0,0.0,10.0,0.194277601521,1.10667659098,-1.40015694311,1.0,0.0,0.0,0.0,1.0,0.0,0.0,0.0,1.0,3.45601318359,1.15080688477,7.38743774414,0.1,0.0,0.0,0.0,0.1,0.0,0.0,0.0,0.1
1446034240540829200,369,1446034240539438962,robocape,0.0,0.0,0.0,0.0,10.0,0.0,0.0,0.0,10.0,0.0,0.0,0.0,10.0,0.537425907978,0.414654181725,-1.42745434428,1.0,0.0,0.0,0.0,1.0,0.0,0.0,0.0,1.0,1.98068115234,-0.458646240234,13.4133068848,0.1,0.0,0.0,0.0,0.1,0.0,0.0,0.0,0.1
1446034240588225283,370,1446034240586791038,robocape,0.0,0.0,0.0,0.0,10.0,0.0,0.0,0.0,10.0,0.0,0.0,0.0,10.0,0.693753463966,0.948351664177,-1.34969004045,1.0,0.0,0.0,0.0,1.0,0.0,0.0,0.0,1.0,-3.25123901367,-1.53520751953,13.9509887695,0.1,0.0,0.0,0.0,0.1,0.0,0.0,0.0,0.1
1446034240638660866,371,1446034240637082099,robocape,0.0,0.0,0.0,0.0,10.0,0.0,0.0,0.0,10.0,0.0,0.0,0.0,10.0,0.987633290256,0.729572980627,-1.44156909806,1.0,0.0,0.0,0.0,1.0,0.0,0.0,0.0,1.0,3.51349365234,-0.385598144531,10.1476977539,0.1,0.0,0.0,0.0,0.1,0.0,0.0,0.0,0.1
1446034240688308200,372,1446034240686876058,robocape,0.0,0.0,0.0,0.0,10.0,0.0,0.0,0.0,10.0,0.0,0.0,0.0,10.0,1.80442479658,0.456865285003,-1.6483635567,1.0,0.0,0.0,0.0,1.0,0.0,0.0,0.0,1.0,-0.451461181641,-0.974772949219,7.97302001953,0.1,0.0,0.0,0.0,0.1,0.0,0.0,0.0,0.1
1446034240739105491,373,1446034240737504005,robocape,0.0,0.0,0.0,0.0,10.0,0.0,0.0,0.0,10.0,0.0,0.0,0.0,10.0,2.64225527552,0.605203357721,-1.78205424343,1.0,0.0,0.0,0.0,1.0,0.0,0.0,0.0,1.0,2.10282714844,-0.944835205078,6.96232177734,0.1,0.0,0.0,0.0,0.1,0.0,0.0,0.0,0.1
1446034240789124783,374,1446034240787072896,robocape,0.0,0.0,0.0,0.0,10.0,0.0,0.0,0.0,10.0,0.0,0.0,0.0,10.0,3.43174938068,0.0623179695079,-1.59776349599,1.0,0.0,0.0,0.0,1.0,0.0,0.0,0.0,1.0,2.4560925293,0.835861816406,7.96104492188,0.1,0.0,0.0,0.0,0.1,0.0,0.0,0.0,0.1
1446034240838558741,375,1446034240837084054,robocape,0.0,0.0,0.0,0.0,10.0,0.0,0.0,0.0,10.0,0.0,0.0,0.0,10.0,3.82403300924,0.167779148675,-1.0568754786,1.0,0.0,0.0,0.0,1.0,0.0,0.0,0.0,1.0,1.09212890625,1.67052612305,5.27622802734,0.1,0.0,0.0,0.0,0.1,0.0,0.0,0.0,0.1
1446034240888583450,376,1446034240887093067,robocape,0.0,0.0,0.0,0.0,10.0,0.0,0.0,0.0,10.0,0.0,0.0,0.0,10.0,3.74413817654,-0.0066579027252,-0.270843482861,1.0,0.0,0.0,0.0,1.0,0.0,0.0,0.0,1.0,-0.198786621094,3.5637890625,5.37202880859,0.1,0.0,0.0,0.0,0.1,0.0,0.0,0.0,0.1
1446034240938620700,377,1446034240937201023,robocape,0.0,0.0,0.0,0.0,10.0,0.0,0.0,0.0,10.0,0.0,0.0,0.0,10.0,3.24879021379,0.614790737645,0.439687895972,1.0,0.0,0.0,0.0,1.0,0.0,0.0,0.0,1.0,-2.68960693359,4.23678955078,10.2949914551,0.1,0.0,0.0,0.0,0.1,0.0,0.0,0.0,0.1
1446034240989769367,378,1446034240988281965,robocape,0.0,0.0,0.0,0.0,10.0,0.0,0.0,0.0,10.0,0.0,0.0,0.0,10.0,0.944490080597,0.987100658038,1.83664904577,1.0,0.0,0.0,0.0,1.0,0.0,0.0,0.0,1.0,6.95992675781,16.9543432617,14.1605529785,0.1,0.0,0.0,0.0,0.1,0.0,0.0,0.0,0.1
1446034241038643242,379,1446034241037142992,robocape,0.0,0.0,0.0,0.0,10.0,0.0,0.0,0.0,10.0,0.0,0.0,0.0,10.0,-1.77260002156,1.18750353007,2.16794628538,1.0,0.0,0.0,0.0,1.0,0.0,0.0,0.0,1.0,-2.53752319336,3.67276245117,7.77303588867,0.1,0.0,0.0,0.0,0.1,0.0,0.0,0.0,0.1
1446034241088409492,380,1446034241086937904,robocape,0.0,0.0,0.0,0.0,10.0,0.0,0.0,0.0,10.0,0.0,0.0,0.0,10.0,-2.10296515478,0.508663768205,1.6615462041,1.0,0.0,0.0,0.0,1.0,0.0,0.0,0.0,1.0,-6.71204223633,3.06442749023,12.507989502,0.1,0.0,0.0,0.0,0.1,0.0,0.0,0.0,0.1
1446034241138351950,381,1446034241136882066,robocape,0.0,0.0,0.0,0.0,10.0,0.0,0.0,0.0,10.0,0.0,0.0,0.0,10.0,-2.11308516692,0.463523187728,1.24076675187,1.0,0.0,0.0,0.0,1.0,0.0,0.0,0.0,1.0,3.35063232422,1.70884643555,9.63037353516,0.1,0.0,0.0,0.0,0.1,0.0,0.0,0.0,0.1
1446034241193090700,382,1446034241191570997,robocape,0.0,0.0,0.0,0.0,10.0,0.0,0.0,0.0,10.0,0.0,0.0,0.0,10.0,-2.16781312732,-0.0396811002422,0.938497968144,1.0,0.0,0.0,0.0,1.0,0.0,0.0,0.0,1.0,3.10634033203,1.9124230957,6.65096923828,0.1,0.0,0.0,0.0,0.1,0.0,0.0,0.0,0.1
1446034241238363742,383,1446034241236901998,robocape,0.0,0.0,0.0,0.0,10.0,0.0,0.0,0.0,10.0,0.0,0.0,0.0,10.0,-2.29391380494,-0.178431793035,0.731570351445,1.0,0.0,0.0,0.0,1.0,0.0,0.0,0.0,1.0,-4.23080200195,1.88488037109,7.35270996094,0.1,0.0,0.0,0.0,0.1,0.0,0.0,0.0,0.1
1446034241288402492,384,1446034241286911010,robocape,0.0,0.0,0.0,0.0,10.0,0.0,0.0,0.0,10.0,0.0,0.0,0.0,10.0,-2.49777878639,0.120508039326,0.553271716464,1.0,0.0,0.0,0.0,1.0,0.0,0.0,0.0,1.0,2.80456787109,1.3376184082,12.2672900391,0.1,0.0,0.0,0.0,0.1,0.0,0.0,0.0,0.1
1446034241338407075,385,1446034241336936950,robocape,0.0,0.0,0.0,0.0,10.0,0.0,0.0,0.0,10.0,0.0,0.0,0.0,10.0,-2.48672666786,0.168045464784,0.287621397729,1.0,0.0,0.0,0.0,1.0,0.0,0.0,0.0,1.0,1.49209716797,0.413140869141,9.11783935547,0.1,0.0,0.0,0.0,0.1,0.0,0.0,0.0,0.1
1446034241392003158,386,1446034241390417098,robocape,0.0,0.0,0.0,0.0,10.0,0.0,0.0,0.0,10.0,0.0,0.0,0.0,10.0,-2.50283879246,-0.252334513285,-0.122239094035,1.0,0.0,0.0,0.0,1.0,0.0,0.0,0.0,1.0,0.0934057617188,0.760418701172,6.11448486328,0.1,0.0,0.0,0.0,0.1,0.0,0.0,0.0,0.1
1446034241438343075,387,1446034241436954021,robocape,0.0,0.0,0.0,0.0,10.0,0.0,0.0,0.0,10.0,0.0,0.0,0.0,10.0,-2.33772280487,0.264718212354,-0.420912610287,1.0,0.0,0.0,0.0,1.0,0.0,0.0,0.0,1.0,1.70525390625,0.586779785156,9.87227050781,0.1,0.0,0.0,0.0,0.1,0.0,0.0,0.0,0.1
1446034241489382575,388,1446034241487947940,robocape,0.0,0.0,0.0,0.0,10.0,0.0,0.0,0.0,10.0,0.0,0.0,0.0,10.0,-2.18791999355,0.466452664927,-0.63889234551,1.0,0.0,0.0,0.0,1.0,0.0,0.0,0.0,1.0,-1.25139770508,0.416733398438,9.28668823242,0.1,0.0,0.0,0.0,0.1,0.0,0.0,0.0,0.1
1446034241538459492,389,1446034241536967039,robocape,0.0,0.0,0.0,0.0,10.0,0.0,0.0,0.0,10.0,0.0,0.0,0.0,10.0,-1.99204449538,0.96912432068,-0.950482193049,1.0,0.0,0.0,0.0,1.0,0.0,0.0,0.0,1.0,2.03576660156,-5.60554321289,11.7236206055,0.1,0.0,0.0,0.0,0.1,0.0,0.0,0.0,0.1
1446034241591341700,390,1446034241589708089,robocape,0.0,0.0,0.0,0.0,10.0,0.0,0.0,0.0,10.0,0.0,0.0,0.0,10.0,0.283493498039,1.08923288584,-1.90083122804,1.0,0.0,0.0,0.0,1.0,0.0,0.0,0.0,1.0,-1.8010546875,-5.40555908203,10.0255517578,0.1,0.0,0.0,0.0,0.1,0.0,0.0,0.0,0.1
1446034241638519659,391,1446034241637006998,robocape,0.0,0.0,0.0,0.0,10.0,0.0,0.0,0.0,10.0,0.0,0.0,0.0,10.0,1.03836650902,1.28990207398,-1.69776519493,1.0,0.0,0.0,0.0,1.0,0.0,0.0,0.0,1.0,-0.640667724609,-0.652642822266,11.6194372559,0.1,0.0,0.0,0.0,0.1,0.0,0.0,0.0,0.1
1446034241688453534,392,1446034241686897039,robocape,0.0,0.0,0.0,0.0,10.0,0.0,0.0,0.0,10.0,0.0,0.0,0.0,10.0,1.21546672151,0.837431004775,-1.45435227129,1.0,0.0,0.0,0.0,1.0,0.0,0.0,0.0,1.0,-1.0765612793,0.674197998047,10.7811804199,0.1,0.0,0.0,0.0,0.1,0.0,0.0,0.0,0.1
1446034241738358909,393,1446034241736942052,robocape,0.0,0.0,0.0,0.0,10.0,0.0,0.0,0.0,10.0,0.0,0.0,0.0,10.0,1.31134052076,0.48309742174,-1.32012895235,1.0,0.0,0.0,0.0,1.0,0.0,0.0,0.0,1.0,-3.35542236328,0.549656982422,8.36340820313,0.1,0.0,0.0,0.0,0.1,0.0,0.0,0.0,0.1
1446034241789437117,394,1446034241787945032,robocape,0.0,0.0,0.0,0.0,10.0,0.0,0.0,0.0,10.0,0.0,0.0,0.0,10.0,1.46220859651,0.611728102391,-1.12864766998,1.0,0.0,0.0,0.0,1.0,0.0,0.0,0.0,1.0,-4.73734863281,-0.215551757813,11.741583252,0.1,0.0,0.0,0.0,0.1,0.0,0.0,0.0,0.1
1446034241838676992,395,1446034241837240934,robocape,0.0,0.0,0.0,0.0,10.0,0.0,0.0,0.0,10.0,0.0,0.0,0.0,10.0,1.62639247771,0.21465078386,-1.00560962761,1.0,0.0,0.0,0.0,1.0,0.0,0.0,0.0,1.0,-4.85470458984,0.643062744141,10.2243383789,0.1,0.0,0.0,0.0,0.1,0.0,0.0,0.0,0.1
1446034241888553075,396,1446034241887028932,robocape,0.0,0.0,0.0,0.0,10.0,0.0,0.0,0.0,10.0,0.0,0.0,0.0,10.0,1.77646160514,0.274838224496,-0.827710466797,1.0,0.0,0.0,0.0,1.0,0.0,0.0,0.0,1.0,-1.29211303711,0.797541503906,12.5031994629,0.1,0.0,0.0,0.0,0.1,0.0,0.0,0.0,0.1
1446034241938332034,397,1446034241936866044,robocape,0.0,0.0,0.0,0.0,10.0,0.0,0.0,0.0,10.0,0.0,0.0,0.0,10.0,1.85928591504,0.30599720925,-0.653539731505,1.0,0.0,0.0,0.0,1.0,0.0,0.0,0.0,1.0,-1.07416625977,0.714913330078,9.91777587891,0.1,0.0,0.0,0.0,0.1,0.0,0.0,0.0,0.1
1446034241988414367,398,1446034241986958026,robocape,0.0,0.0,0.0,0.0,10.0,0.0,0.0,0.0,10.0,0.0,0.0,0.0,10.0,1.89337437699,-0.0617853372898,-0.463656345783,1.0,0.0,0.0,0.0,1.0,0.0,0.0,0.0,1.0,-4.14697631836,1.7663269043,8.2735949707,0.1,0.0,0.0,0.0,0.1,0.0,0.0,0.0,0.1
1446034242039758200,399,1446034242038379907,robocape,0.0,0.0,0.0,0.0,10.0,0.0,0.0,0.0,10.0,0.0,0.0,0.0,10.0,1.73211997299,0.0649811305979,-0.184823379651,1.0,0.0,0.0,0.0,1.0,0.0,0.0,0.0,1.0,1.8812878418,2.11959228516,9.45314208984,0.1,0.0,0.0,0.0,0.1,0.0,0.0,0.0,0.1
1446034242088356409,400,1446034242086910963,robocape,0.0,0.0,0.0,0.0,10.0,0.0,0.0,0.0,10.0,0.0,0.0,0.0,10.0,1.49283494904,-0.0446079482588,0.0250337142467,1.0,0.0,0.0,0.0,1.0,0.0,0.0,0.0,1.0,-2.6441015625,2.41896972656,9.16573974609,0.1,0.0,0.0,0.0,0.1,0.0,0.0,0.0,0.1
1446034242138603909,401,1446034242137121915,robocape,0.0,0.0,0.0,0.0,10.0,0.0,0.0,0.0,10.0,0.0,0.0,0.0,10.0,1.1856393173,0.236888178963,0.227700273202,1.0,0.0,0.0,0.0,1.0,0.0,0.0,0.0,1.0,0.540076904297,2.48124023437,10.8087231445,0.1,0.0,0.0,0.0,0.1,0.0,0.0,0.0,0.1
1446034242188299575,402,1446034242186881065,robocape,0.0,0.0,0.0,0.0,10.0,0.0,0.0,0.0,10.0,0.0,0.0,0.0,10.0,0.848616281354,0.140614905556,0.412257336744,1.0,0.0,0.0,0.0,1.0,0.0,0.0,0.0,1.0,-4.76608886719,3.28117675781,10.6757995605,0.1,0.0,0.0,0.0,0.1,0.0,0.0,0.0,0.1
1446034242241791492,403,1446034242239713907,robocape,0.0,0.0,0.0,0.0,10.0,0.0,0.0,0.0,10.0,0.0,0.0,0.0,10.0,0.544616442921,0.223039741294,0.514922196767,1.0,0.0,0.0,0.0,1.0,0.0,0.0,0.0,1.0,0.706530761719,3.27638671875,13.7533996582,0.1,0.0,0.0,0.0,0.1,0.0,0.0,0.0,0.1
1446034242288283201,404,1446034242286891937,robocape,0.0,0.0,0.0,0.0,10.0,0.0,0.0,0.0,10.0,0.0,0.0,0.0,10.0,0.233292911491,0.202133926737,0.550608555374,1.0,0.0,0.0,0.0,1.0,0.0,0.0,0.0,1.0,-3.50750610352,3.47756835938,13.1869775391,0.1,0.0,0.0,0.0,0.1,0.0,0.0,0.0,0.1
1446034242339215867,405,1446034242336874008,robocape,0.0,0.0,0.0,0.0,10.0,0.0,0.0,0.0,10.0,0.0,0.0,0.0,10.0,0.00226368692657,0.147272808281,0.593219132815,1.0,0.0,0.0,0.0,1.0,0.0,0.0,0.0,1.0,0.267044677734,3.37098999023,10.862611084,0.1,0.0,0.0,0.0,0.1,0.0,0.0,0.0,0.1
1446034242388496326,406,1446034242387013912,robocape,0.0,0.0,0.0,0.0,10.0,0.0,0.0,0.0,10.0,0.0,0.0,0.0,10.0,-0.235157124254,0.408662069273,0.594817029469,1.0,0.0,0.0,0.0,1.0,0.0,0.0,0.0,1.0,-1.27534790039,2.70876708984,11.1308532715,0.1,0.0,0.0,0.0,0.1,0.0,0.0,0.0,0.1
1446034242443053076,407,1446034242440006971,robocape,0.0,0.0,0.0,0.0,10.0,0.0,0.0,0.0,10.0,0.0,0.0,0.0,10.0,-0.449142117842,0.152865446571,0.607200728538,1.0,0.0,0.0,0.0,1.0,0.0,0.0,0.0,1.0,-1.60825561523,2.65966918945,8.27598999023,0.1,0.0,0.0,0.0,0.1,0.0,0.0,0.0,0.1
1446034242488246992,408,1446034242486790895,robocape,0.0,0.0,0.0,0.0,10.0,0.0,0.0,0.0,10.0,0.0,0.0,0.0,10.0,-0.710930852997,0.179497057471,0.587227020362,1.0,0.0,0.0,0.0,1.0,0.0,0.0,0.0,1.0,-3.83801879883,2.91952880859,11.782298584,0.1,0.0,0.0,0.0,0.1,0.0,0.0,0.0,0.1
1446034242538409867,409,1446034242536928892,robocape,0.0,0.0,0.0,0.0,10.0,0.0,0.0,0.0,10.0,0.0,0.0,0.0,10.0,-1.11999239643,0.0500674284935,0.71812138794,1.0,0.0,0.0,0.0,1.0,0.0,0.0,0.0,1.0,-9.12622192383,2.53632568359,8.72505615234,0.1,0.0,0.0,0.0,0.1,0.0,0.0,0.0,0.1
1446034242588264451,410,1446034242586811065,robocape,0.0,0.0,0.0,0.0,10.0,0.0,0.0,0.0,10.0,0.0,0.0,0.0,10.0,-1.44782752662,-0.221308686586,0.612527050718,1.0,0.0,0.0,0.0,1.0,0.0,0.0,0.0,1.0,2.99616943359,2.4560925293,8.46399902344,0.1,0.0,0.0,0.0,0.1,0.0,0.0,0.0,0.1
1446034242641151492,411,1446034242639591932,robocape,0.0,0.0,0.0,0.0,10.0,0.0,0.0,0.0,10.0,0.0,0.0,0.0,10.0,-1.59443454463,-0.25513083243,0.420246820015,1.0,0.0,0.0,0.0,1.0,0.0,0.0,0.0,1.0,-4.54454956055,2.11240722656,9.70821166992,0.1,0.0,0.0,0.0,0.1,0.0,0.0,0.0,0.1
1446034242688558409,412,1446034242686794996,robocape,0.0,0.0,0.0,0.0,10.0,0.0,0.0,0.0,10.0,0.0,0.0,0.0,10.0,-1.57592557505,-0.152865446571,0.248472929704,1.0,0.0,0.0,0.0,1.0,0.0,0.0,0.0,1.0,0.219144287109,1.51125732422,10.0890197754,0.1,0.0,0.0,0.0,0.1,0.0,0.0,0.0,0.1
1446034242738481784,413,1446034242737020969,robocape,0.0,0.0,0.0,0.0,10.0,0.0,0.0,0.0,10.0,0.0,0.0,0.0,10.0,-1.5093465478,0.0691090302876,0.0697748205601,1.0,0.0,0.0,0.0,1.0,0.0,0.0,0.0,1.0,-0.101788330078,1.14362182617,9.88424560547,0.1,0.0,0.0,0.0,0.1,0.0,0.0,0.0,0.1
1446034242788807117,414,1446034242786885023,robocape,0.0,0.0,0.0,0.0,10.0,0.0,0.0,0.0,10.0,0.0,0.0,0.0,10.0,-1.20947460906,-0.175235999727,-0.10053433115,1.0,0.0,0.0,0.0,1.0,0.0,0.0,0.0,1.0,2.39621704102,0.944835205078,13.8863232422,0.1,0.0,0.0,0.0,0.1,0.0,0.0,0.0,0.1
1446034242840929867,415,1446034242839472055,robocape,0.0,0.0,0.0,0.0,10.0,0.0,0.0,0.0,10.0,0.0,0.0,0.0,10.0,-0.98776644831,0.145009121355,-0.29920614847,1.0,0.0,0.0,0.0,1.0,0.0,0.0,0.0,1.0,-1.2226574707,0.113763427734,7.90356445313,0.1,0.0,0.0,0.0,0.1,0.0,0.0,0.0,0.1
1446034242888321784,416,1446034242886784076,robocape,0.0,0.0,0.0,0.0,10.0,0.0,0.0,0.0,10.0,0.0,0.0,0.0,10.0,-0.691356618985,0.176168106109,-0.424374719704,1.0,0.0,0.0,0.0,1.0,0.0,0.0,0.0,1.0,5.26664794922,0.123343505859,10.9105114746,0.1,0.0,0.0,0.0,0.1,0.0,0.0,0.0,0.1
1446034242938558159,417,1446034242937165975,robocape,0.0,0.0,0.0,0.0,10.0,0.0,0.0,0.0,10.0,0.0,0.0,0.0,10.0,-0.335691455404,0.367649388485,-0.540222227123,1.0,0.0,0.0,0.0,1.0,0.0,0.0,0.0,1.0,-1.79985717773,-0.719703369141,12.2397473145,0.1,0.0,0.0,0.0,0.1,0.0,0.0,0.0,0.1
1446034242988260326,418,1446034242986766099,robocape,0.0,0.0,0.0,0.0,10.0,0.0,0.0,0.0,10.0,0.0,0.0,0.0,10.0,0.0645816564344,-0.00239684498107,-0.676043442717,1.0,0.0,0.0,0.0,1.0,0.0,0.0,0.0,1.0,4.16134643555,-0.326920166016,7.52994140625,0.1,0.0,0.0,0.0,0.1,0.0,0.0,0.0,0.1
1446034243039238826,419,1446034243037760019,robocape,0.0,0.0,0.0,0.0,10.0,0.0,0.0,0.0,10.0,0.0,0.0,0.0,10.0,0.625310223951,0.399341005457,-0.830639943996,1.0,0.0,0.0,0.0,1.0,0.0,0.0,0.0,1.0,2.27646606445,-0.781973876953,9.67348388672,0.1,0.0,0.0,0.0,0.1,0.0,0.0,0.0,0.1
1446034243088323284,420,1446034243086865901,robocape,0.0,0.0,0.0,0.0,10.0,0.0,0.0,0.0,10.0,0.0,0.0,0.0,10.0,1.51307497333,0.00266316109008,-0.972053797879,1.0,0.0,0.0,0.0,1.0,0.0,0.0,0.0,1.0,-2.37346435547,-0.628692626953,9.00407592773,0.1,0.0,0.0,0.0,0.1,0.0,0.0,0.0,0.1
1446034243138546951,421,1446034243137046098,robocape,0.0,0.0,0.0,0.0,10.0,0.0,0.0,0.0,10.0,0.0,0.0,0.0,10.0,2.0827251305,0.244478188069,-0.896286864866,1.0,0.0,0.0,0.0,1.0,0.0,0.0,0.0,1.0,-1.45736938477,0.265847167969,8.83881958008,0.1,0.0,0.0,0.0,0.1,0.0,0.0,0.0,0.1
1446034243193836451,422,1446034243192377090,robocape,0.0,0.0,0.0,0.0,10.0,0.0,0.0,0.0,10.0,0.0,0.0,0.0,10.0,2.12613465626,0.0751011427402,-0.38788941277,1.0,0.0,0.0,0.0,1.0,0.0,0.0,0.0,1.0,3.94100463867,2.04055664063,9.16094970703,0.1,0.0,0.0,0.0,0.1,0.0,0.0,0.0,0.1
1446034243238615701,423,1446034243237126111,robocape,0.0,0.0,0.0,0.0,10.0,0.0,0.0,0.0,10.0,0.0,0.0,0.0,10.0,1.86288118251,0.179097583308,-0.0885501062451,1.0,0.0,0.0,0.0,1.0,0.0,0.0,0.0,1.0,-2.27766357422,2.63212646484,8.28916259766,0.1,0.0,0.0,0.0,0.1,0.0,0.0,0.0,0.1
1446034243289887118,424,1446034243288475990,robocape,0.0,0.0,0.0,0.0,10.0,0.0,0.0,0.0,10.0,0.0,0.0,0.0,10.0,1.39283325011,0.0118510668509,0.121173829599,1.0,0.0,0.0,0.0,1.0,0.0,0.0,0.0,1.0,4.57209228516,2.61895385742,6.93477905273,0.1,0.0,0.0,0.0,0.1,0.0,0.0,0.0,0.1
1446034243338462993,425,1446034243337016105,robocape,0.0,0.0,0.0,0.0,10.0,0.0,0.0,0.0,10.0,0.0,0.0,0.0,10.0,0.97445064286,0.133557528667,0.271642431188,1.0,0.0,0.0,0.0,1.0,0.0,0.0,0.0,1.0,-1.9507434082,2.71355712891,7.93469970703,0.1,0.0,0.0,0.0,0.1,0.0,0.0,0.0,0.1
1446034243388605909,426,1446034243387151956,robocape,0.0,0.0,0.0,0.0,10.0,0.0,0.0,0.0,10.0,0.0,0.0,0.0,10.0,0.213851835533,-0.0789627263208,0.641022874382,1.0,0.0,0.0,0.0,1.0,0.0,0.0,0.0,1.0,1.21068237305,3.50511108398,9.75132202148,0.1,0.0,0.0,0.0,0.1,0.0,0.0,0.0,0.1
1446034243438334409,427,1446034243436913013,robocape,0.0,0.0,0.0,0.0,10.0,0.0,0.0,0.0,10.0,0.0,0.0,0.0,10.0,-0.556866983936,0.160055981514,0.807204126403,1.0,0.0,0.0,0.0,1.0,0.0,0.0,0.0,1.0,2.79019775391,3.63803466797,8.93701538086,0.1,0.0,0.0,0.0,0.1,0.0,0.0,0.0,0.1
1446034243493737159,428,1446034243490921020,robocape,0.0,0.0,0.0,0.0,10.0,0.0,0.0,0.0,10.0,0.0,0.0,0.0,10.0,-1.26859678526,0.0699079786146,0.768321974488,1.0,0.0,0.0,0.0,1.0,0.0,0.0,0.0,1.0,0.597557373047,2.66565673828,10.2722387695,0.1,0.0,0.0,0.0,0.1,0.0,0.0,0.0,0.1
1446034243538429326,429,1446034243536935091,robocape,0.0,0.0,0.0,0.0,10.0,0.0,0.0,0.0,10.0,0.0,0.0,0.0,10.0,-1.48138335636,-0.00239684498107,0.609597573519,1.0,0.0,0.0,0.0,1.0,0.0,0.0,0.0,1.0,0.170046386719,2.1806652832,11.8062487793,0.1,0.0,0.0,0.0,0.1,0.0,0.0,0.0,0.1
1446034243588280284,430,1446034243586837053,robocape,0.0,0.0,0.0,0.0,10.0,0.0,0.0,0.0,10.0,0.0,0.0,0.0,10.0,-1.54809554166,0.197872868993,0.358195166616,1.0,0.0,0.0,0.0,1.0,0.0,0.0,0.0,1.0,-0.619112548828,1.12086914062,7.8520715332,0.1,0.0,0.0,0.0,0.1,0.0,0.0,0.0,0.1
1446034243638484784,431,1446034243636985063,robocape,0.0,0.0,0.0,0.0,10.0,0.0,0.0,0.0,10.0,0.0,0.0,0.0,10.0,-1.38031639299,-0.085087996828,0.0893490545722,1.0,0.0,0.0,0.0,1.0,0.0,0.0,0.0,1.0,-1.12206665039,1.09931396484,6.53840332031,0.1,0.0,0.0,0.0,0.1,0.0,0.0,0.0,0.1
1446034243691359743,432,1446034243689501047,robocape,0.0,0.0,0.0,0.0,10.0,0.0,0.0,0.0,10.0,0.0,0.0,0.0,10.0,-1.00188120209,-0.314386166684,-0.0628506017259,1.0,0.0,0.0,0.0,1.0,0.0,0.0,0.0,1.0,-0.285007324219,1.21666992188,10.6183190918,0.1,0.0,0.0,0.0,0.1,0.0,0.0,0.0,0.1
1446034243738309201,433,1446034243736771106,robocape,0.0,0.0,0.0,0.0,10.0,0.0,0.0,0.0,10.0,0.0,0.0,0.0,10.0,-0.685630822641,0.312255637812,-0.137285954194,1.0,0.0,0.0,0.0,1.0,0.0,0.0,0.0,1.0,6.37554199219,1.63220581055,13.8132751465,0.1,0.0,0.0,0.0,0.1,0.0,0.0,0.0,0.1
1446034243788403868,434,1446034243786914110,robocape,0.0,0.0,0.0,0.0,10.0,0.0,0.0,0.0,10.0,0.0,0.0,0.0,10.0,-0.378302032846,0.318380908319,-0.312255637812,1.0,0.0,0.0,0.0,1.0,0.0,0.0,0.0,1.0,-1.39629638672,0.756826171875,5.30017822266,0.1,0.0,0.0,0.0,0.1,0.0,0.0,0.0,0.1
1446034243838195076,435,1446034243836690902,robocape,0.0,0.0,0.0,0.0,10.0,0.0,0.0,0.0,10.0,0.0,0.0,0.0,10.0,-0.172173364474,-0.1153148752,-0.298407200143,1.0,0.0,0.0,0.0,1.0,0.0,0.0,0.0,1.0,-2.89557861328,0.907712402344,6.74317749023,0.1,0.0,0.0,0.0,0.1,0.0,0.0,0.0,0.1
1446034243891554951,436,1446034243890100955,robocape,0.0,0.0,0.0,0.0,10.0,0.0,0.0,0.0,10.0,0.0,0.0,0.0,10.0,-0.0415453130052,-0.212919729152,-0.326903023807,1.0,0.0,0.0,0.0,1.0,0.0,0.0,0.0,1.0,-1.97948364258,1.07057373047,7.01141967773,0.1,0.0,0.0,0.0,0.1,0.0,0.0,0.0,0.1
1446034243938185160,437,1446034243936780929,robocape,0.0,0.0,0.0,0.0,10.0,0.0,0.0,0.0,10.0,0.0,0.0,0.0,10.0,0.0817590454654,0.121972777926,-0.297741409871,1.0,0.0,0.0,0.0,1.0,0.0,0.0,0.0,1.0,4.50862426758,2.20341796875,11.9128271484,0.1,0.0,0.0,0.0,0.1,0.0,0.0,0.0,0.1
1446034243988233618,438,1446034243986749887,robocape,0.0,0.0,0.0,0.0,10.0,0.0,0.0,0.0,10.0,0.0,0.0,0.0,10.0,0.240483446434,0.317315643883,-0.267514531498,1.0,0.0,0.0,0.0,1.0,0.0,0.0,0.0,1.0,-3.755390625,0.855021972656,16.1065063477,0.1,0.0,0.0,0.0,0.1,0.0,0.0,0.0,0.1
1446034244038219618,439,1446034244036787033,robocape,0.0,0.0,0.0,0.0,10.0,0.0,0.0,0.0,10.0,0.0,0.0,0.0,10.0,0.183225482997,-0.0157126504315,-0.210522884171,1.0,0.0,0.0,0.0,1.0,0.0,0.0,0.0,1.0,5.46303955078,0.916094970703,10.4410876465,0.1,0.0,0.0,0.0,0.1,0.0,0.0,0.0,0.1
1446034244089688535,440,1446034244088187932,robocape,0.0,0.0,0.0,0.0,10.0,0.0,0.0,0.0,10.0,0.0,0.0,0.0,10.0,0.18389127327,-0.049401638221,-0.226901324875,1.0,0.0,0.0,0.0,1.0,0.0,0.0,0.0,1.0,-2.19623291016,0.783171386719,10.7296875,0.1,0.0,0.0,0.0,0.1,0.0,0.0,0.0,0.1
1446034244138408118,441,1446034244136926889,robocape,0.0,0.0,0.0,0.0,10.0,0.0,0.0,0.0,10.0,0.0,0.0,0.0,10.0,0.197872868993,0.431032622429,-0.213052887206,1.0,0.0,0.0,0.0,1.0,0.0,0.0,0.0,1.0,4.80800170898,0.828676757813,13.4923425293,0.1,0.0,0.0,0.0,0.1,0.0,0.0,0.0,0.1
1446034244188280535,442,1446034244186887025,robocape,0.0,0.0,0.0,0.0,10.0,0.0,0.0,0.0,10.0,0.0,0.0,0.0,10.0,0.23888554978,0.215849206351,-0.214251309697,1.0,0.0,0.0,0.0,1.0,0.0,0.0,0.0,1.0,0.771196289063,0.300574951172,13.0157336426,0.1,0.0,0.0,0.0,0.1,0.0,0.0,0.0,0.1
