%time,field.header.seq,field.header.stamp,field.header.frame_id,field.orientation.x,field.orientation.y,field.orientation.z,field.orientation.w,field.orientation_covariance0,field.orientation_covariance1,field.orientation_covariance2,field.orientation_covariance3,field.orientation_covariance4,field.orientation_covariance5,field.orientation_covariance6,field.orientation_covariance7,field.orientation_covariance8,field.angular_velocity.x,field.angular_velocity.y,field.angular_velocity.z,field.angular_velocity_covariance0,field.angular_velocity_covariance1,field.angular_velocity_covariance2,field.angular_velocity_covariance3,field.angular_velocity_covariance4,field.angular_velocity_covariance5,field.angular_velocity_covariance6,field.angular_velocity_covariance7,field.angular_velocity_covariance8,field.linear_acceleration.x,field.linear_acceleration.y,field.linear_acceleration.z,field.linear_acceleration_covariance0,field.linear_acceleration_covariance1,field.linear_acceleration_covariance2,field.linear_acceleration_covariance3,field.linear_acceleration_covariance4,field.linear_acceleration_covariance5,field.linear_acceleration_covariance6,field.linear_acceleration_covariance7,field.linear_acceleration_covariance8
1446034842197889278,1,1446034842190815925,robocape,0.0,0.0,0.0,0.0,10.0,0.0,0.0,0.0,10.0,0.0,0.0,0.0,10.0,0.00386158358061,0.0121173829599,0.0110521185238,1.0,0.0,0.0,0.0,1.0,0.0,0.0,0.0,1.0,0.0814306640625,-0.263452148438,10.1584753418,0.1,0.0,0.0,0.0,0.1,0.0,0.0,0.0,0.1
1446034842220298945,2,1446034842205305099,robocape,0.0,0.0,0.0,0.0,10.0,0.0,0.0,0.0,10.0,0.0,0.0,0.0,10.0,0.00239684498107,0.0125168571234,0.0099868540878,1.0,0.0,0.0,0.0,1.0,0.0,0.0,0.0,1.0,0.0934057617188,-0.264649658203,10.1249450684,0.1,0.0,0.0,0.0,0.1,0.0,0.0,0.0,0.1
1446034842228546237,3,1446034842221535921,robocape,0.0,0.0,0.0,0.0,10.0,0.0,0.0,0.0,10.0,0.0,0.0,0.0,10.0,0.000399474163512,0.0123836990689,0.00825579937925,1.0,0.0,0.0,0.0,1.0,0.0,0.0,0.0,1.0,0.0826281738281,-0.293389892578,10.1333276367,0.1,0.0,0.0,0.0,0.1,0.0,0.0,0.0,0.1
1446034842242012112,4,1446034842234530925,robocape,0.0,0.0,0.0,0.0,10.0,0.0,0.0,0.0,10.0,0.0,0.0,0.0,10.0,0.000399474163512,0.0130494893414,0.00865527354276,1.0,0.0,0.0,0.0,1.0,0.0,0.0,0.0,1.0,0.0514929199219,-0.320932617188,10.1752404785,0.1,0.0,0.0,0.0,0.1,0.0,0.0,0.0,0.1
1446034842257183487,5,1446034842254208087,robocape,0.0,0.0,0.0,0.0,10.0,0.0,0.0,0.0,10.0,0.0,0.0,0.0,10.0,0.00612527050718,0.0121173829599,0.00825579937925,1.0,0.0,0.0,0.0,1.0,0.0,0.0,0.0,1.0,-0.028740234375,-0.349672851562,10.1429077148,0.1,0.0,0.0,0.0,0.1,0.0,0.0,0.0,0.1
1446034842279829487,6,1446034842277106046,robocape,0.0,0.0,0.0,0.0,10.0,0.0,0.0,0.0,10.0,0.0,0.0,0.0,10.0,0.0113184346328,0.0117179087963,0.00945422186978,1.0,0.0,0.0,0.0,1.0,0.0,0.0,0.0,1.0,0.0778381347656,-0.340092773437,10.1500927734,0.1,0.0,0.0,0.0,0.1,0.0,0.0,0.0,0.1
1446034842294676778,7,1446034842293227910,robocape,0.0,0.0,0.0,0.0,10.0,0.0,0.0,0.0,10.0,0.0,0.0,0.0,10.0,0.0138484376684,0.0129163312869,0.00825579937925,1.0,0.0,0.0,0.0,1.0,0.0,0.0,0.0,1.0,0.0993933105469,-0.293389892578,10.1201550293,0.1,0.0,0.0,0.0,0.1,0.0,0.0,0.0,0.1
1446034842314717862,8,1446034842313301086,robocape,0.0,0.0,0.0,0.0,10.0,0.0,0.0,0.0,10.0,0.0,0.0,0.0,10.0,0.0146473859954,0.0133158054504,0.00705737688871,1.0,0.0,0.0,0.0,1.0,0.0,0.0,0.0,1.0,0.0263452148438,-0.308957519531,10.1225500488,0.1,0.0,0.0,0.0,0.1,0.0,0.0,0.0,0.1
1446034842337945362,9,1446034842336467981,robocape,0.0,0.0,0.0,0.0,10.0,0.0,0.0,0.0,10.0,0.0,0.0,0.0,10.0,0.017177389031,0.0126500151779,0.00878843159726,1.0,0.0,0.0,0.0,1.0,0.0,0.0,0.0,1.0,0.0047900390625,-0.299377441406,10.1620678711,0.1,0.0,0.0,0.0,0.1,0.0,0.0,0.0,0.1
1446034842355325820,10,1446034842353842020,robocape,0.0,0.0,0.0,0.0,10.0,0.0,0.0,0.0,10.0,0.0,0.0,0.0,10.0,0.0183758115215,0.0143810698864,0.00878843159726,1.0,0.0,0.0,0.0,1.0,0.0,0.0,0.0,1.0,0.0826281738281,-0.251477050781,10.1536853027,0.1,0.0,0.0,0.0,0.1,0.0,0.0,0.0,0.1
1446034842374800487,11,1446034842373380899,robocape,0.0,0.0,0.0,0.0,10.0,0.0,0.0,0.0,10.0,0.0,0.0,0.0,10.0,0.0151800182135,0.0119842249054,0.00905474770627,1.0,0.0,0.0,0.0,1.0,0.0,0.0,0.0,1.0,0.0790356445313,-0.213156738281,10.1512902832,0.1,0.0,0.0,0.0,0.1,0.0,0.0,0.0,0.1
1446034842399429903,12,1446034842397550106,robocape,0.0,0.0,0.0,0.0,10.0,0.0,0.0,0.0,10.0,0.0,0.0,0.0,10.0,0.00905474770627,0.0119842249054,0.00825579937925,1.0,0.0,0.0,0.0,1.0,0.0,0.0,0.0,1.0,0.0275427246094,-0.225131835938,10.1836230469,0.1,0.0,0.0,0.0,0.1,0.0,0.0,0.0,0.1
1446034842414620403,13,1446034842413178920,robocape,0.0,0.0,0.0,0.0,10.0,0.0,0.0,0.0,10.0,0.0,0.0,0.0,10.0,0.0031957933081,0.0119842249054,0.0102531701968,1.0,0.0,0.0,0.0,1.0,0.0,0.0,0.0,1.0,0.0227526855469,-0.203576660156,10.1704504395,0.1,0.0,0.0,0.0,0.1,0.0,0.0,0.0,0.1
1446034842435537653,14,1446034842433758974,robocape,0.0,0.0,0.0,0.0,10.0,0.0,0.0,0.0,10.0,0.0,0.0,0.0,10.0,-0.00146473859954,0.0119842249054,0.00932106381528,1.0,0.0,0.0,0.0,1.0,0.0,0.0,0.0,1.0,0.0910107421875,-0.24908203125,10.1548828125,0.1,0.0,0.0,0.0,0.1,0.0,0.0,0.0,0.1
1446034842457307028,15,1446034842455892086,robocape,0.0,0.0,0.0,0.0,10.0,0.0,0.0,0.0,10.0,0.0,0.0,0.0,10.0,-0.00599211245268,0.0118510668509,0.00918790576077,1.0,0.0,0.0,0.0,1.0,0.0,0.0,0.0,1.0,0.01916015625,-0.304167480469,10.1620678711,0.1,0.0,0.0,0.0,0.1,0.0,0.0,0.0,0.1
1446034842477299487,16,1446034842475910902,robocape,0.0,0.0,0.0,0.0,10.0,0.0,0.0,0.0,10.0,0.0,0.0,0.0,10.0,-0.0031957933081,0.0119842249054,0.00985369603329,1.0,0.0,0.0,0.0,1.0,0.0,0.0,0.0,1.0,0.0239501953125,-0.308957519531,10.1608703613,0.1,0.0,0.0,0.0,0.1,0.0,0.0,0.0,0.1
1446034842494558445,17,1446034842493163108,robocape,0.0,0.0,0.0,0.0,10.0,0.0,0.0,0.0,10.0,0.0,0.0,0.0,10.0,-0.000532632218016,0.0102531701968,0.0103863282513,1.0,0.0,0.0,0.0,1.0,0.0,0.0,0.0,1.0,0.0179626464844,-0.318537597656,10.1644628906,0.1,0.0,0.0,0.0,0.1,0.0,0.0,0.0,0.1
1446034842514487278,18,1446034842513065099,robocape,0.0,0.0,0.0,0.0,10.0,0.0,0.0,0.0,10.0,0.0,0.0,0.0,10.0,0.0034621094171,0.0121173829599,0.00625842856169,1.0,0.0,0.0,0.0,1.0,0.0,0.0,0.0,1.0,0.0754431152344,-0.384400634766,10.1476977539,0.1,0.0,0.0,0.0,0.1,0.0,0.0,0.0,0.1
1446034842537449237,19,1446034842535969972,robocape,0.0,0.0,0.0,0.0,10.0,0.0,0.0,0.0,10.0,0.0,0.0,0.0,10.0,0.0135821215594,0.0125168571234,0.00852211548825,1.0,0.0,0.0,0.0,1.0,0.0,0.0,0.0,1.0,-0.0371228027344,-0.404758300781,10.1560803223,0.1,0.0,0.0,0.0,0.1,0.0,0.0,0.0,0.1
1446034842554473778,20,1446034842553040027,robocape,0.0,0.0,0.0,0.0,10.0,0.0,0.0,0.0,10.0,0.0,0.0,0.0,10.0,0.0215716048296,0.0130494893414,0.00825579937925,1.0,0.0,0.0,0.0,1.0,0.0,0.0,0.0,1.0,0.0610729980469,-0.313747558594,10.1704504395,0.1,0.0,0.0,0.0,0.1,0.0,0.0,0.0,0.1
1446034842574605695,21,1446034842573183059,robocape,0.0,0.0,0.0,0.0,10.0,0.0,0.0,0.0,10.0,0.0,0.0,0.0,10.0,0.0253000303558,0.0127831732324,0.00852211548825,1.0,0.0,0.0,0.0,1.0,0.0,0.0,0.0,1.0,0.138911132813,-0.221539306641,10.1488952637,0.1,0.0,0.0,0.0,0.1,0.0,0.0,0.0,0.1
1446034842598695862,22,1446034842597292900,robocape,0.0,0.0,0.0,0.0,10.0,0.0,0.0,0.0,10.0,0.0,0.0,0.0,10.0,0.0218379209386,0.0138484376684,0.00559263828917,1.0,0.0,0.0,0.0,1.0,0.0,0.0,0.0,1.0,0.0778381347656,-0.228724365234,10.1632653809,0.1,0.0,0.0,0.0,0.1,0.0,0.0,0.0,0.1
1446034842614672945,23,1446034842613158941,robocape,0.0,0.0,0.0,0.0,10.0,0.0,0.0,0.0,10.0,0.0,0.0,0.0,10.0,0.017710021249,0.0134489635049,0.00838895743375,1.0,0.0,0.0,0.0,1.0,0.0,0.0,0.0,1.0,0.143701171875,-0.211959228516,10.1668579102,0.1,0.0,0.0,0.0,0.1,0.0,0.0,0.0,0.1
1446034842634894403,24,1446034842633429050,robocape,0.0,0.0,0.0,0.0,10.0,0.0,0.0,0.0,10.0,0.0,0.0,0.0,10.0,0.0135821215594,0.0126500151779,0.00905474770627,1.0,0.0,0.0,0.0,1.0,0.0,0.0,0.0,1.0,0.0203576660156,-0.211959228516,10.1632653809,0.1,0.0,0.0,0.0,0.1,0.0,0.0,0.0,0.1
1446034842659546403,25,1446034842657601118,robocape,0.0,0.0,0.0,0.0,10.0,0.0,0.0,0.0,10.0,0.0,0.0,0.0,10.0,0.00439421579863,0.0121173829599,0.0103863282513,1.0,0.0,0.0,0.0,1.0,0.0,0.0,0.0,1.0,0.076640625,-0.202379150391,10.152487793,0.1,0.0,0.0,0.0,0.1,0.0,0.0,0.0,0.1
1446034842675997237,26,1446034842674598932,robocape,0.0,0.0,0.0,0.0,10.0,0.0,0.0,0.0,10.0,0.0,0.0,0.0,10.0,0.03222424919,0.0114515926873,0.00852211548825,1.0,0.0,0.0,0.0,1.0,0.0,0.0,0.0,1.0,0.0455053710938,-0.207169189453,10.1297351074,0.1,0.0,0.0,0.0,0.1,0.0,0.0,0.0,0.1
1446034842695093987,27,1446034842693339109,robocape,0.0,0.0,0.0,0.0,10.0,0.0,0.0,0.0,10.0,0.0,0.0,0.0,10.0,-0.00439421579863,0.0115847507418,0.00825579937925,1.0,0.0,0.0,0.0,1.0,0.0,0.0,0.0,1.0,0.0155676269531,-0.316142578125,10.1656604004,0.1,0.0,0.0,0.0,0.1,0.0,0.0,0.0,0.1
1446034842714680987,28,1446034842713356971,robocape,0.0,0.0,0.0,0.0,10.0,0.0,0.0,0.0,10.0,0.0,0.0,0.0,10.0,-0.00292947719909,0.0122505410144,0.0107858024148,1.0,0.0,0.0,0.0,1.0,0.0,0.0,0.0,1.0,0.00359252929688,-0.307760009766,10.157277832,0.1,0.0,0.0,0.0,0.1,0.0,0.0,0.0,0.1
1446034842738146570,29,1446034842736644029,robocape,0.0,0.0,0.0,0.0,10.0,0.0,0.0,0.0,10.0,0.0,0.0,0.0,10.0,0.00199737081756,0.0118510668509,0.00918790576077,1.0,0.0,0.0,0.0,1.0,0.0,0.0,0.0,1.0,0.0874182128906,-0.322130126953,10.1417102051,0.1,0.0,0.0,0.0,0.1,0.0,0.0,0.0,0.1
1446034842754623779,30,1446034842753262996,robocape,0.0,0.0,0.0,0.0,10.0,0.0,0.0,0.0,10.0,0.0,0.0,0.0,10.0,0.00412789968962,0.0123836990689,0.00878843159726,1.0,0.0,0.0,0.0,1.0,0.0,0.0,0.0,1.0,0.0694555664063,-0.326920166016,10.1476977539,0.1,0.0,0.0,0.0,0.1,0.0,0.0,0.0,0.1
1446034842775131737,31,1446034842773346900,robocape,0.0,0.0,0.0,0.0,10.0,0.0,0.0,0.0,10.0,0.0,0.0,0.0,10.0,0.0102531701968,0.0125168571234,0.00759000910673,1.0,0.0,0.0,0.0,1.0,0.0,0.0,0.0,1.0,0.00239501953125,-0.328117675781,10.1393151855,0.1,0.0,0.0,0.0,0.1,0.0,0.0,0.0,0.1
1446034842797714445,32,1446034842796298980,robocape,0.0,0.0,0.0,0.0,10.0,0.0,0.0,0.0,10.0,0.0,0.0,0.0,10.0,0.0159789665405,0.0121173829599,0.00918790576077,1.0,0.0,0.0,0.0,1.0,0.0,0.0,0.0,1.0,0.0335302734375,-0.330512695313,10.1608703613,0.1,0.0,0.0,0.0,0.1,0.0,0.0,0.0,0.1
1446034842814617737,33,1446034842813143014,robocape,0.0,0.0,0.0,0.0,10.0,0.0,0.0,0.0,10.0,0.0,0.0,0.0,10.0,0.017976337358,0.0131826473959,0.00825579937925,1.0,0.0,0.0,0.0,1.0,0.0,0.0,0.0,1.0,0.0706530761719,-0.285007324219,10.1453027344,0.1,0.0,0.0,0.0,0.1,0.0,0.0,0.0,0.1
1446034842834510070,34,1446034842833102941,robocape,0.0,0.0,0.0,0.0,10.0,0.0,0.0,0.0,10.0,0.0,0.0,0.0,10.0,0.0181094954125,0.0129163312869,0.00825579937925,1.0,0.0,0.0,0.0,1.0,0.0,0.0,0.0,1.0,0.0598754882813,-0.280217285156,10.1548828125,0.1,0.0,0.0,0.0,0.1,0.0,0.0,0.0,0.1
1446034842860277737,35,1446034842858814954,robocape,0.0,0.0,0.0,0.0,10.0,0.0,0.0,0.0,10.0,0.0,0.0,0.0,10.0,0.016378440704,0.0125168571234,0.00825579937925,1.0,0.0,0.0,0.0,1.0,0.0,0.0,0.0,1.0,0.0203576660156,-0.246687011719,10.1381176758,0.1,0.0,0.0,0.0,0.1,0.0,0.0,0.0,0.1
1446034842875327945,36,1446034842873841047,robocape,0.0,0.0,0.0,0.0,10.0,0.0,0.0,0.0,10.0,0.0,0.0,0.0,10.0,0.0135821215594,0.0118510668509,0.00945422186978,1.0,0.0,0.0,0.0,1.0,0.0,0.0,0.0,1.0,0.0143701171875,-0.220341796875,10.172845459,0.1,0.0,0.0,0.0,0.1,0.0,0.0,0.0,0.1
1446034842894792612,37,1446034842893357038,robocape,0.0,0.0,0.0,0.0,10.0,0.0,0.0,0.0,10.0,0.0,0.0,0.0,10.0,0.00865527354276,0.0118510668509,0.00958737992429,1.0,0.0,0.0,0.0,1.0,0.0,0.0,0.0,1.0,0.05748046875,-0.213156738281,10.1405126953,0.1,0.0,0.0,0.0,0.1,0.0,0.0,0.0,0.1
1446034842916356904,38,1446034842914469957,robocape,0.0,0.0,0.0,0.0,10.0,0.0,0.0,0.0,10.0,0.0,0.0,0.0,10.0,0.00466053190764,0.0121173829599,0.00932106381528,1.0,0.0,0.0,0.0,1.0,0.0,0.0,0.0,1.0,0.0634680175781,-0.231119384766,10.1453027344,0.1,0.0,0.0,0.0,0.1,0.0,0.0,0.0,0.1
1446034842936099820,39,1446034842934623003,robocape,0.0,0.0,0.0,0.0,10.0,0.0,0.0,0.0,10.0,0.0,0.0,0.0,10.0,0.000798948327024,0.0118510668509,0.00945422186978,1.0,0.0,0.0,0.0,1.0,0.0,0.0,0.0,1.0,0.0215551757813,-0.271834716797,10.1488952637,0.1,0.0,0.0,0.0,0.1,0.0,0.0,0.0,0.1
1446034842954775445,40,1446034842953051090,robocape,0.0,0.0,0.0,0.0,10.0,0.0,0.0,0.0,10.0,0.0,0.0,0.0,10.0,-0.000798948327024,0.0119842249054,0.00932106381528,1.0,0.0,0.0,0.0,1.0,0.0,0.0,0.0,1.0,0.0718505859375,-0.283809814453,10.1800305176,0.1,0.0,0.0,0.0,0.1,0.0,0.0,0.0,0.1
1446034842975102779,41,1446034842973567008,robocape,0.0,0.0,0.0,0.0,10.0,0.0,0.0,0.0,10.0,0.0,0.0,0.0,10.0,0.00199737081756,0.0126500151779,0.00905474770627,1.0,0.0,0.0,0.0,1.0,0.0,0.0,0.0,1.0,0.0,-0.314945068359,10.1536853027,0.1,0.0,0.0,0.0,0.1,0.0,0.0,0.0,0.1
1446034842997643779,42,1446034842996153116,robocape,0.0,0.0,0.0,0.0,10.0,0.0,0.0,0.0,10.0,0.0,0.0,0.0,10.0,0.0066579027252,0.0118510668509,0.00918790576077,1.0,0.0,0.0,0.0,1.0,0.0,0.0,0.0,1.0,0.0347277832031,-0.337697753906,10.1417102051,0.1,0.0,0.0,0.0,0.1,0.0,0.0,0.0,0.1
1446034843015044654,43,1446034843013259887,robocape,0.0,0.0,0.0,0.0,10.0,0.0,0.0,0.0,10.0,0.0,0.0,0.0,10.0,0.00958737992429,0.0121173829599,0.00932106381528,1.0,0.0,0.0,0.0,1.0,0.0,0.0,0.0,1.0,0.0778381347656,-0.311352539063,10.1560803223,0.1,0.0,0.0,0.0,0.1,0.0,0.0,0.0,0.1
1446034843034986987,44,1446034843033171892,robocape,0.0,0.0,0.0,0.0,10.0,0.0,0.0,0.0,10.0,0.0,0.0,0.0,10.0,0.0123836990689,0.0131826473959,0.00852211548825,1.0,0.0,0.0,0.0,1.0,0.0,0.0,0.0,1.0,0.0550854492188,-0.305364990234,10.1752404785,0.1,0.0,0.0,0.0,0.1,0.0,0.0,0.0,0.1
1446034843058763070,45,1446034843057310104,robocape,0.0,0.0,0.0,0.0,10.0,0.0,0.0,0.0,10.0,0.0,0.0,0.0,10.0,0.0159789665405,0.0130494893414,0.00918790576077,1.0,0.0,0.0,0.0,1.0,0.0,0.0,0.0,1.0,0.028740234375,-0.304167480469,10.1620678711,0.1,0.0,0.0,0.0,0.1,0.0,0.0,0.0,0.1
1446034843074751612,46,1446034843073179006,robocape,0.0,0.0,0.0,0.0,10.0,0.0,0.0,0.0,10.0,0.0,0.0,0.0,10.0,0.0175768631945,0.0133158054504,0.00785632521573,1.0,0.0,0.0,0.0,1.0,0.0,0.0,0.0,1.0,0.0598754882813,-0.288599853516,10.1908081055,0.1,0.0,0.0,0.0,0.1,0.0,0.0,0.0,0.1
1446034843094842987,47,1446034843093172073,robocape,0.0,0.0,0.0,0.0,10.0,0.0,0.0,0.0,10.0,0.0,0.0,0.0,10.0,0.016112124595,0.0130494893414,0.0107858024148,1.0,0.0,0.0,0.0,1.0,0.0,0.0,0.0,1.0,0.0550854492188,-0.216749267578,10.1644628906,0.1,0.0,0.0,0.0,0.1,0.0,0.0,0.0,0.1
1446034843116890862,48,1446034843115091085,robocape,0.0,0.0,0.0,0.0,10.0,0.0,0.0,0.0,10.0,0.0,0.0,0.0,10.0,0.0106526443603,0.0114515926873,0.00798948327024,1.0,0.0,0.0,0.0,1.0,0.0,0.0,0.0,1.0,0.160466308594,-0.198786621094,10.1536853027,0.1,0.0,0.0,0.0,0.1,0.0,0.0,0.0,0.1
1446034843137531362,49,1446034843136069059,robocape,0.0,0.0,0.0,0.0,10.0,0.0,0.0,0.0,10.0,0.0,0.0,0.0,10.0,0.00386158358061,0.0133158054504,0.00759000910673,1.0,0.0,0.0,0.0,1.0,0.0,0.0,0.0,1.0,0.147293701172,-0.257464599609,10.1237475586,0.1,0.0,0.0,0.0,0.1,0.0,0.0,0.0,0.1
1446034843161760112,50,1446034843160254955,robocape,0.0,0.0,0.0,0.0,10.0,0.0,0.0,0.0,10.0,0.0,0.0,0.0,10.0,0.00119842249054,0.0119842249054,0.0101200121423,1.0,0.0,0.0,0.0,1.0,0.0,0.0,0.0,1.0,0.0227526855469,-0.270637207031,10.1333276367,0.1,0.0,0.0,0.0,0.1,0.0,0.0,0.0,0.1
1446034843176426737,51,1446034843174819946,robocape,0.0,0.0,0.0,0.0,10.0,0.0,0.0,0.0,10.0,0.0,0.0,0.0,10.0,0.0,0.0115847507418,0.0102531701968,1.0,0.0,0.0,0.0,1.0,0.0,0.0,0.0,1.0,0.05748046875,-0.2682421875,10.1225500488,0.1,0.0,0.0,0.0,0.1,0.0,0.0,0.0,0.1
1446034843198203487,52,1446034843196789026,robocape,0.0,0.0,0.0,0.0,10.0,0.0,0.0,0.0,10.0,0.0,0.0,0.0,10.0,0.000133158054504,0.0119842249054,0.00852211548825,1.0,0.0,0.0,0.0,1.0,0.0,0.0,0.0,1.0,0.0646655273438,-0.161663818359,10.1345251465,0.1,0.0,0.0,0.0,0.1,0.0,0.0,0.0,0.1
1446034843214761612,53,1446034843213176965,robocape,0.0,0.0,0.0,0.0,10.0,0.0,0.0,0.0,10.0,0.0,0.0,0.0,10.0,0.00186421276306,0.0121173829599,0.00972053797879,1.0,0.0,0.0,0.0,1.0,0.0,0.0,0.0,1.0,0.220341796875,-0.335302734375,10.1584753418,0.1,0.0,0.0,0.0,0.1,0.0,0.0,0.0,0.1
1446034843234689279,54,1446034843233262062,robocape,0.0,0.0,0.0,0.0,10.0,0.0,0.0,0.0,10.0,0.0,0.0,0.0,10.0,0.00705737688871,0.0131826473959,0.00719053494321,1.0,0.0,0.0,0.0,1.0,0.0,0.0,0.0,1.0,0.0203576660156,-0.368833007813,10.1656604004,0.1,0.0,0.0,0.0,0.1,0.0,0.0,0.0,0.1
1446034843257641112,55,1446034843255997896,robocape,0.0,0.0,0.0,0.0,10.0,0.0,0.0,0.0,10.0,0.0,0.0,0.0,10.0,0.0147805440499,0.0123836990689,0.0099868540878,1.0,0.0,0.0,0.0,1.0,0.0,0.0,0.0,1.0,-0.1149609375,-0.361647949219,10.1608703613,0.1,0.0,0.0,0.0,0.1,0.0,0.0,0.0,0.1
1446034843275285779,56,1446034843273484945,robocape,0.0,0.0,0.0,0.0,10.0,0.0,0.0,0.0,10.0,0.0,0.0,0.0,10.0,0.0214384467751,0.0142479118319,0.00785632521573,1.0,0.0,0.0,0.0,1.0,0.0,0.0,0.0,1.0,0.102985839844,-0.310155029297,10.0926123047,0.1,0.0,0.0,0.0,0.1,0.0,0.0,0.0,0.1
1446034843294726237,57,1446034843293298006,robocape,0.0,0.0,0.0,0.0,10.0,0.0,0.0,0.0,10.0,0.0,0.0,0.0,10.0,0.0226368692657,0.0138484376684,0.00825579937925,1.0,0.0,0.0,0.0,1.0,0.0,0.0,0.0,1.0,0.067060546875,-0.293389892578,10.1560803223,0.1,0.0,0.0,0.0,0.1,0.0,0.0,0.0,0.1
1446034843320201945,58,1446034843317224025,robocape,0.0,0.0,0.0,0.0,10.0,0.0,0.0,0.0,10.0,0.0,0.0,0.0,10.0,0.0195742340121,0.0135821215594,0.00785632521573,1.0,0.0,0.0,0.0,1.0,0.0,0.0,0.0,1.0,0.0407153320313,-0.253872070313,10.1285375977,0.1,0.0,0.0,0.0,0.1,0.0,0.0,0.0,0.1
1446034843334673070,59,1446034843333270072,robocape,0.0,0.0,0.0,0.0,10.0,0.0,0.0,0.0,10.0,0.0,0.0,0.0,10.0,0.0167779148675,0.0126500151779,0.00878843159726,1.0,0.0,0.0,0.0,1.0,0.0,0.0,0.0,1.0,0.0395178222656,-0.213156738281,10.1716479492,0.1,0.0,0.0,0.0,0.1,0.0,0.0,0.0,0.1
1446034843354504320,60,1446034843353101015,robocape,0.0,0.0,0.0,0.0,10.0,0.0,0.0,0.0,10.0,0.0,0.0,0.0,10.0,0.0125168571234,0.0125168571234,0.0106526443603,1.0,0.0,0.0,0.0,1.0,0.0,0.0,0.0,1.0,-0.00359252929688,-0.201181640625,10.1453027344,0.1,0.0,0.0,0.0,0.1,0.0,0.0,0.0,0.1
1446034843376626654,61,1446034843374711036,robocape,0.0,0.0,0.0,0.0,10.0,0.0,0.0,0.0,10.0,0.0,0.0,0.0,10.0,0.00279631914458,0.0121173829599,0.00972053797879,1.0,0.0,0.0,0.0,1.0,0.0,0.0,0.0,1.0,0.119750976563,-0.202379150391,10.1620678711,0.1,0.0,0.0,0.0,0.1,0.0,0.0,0.0,0.1
1446034843395814070,62,1446034843394340991,robocape,0.0,0.0,0.0,0.0,10.0,0.0,0.0,0.0,10.0,0.0,0.0,0.0,10.0,-0.00226368692657,0.0126500151779,0.00878843159726,1.0,0.0,0.0,0.0,1.0,0.0,0.0,0.0,1.0,-0.0155676269531,-0.215551757813,10.1476977539,0.1,0.0,0.0,0.0,0.1,0.0,0.0,0.0,0.1
1446034843414538987,63,1446034843413132905,robocape,0.0,0.0,0.0,0.0,10.0,0.0,0.0,0.0,10.0,0.0,0.0,0.0,10.0,-0.00772316716123,0.0111852765783,0.0113184346328,1.0,0.0,0.0,0.0,1.0,0.0,0.0,0.0,1.0,0.0562829589844,-0.290994873047,10.152487793,0.1,0.0,0.0,0.0,0.1,0.0,0.0,0.0,0.1
1446034843435241779,64,1446034843433360099,robocape,0.0,0.0,0.0,0.0,10.0,0.0,0.0,0.0,10.0,0.0,0.0,0.0,10.0,-0.0066579027252,0.0123836990689,0.00892158965177,1.0,0.0,0.0,0.0,1.0,0.0,0.0,0.0,1.0,0.0742456054688,-0.299377441406,10.1345251465,0.1,0.0,0.0,0.0,0.1,0.0,0.0,0.0,0.1
1446034843458091362,65,1446034843456630945,robocape,0.0,0.0,0.0,0.0,10.0,0.0,0.0,0.0,10.0,0.0,0.0,0.0,10.0,-0.00226368692657,0.0111852765783,0.00958737992429,1.0,0.0,0.0,0.0,1.0,0.0,0.0,0.0,1.0,0.0335302734375,-0.362845458984,10.1453027344,0.1,0.0,0.0,0.0,0.1,0.0,0.0,0.0,0.1
1446034843474654821,66,1446034843473247051,robocape,0.0,0.0,0.0,0.0,10.0,0.0,0.0,0.0,10.0,0.0,0.0,0.0,10.0,0.00412789968962,0.0118510668509,0.00985369603329,1.0,0.0,0.0,0.0,1.0,0.0,0.0,0.0,1.0,0.0586779785156,-0.362845458984,10.1381176758,0.1,0.0,0.0,0.0,0.1,0.0,0.0,0.0,0.1
1446034843494642737,67,1446034843493252992,robocape,0.0,0.0,0.0,0.0,10.0,0.0,0.0,0.0,10.0,0.0,0.0,0.0,10.0,0.0111852765783,0.0130494893414,0.00892158965177,1.0,0.0,0.0,0.0,1.0,0.0,0.0,0.0,1.0,0.0730480957031,-0.367635498047,10.1429077148,0.1,0.0,0.0,0.0,0.1,0.0,0.0,0.0,0.1
1446034843518065571,68,1446034843516546964,robocape,0.0,0.0,0.0,0.0,10.0,0.0,0.0,0.0,10.0,0.0,0.0,0.0,10.0,0.0183758115215,0.0129163312869,0.00812264132474,1.0,0.0,0.0,0.0,1.0,0.0,0.0,0.0,1.0,0.0431103515625,-0.337697753906,10.1512902832,0.1,0.0,0.0,0.0,0.1,0.0,0.0,0.0,0.1
1446034843534914237,69,1446034843533508062,robocape,0.0,0.0,0.0,0.0,10.0,0.0,0.0,0.0,10.0,0.0,0.0,0.0,10.0,0.0214384467751,0.0133158054504,0.00732369299772,1.0,0.0,0.0,0.0,1.0,0.0,0.0,0.0,1.0,0.0323327636719,-0.311352539063,10.1644628906,0.1,0.0,0.0,0.0,0.1,0.0,0.0,0.0,0.1
1446034843554467779,70,1446034843553040027,robocape,0.0,0.0,0.0,0.0,10.0,0.0,0.0,0.0,10.0,0.0,0.0,0.0,10.0,0.0230363434292,0.0130494893414,0.00878843159726,1.0,0.0,0.0,0.0,1.0,0.0,0.0,0.0,1.0,0.0179626464844,-0.283809814453,10.132130127,0.1,0.0,0.0,0.0,0.1,0.0,0.0,0.0,0.1
1446034843576749487,71,1446034843575098991,robocape,0.0,0.0,0.0,0.0,10.0,0.0,0.0,0.0,10.0,0.0,0.0,0.0,10.0,0.0186421276306,0.0122505410144,0.00838895743375,1.0,0.0,0.0,0.0,1.0,0.0,0.0,0.0,1.0,0.102985839844,-0.232316894531,10.1560803223,0.1,0.0,0.0,0.0,0.1,0.0,0.0,0.0,0.1
1446034843595514446,72,1446034843593996047,robocape,0.0,0.0,0.0,0.0,10.0,0.0,0.0,0.0,10.0,0.0,0.0,0.0,10.0,0.0154463343225,0.0126500151779,0.00812264132474,1.0,0.0,0.0,0.0,1.0,0.0,0.0,0.0,1.0,0.0275427246094,-0.202379150391,10.1381176758,0.1,0.0,0.0,0.0,0.1,0.0,0.0,0.0,0.1
1446034843614833529,73,1446034843613061904,robocape,0.0,0.0,0.0,0.0,10.0,0.0,0.0,0.0,10.0,0.0,0.0,0.0,10.0,0.00918790576077,0.0123836990689,0.00865527354276,1.0,0.0,0.0,0.0,1.0,0.0,0.0,0.0,1.0,-0.0419128417969,-0.227526855469,10.1584753418,0.1,0.0,0.0,0.0,0.1,0.0,0.0,0.0,0.1
1446034843634820904,74,1446034843633438110,robocape,0.0,0.0,0.0,0.0,10.0,0.0,0.0,0.0,10.0,0.0,0.0,0.0,10.0,0.00492684801665,0.0113184346328,0.0106526443603,1.0,0.0,0.0,0.0,1.0,0.0,0.0,0.0,1.0,0.0514929199219,-0.214354248047,10.1345251465,0.1,0.0,0.0,0.0,0.1,0.0,0.0,0.0,0.1
1446034843657024362,75,1446034843655606985,robocape,0.0,0.0,0.0,0.0,10.0,0.0,0.0,0.0,10.0,0.0,0.0,0.0,10.0,-0.00133158054504,0.0121173829599,0.00905474770627,1.0,0.0,0.0,0.0,1.0,0.0,0.0,0.0,1.0,0.05748046875,-0.228724365234,10.1381176758,0.1,0.0,0.0,0.0,0.1,0.0,0.0,0.0,0.1
1446034843674885196,76,1446034843673506021,robocape,0.0,0.0,0.0,0.0,10.0,0.0,0.0,0.0,10.0,0.0,0.0,0.0,10.0,-0.00439421579863,0.0101200121423,0.0109189604693,1.0,0.0,0.0,0.0,1.0,0.0,0.0,0.0,1.0,-0.00838256835938,-0.235909423828,10.1692529297,0.1,0.0,0.0,0.0,0.1,0.0,0.0,0.0,0.1
1446034843694953529,77,1446034843693162918,robocape,0.0,0.0,0.0,0.0,10.0,0.0,0.0,0.0,10.0,0.0,0.0,0.0,10.0,-0.00519316412565,0.0113184346328,0.00732369299772,1.0,0.0,0.0,0.0,1.0,0.0,0.0,0.0,1.0,0.0299377441406,-0.330512695313,10.157277832,0.1,0.0,0.0,0.0,0.1,0.0,0.0,0.0,0.1
1446034843717907779,78,1446034843716450929,robocape,0.0,0.0,0.0,0.0,10.0,0.0,0.0,0.0,10.0,0.0,0.0,0.0,10.0,0.000532632218016,0.0114515926873,0.0101200121423,1.0,0.0,0.0,0.0,1.0,0.0,0.0,0.0,1.0,-0.00598754882813,-0.343685302734,10.1596728516,0.1,0.0,0.0,0.0,0.1,0.0,0.0,0.0,0.1
1446034843734862321,79,1446034843733449935,robocape,0.0,0.0,0.0,0.0,10.0,0.0,0.0,0.0,10.0,0.0,0.0,0.0,10.0,0.00732369299772,0.0118510668509,0.00892158965177,1.0,0.0,0.0,0.0,1.0,0.0,0.0,0.0,1.0,0.0598754882813,-0.346080322266,10.1273400879,0.1,0.0,0.0,0.0,0.1,0.0,0.0,0.0,0.1
1446034843754575112,80,1446034843753228902,robocape,0.0,0.0,0.0,0.0,10.0,0.0,0.0,0.0,10.0,0.0,0.0,0.0,10.0,0.00985369603329,0.0129163312869,0.00852211548825,1.0,0.0,0.0,0.0,1.0,0.0,0.0,0.0,1.0,0.0850231933594,-0.3448828125,10.1453027344,0.1,0.0,0.0,0.0,0.1,0.0,0.0,0.0,0.1
1446034843780437029,81,1446034843777558088,robocape,0.0,0.0,0.0,0.0,10.0,0.0,0.0,0.0,10.0,0.0,0.0,0.0,10.0,0.0187752856851,0.0139815957229,0.00745685105222,1.0,0.0,0.0,0.0,1.0,0.0,0.0,0.0,1.0,0.0131726074219,-0.310155029297,10.1285375977,0.1,0.0,0.0,0.0,0.1,0.0,0.0,0.0,0.1
1446034843794786321,82,1446034843793323993,robocape,0.0,0.0,0.0,0.0,10.0,0.0,0.0,0.0,10.0,0.0,0.0,0.0,10.0,0.0217047628841,0.0141147537774,0.00732369299772,1.0,0.0,0.0,0.0,1.0,0.0,0.0,0.0,1.0,0.0239501953125,-0.331710205078,10.1680554199,0.1,0.0,0.0,0.0,0.1,0.0,0.0,0.0,0.1
1446034843814517404,83,1446034843813064098,robocape,0.0,0.0,0.0,0.0,10.0,0.0,0.0,0.0,10.0,0.0,0.0,0.0,10.0,0.0249005561922,0.0134489635049,0.00785632521573,1.0,0.0,0.0,0.0,1.0,0.0,0.0,0.0,1.0,-0.0850231933594,-0.253872070313,10.1740429688,0.1,0.0,0.0,0.0,0.1,0.0,0.0,0.0,0.1
1446034843836208571,84,1446034843834820032,robocape,0.0,0.0,0.0,0.0,10.0,0.0,0.0,0.0,10.0,0.0,0.0,0.0,10.0,0.0223705531567,0.0125168571234,0.00905474770627,1.0,0.0,0.0,0.0,1.0,0.0,0.0,0.0,1.0,0.0946032714844,-0.231119384766,10.1896105957,0.1,0.0,0.0,0.0,0.1,0.0,0.0,0.0,0.1
1446034843857056529,85,1446034843855576992,robocape,0.0,0.0,0.0,0.0,10.0,0.0,0.0,0.0,10.0,0.0,0.0,0.0,10.0,0.0126500151779,0.0138484376684,0.00759000910673,1.0,0.0,0.0,0.0,1.0,0.0,0.0,0.0,1.0,0.0634680175781,-0.185614013672,10.1512902832,0.1,0.0,0.0,0.0,0.1,0.0,0.0,0.0,0.1
1446034843874929404,86,1446034843873500108,robocape,0.0,0.0,0.0,0.0,10.0,0.0,0.0,0.0,10.0,0.0,0.0,0.0,10.0,0.00599211245268,0.0125168571234,0.00905474770627,1.0,0.0,0.0,0.0,1.0,0.0,0.0,0.0,1.0,-0.00598754882813,-0.197589111328,10.1644628906,0.1,0.0,0.0,0.0,0.1,0.0,0.0,0.0,0.1
1446034843894722237,87,1446034843893316984,robocape,0.0,0.0,0.0,0.0,10.0,0.0,0.0,0.0,10.0,0.0,0.0,0.0,10.0,-0.00066579027252,0.0109189604693,0.0117179087963,1.0,0.0,0.0,0.0,1.0,0.0,0.0,0.0,1.0,-0.0251477050781,-0.185614013672,10.1417102051,0.1,0.0,0.0,0.0,0.1,0.0,0.0,0.0,0.1
1446034843917359237,88,1446034843915932893,robocape,0.0,0.0,0.0,0.0,10.0,0.0,0.0,0.0,10.0,0.0,0.0,0.0,10.0,-0.00599211245268,0.0115847507418,0.00825579937925,1.0,0.0,0.0,0.0,1.0,0.0,0.0,0.0,1.0,0.0407153320313,-0.253872070313,10.2578686523,0.1,0.0,0.0,0.0,0.1,0.0,0.0,0.0,0.1
1446034843936060071,89,1446034843934644937,robocape,0.0,0.0,0.0,0.0,10.0,0.0,0.0,0.0,10.0,0.0,0.0,0.0,10.0,-0.0107858024148,0.0111852765783,0.0115847507418,1.0,0.0,0.0,0.0,1.0,0.0,0.0,0.0,1.0,0.0299377441406,-0.311352539063,10.1393151855,0.1,0.0,0.0,0.0,0.1,0.0,0.0,0.0,0.1
1446034843954906237,90,1446034843953162908,robocape,0.0,0.0,0.0,0.0,10.0,0.0,0.0,0.0,10.0,0.0,0.0,0.0,10.0,-0.00812264132474,0.0121173829599,0.00785632521573,1.0,0.0,0.0,0.0,1.0,0.0,0.0,0.0,1.0,0.0826281738281,-0.341290283203,10.1273400879,0.1,0.0,0.0,0.0,0.1,0.0,0.0,0.0,0.1
1446034843979216071,91,1446034843977627992,robocape,0.0,0.0,0.0,0.0,10.0,0.0,0.0,0.0,10.0,0.0,0.0,0.0,10.0,0.000932106381528,0.0130494893414,0.00972053797879,1.0,0.0,0.0,0.0,1.0,0.0,0.0,0.0,1.0,0.0922082519531,-0.420325927734,10.1500927734,0.1,0.0,0.0,0.0,0.1,0.0,0.0,0.0,0.1
1446034843994633571,92,1446034843993093013,robocape,0.0,0.0,0.0,0.0,10.0,0.0,0.0,0.0,10.0,0.0,0.0,0.0,10.0,0.0101200121423,0.0119842249054,0.00958737992429,1.0,0.0,0.0,0.0,1.0,0.0,0.0,0.0,1.0,0.0514929199219,-0.374820556641,10.1584753418,0.1,0.0,0.0,0.0,0.1,0.0,0.0,0.0,0.1
1446034844014793279,93,1446034844013117074,robocape,0.0,0.0,0.0,0.0,10.0,0.0,0.0,0.0,10.0,0.0,0.0,0.0,10.0,0.0194410759576,0.0131826473959,0.00838895743375,1.0,0.0,0.0,0.0,1.0,0.0,0.0,0.0,1.0,0.102985839844,-0.322130126953,10.1608703613,0.1,0.0,0.0,0.0,0.1,0.0,0.0,0.0,0.1
1446034844036551862,94,1446034844034878015,robocape,0.0,0.0,0.0,0.0,10.0,0.0,0.0,0.0,10.0,0.0,0.0,0.0,10.0,0.0235689756472,0.0138484376684,0.00639158661619,1.0,0.0,0.0,0.0,1.0,0.0,0.0,0.0,1.0,0.0562829589844,-0.335302734375,10.1500927734,0.1,0.0,0.0,0.0,0.1,0.0,0.0,0.0,0.1
1446034844055002737,95,1446034844053549051,robocape,0.0,0.0,0.0,0.0,10.0,0.0,0.0,0.0,10.0,0.0,0.0,0.0,10.0,0.0275637172823,0.0142479118319,0.00719053494321,1.0,0.0,0.0,0.0,1.0,0.0,0.0,0.0,1.0,-0.028740234375,-0.314945068359,10.2027832031,0.1,0.0,0.0,0.0,0.1,0.0,0.0,0.0,0.1
1446034844074560862,96,1446034844073170900,robocape,0.0,0.0,0.0,0.0,10.0,0.0,0.0,0.0,10.0,0.0,0.0,0.0,10.0,0.0284958236638,0.0117179087963,0.0113184346328,1.0,0.0,0.0,0.0,1.0,0.0,0.0,0.0,1.0,-0.00119750976563,-0.201181640625,10.1177600098,0.1,0.0,0.0,0.0,0.1,0.0,0.0,0.0,0.1
1446034844095036737,97,1446034844093255043,robocape,0.0,0.0,0.0,0.0,10.0,0.0,0.0,0.0,10.0,0.0,0.0,0.0,10.0,0.0175768631945,0.0125168571234,0.00878843159726,1.0,0.0,0.0,0.0,1.0,0.0,0.0,0.0,1.0,0.01916015625,-0.138911132813,10.1237475586,0.1,0.0,0.0,0.0,0.1,0.0,0.0,0.0,0.1
1446034844117031071,98,1446034844115405082,robocape,0.0,0.0,0.0,0.0,10.0,0.0,0.0,0.0,10.0,0.0,0.0,0.0,10.0,0.00119842249054,0.0133158054504,0.00825579937925,1.0,0.0,0.0,0.0,1.0,0.0,0.0,0.0,1.0,0.0802331542969,-0.106578369141,10.1405126953,0.1,0.0,0.0,0.0,0.1,0.0,0.0,0.0,0.1
1446034844134770363,99,1446034844133332014,robocape,0.0,0.0,0.0,0.0,10.0,0.0,0.0,0.0,10.0,0.0,0.0,0.0,10.0,-0.00399474163512,0.0123836990689,0.00958737992429,1.0,0.0,0.0,0.0,1.0,0.0,0.0,0.0,1.0,-0.0514929199219,-0.232316894531,10.1668579102,0.1,0.0,0.0,0.0,0.1,0.0,0.0,0.0,0.1
1446034844159075738,100,1446034844157556056,robocape,0.0,0.0,0.0,0.0,10.0,0.0,0.0,0.0,10.0,0.0,0.0,0.0,10.0,-0.00759000910673,0.0107858024148,0.0131826473959,1.0,0.0,0.0,0.0,1.0,0.0,0.0,0.0,1.0,-0.00718505859375,-0.270637207031,10.152487793,0.1,0.0,0.0,0.0,0.1,0.0,0.0,0.0,0.1
1446034844180602029,101,1446034844179203987,robocape,0.0,0.0,0.0,0.0,10.0,0.0,0.0,0.0,10.0,0.0,0.0,0.0,10.0,-0.00838895743375,0.0115847507418,0.0103863282513,1.0,0.0,0.0,0.0,1.0,0.0,0.0,0.0,1.0,0.150886230469,-0.275427246094,10.1141674805,0.1,0.0,0.0,0.0,0.1,0.0,0.0,0.0,0.1
1446034844195228654,102,1446034844193814992,robocape,0.0,0.0,0.0,0.0,10.0,0.0,0.0,0.0,10.0,0.0,0.0,0.0,10.0,-0.00852211548825,0.0123836990689,0.00905474770627,1.0,0.0,0.0,0.0,1.0,0.0,0.0,0.0,1.0,0.156873779297,-0.322130126953,10.1213525391,0.1,0.0,0.0,0.0,0.1,0.0,0.0,0.0,0.1
1446034844214917071,103,1446034844213129997,robocape,0.0,0.0,0.0,0.0,10.0,0.0,0.0,0.0,10.0,0.0,0.0,0.0,10.0,-0.00159789665405,0.0119842249054,0.00732369299772,1.0,0.0,0.0,0.0,1.0,0.0,0.0,0.0,1.0,-0.00838256835938,-0.40236328125,10.1333276367,0.1,0.0,0.0,0.0,0.1,0.0,0.0,0.0,0.1
1446034844241031738,104,1446034844237941980,robocape,0.0,0.0,0.0,0.0,10.0,0.0,0.0,0.0,10.0,0.0,0.0,0.0,10.0,0.00599211245268,0.0113184346328,0.0106526443603,1.0,0.0,0.0,0.0,1.0,0.0,0.0,0.0,1.0,-0.0203576660156,-0.404758300781,10.1273400879,0.1,0.0,0.0,0.0,0.1,0.0,0.0,0.0,0.1
1446034844254653363,105,1446034844253238916,robocape,0.0,0.0,0.0,0.0,10.0,0.0,0.0,0.0,10.0,0.0,0.0,0.0,10.0,0.0159789665405,0.0123836990689,0.00932106381528,1.0,0.0,0.0,0.0,1.0,0.0,0.0,0.0,1.0,0.125738525391,-0.3448828125,10.1261425781,0.1,0.0,0.0,0.0,0.1,0.0,0.0,0.0,0.1
1446034844274972404,106,1446034844273287057,robocape,0.0,0.0,0.0,0.0,10.0,0.0,0.0,0.0,10.0,0.0,0.0,0.0,10.0,0.0189084437396,0.0131826473959,0.00745685105222,1.0,0.0,0.0,0.0,1.0,0.0,0.0,0.0,1.0,0.0826281738281,-0.324525146484,10.136920166,0.1,0.0,0.0,0.0,0.1,0.0,0.0,0.0,0.1
1446034844295554029,107,1446034844293679952,robocape,0.0,0.0,0.0,0.0,10.0,0.0,0.0,0.0,10.0,0.0,0.0,0.0,10.0,0.0221042370477,0.0130494893414,0.00798948327024,1.0,0.0,0.0,0.0,1.0,0.0,0.0,0.0,1.0,0.0311352539063,-0.2682421875,10.132130127,0.1,0.0,0.0,0.0,0.1,0.0,0.0,0.0,0.1
1446034844315195529,108,1446034844313777923,robocape,0.0,0.0,0.0,0.0,10.0,0.0,0.0,0.0,10.0,0.0,0.0,0.0,10.0,0.0209058145571,0.0127831732324,0.00865527354276,1.0,0.0,0.0,0.0,1.0,0.0,0.0,0.0,1.0,0.0694555664063,-0.246687011719,10.1417102051,0.1,0.0,0.0,0.0,0.1,0.0,0.0,0.0,0.1
1446034844335255321,109,1446034844333427906,robocape,0.0,0.0,0.0,0.0,10.0,0.0,0.0,0.0,10.0,0.0,0.0,0.0,10.0,0.0146473859954,0.0131826473959,0.00838895743375,1.0,0.0,0.0,0.0,1.0,0.0,0.0,0.0,1.0,0.107775878906,-0.237106933594,10.1465002441,0.1,0.0,0.0,0.0,0.1,0.0,0.0,0.0,0.1
1446034844354872946,110,1446034844353086948,robocape,0.0,0.0,0.0,0.0,10.0,0.0,0.0,0.0,10.0,0.0,0.0,0.0,10.0,0.0113184346328,0.0129163312869,0.00772316716123,1.0,0.0,0.0,0.0,1.0,0.0,0.0,0.0,1.0,0.0047900390625,-0.24908203125,10.1465002441,0.1,0.0,0.0,0.0,0.1,0.0,0.0,0.0,0.1
1446034844378316779,111,1446034844376838922,robocape,0.0,0.0,0.0,0.0,10.0,0.0,0.0,0.0,10.0,0.0,0.0,0.0,10.0,0.00732369299772,0.0122505410144,0.00972053797879,1.0,0.0,0.0,0.0,1.0,0.0,0.0,0.0,1.0,0.0131726074219,-0.239501953125,10.1548828125,0.1,0.0,0.0,0.0,0.1,0.0,0.0,0.0,0.1
1446034844394631946,112,1446034844393233060,robocape,0.0,0.0,0.0,0.0,10.0,0.0,0.0,0.0,10.0,0.0,0.0,0.0,10.0,0.00572579634367,0.0107858024148,0.0101200121423,1.0,0.0,0.0,0.0,1.0,0.0,0.0,0.0,1.0,0.165256347656,-0.219144287109,10.1237475586,0.1,0.0,0.0,0.0,0.1,0.0,0.0,0.0,0.1
1446034844415055571,113,1446034844413362979,robocape,0.0,0.0,0.0,0.0,10.0,0.0,0.0,0.0,10.0,0.0,0.0,0.0,10.0,0.00199737081756,0.0122505410144,0.0066579027252,1.0,0.0,0.0,0.0,1.0,0.0,0.0,0.0,1.0,0.0694555664063,-0.285007324219,10.1465002441,0.1,0.0,0.0,0.0,0.1,0.0,0.0,0.0,0.1
1446034844438072321,114,1446034844436538934,robocape,0.0,0.0,0.0,0.0,10.0,0.0,0.0,0.0,10.0,0.0,0.0,0.0,10.0,0.0033289513626,0.0113184346328,0.00945422186978,1.0,0.0,0.0,0.0,1.0,0.0,0.0,0.0,1.0,-0.0371228027344,-0.316142578125,10.1429077148,0.1,0.0,0.0,0.0,0.1,0.0,0.0,0.0,0.1
1446034844454738446,115,1446034844453177928,robocape,0.0,0.0,0.0,0.0,10.0,0.0,0.0,0.0,10.0,0.0,0.0,0.0,10.0,0.0066579027252,0.0111852765783,0.00972053797879,1.0,0.0,0.0,0.0,1.0,0.0,0.0,0.0,1.0,0.0742456054688,-0.299377441406,10.1465002441,0.1,0.0,0.0,0.0,0.1,0.0,0.0,0.0,0.1
1446034844474815113,116,1446034844473351955,robocape,0.0,0.0,0.0,0.0,10.0,0.0,0.0,0.0,10.0,0.0,0.0,0.0,10.0,0.00719053494321,0.0121173829599,0.00838895743375,1.0,0.0,0.0,0.0,1.0,0.0,0.0,0.0,1.0,0.119750976563,-0.302969970703,10.1692529297,0.1,0.0,0.0,0.0,0.1,0.0,0.0,0.0,0.1
1446034844496434863,117,1446034844494843959,robocape,0.0,0.0,0.0,0.0,10.0,0.0,0.0,0.0,10.0,0.0,0.0,0.0,10.0,0.0111852765783,0.0138484376684,0.00719053494321,1.0,0.0,0.0,0.0,1.0,0.0,0.0,0.0,1.0,0.0622705078125,-0.324525146484,10.1704504395,0.1,0.0,0.0,0.0,0.1,0.0,0.0,0.0,0.1
1446034844515181279,118,1446034844513703107,robocape,0.0,0.0,0.0,0.0,10.0,0.0,0.0,0.0,10.0,0.0,0.0,0.0,10.0,0.0135821215594,0.0126500151779,0.00945422186978,1.0,0.0,0.0,0.0,1.0,0.0,0.0,0.0,1.0,0.00119750976563,-0.319735107422,10.1608703613,0.1,0.0,0.0,0.0,0.1,0.0,0.0,0.0,0.1
1446034844534715988,119,1446034844533241033,robocape,0.0,0.0,0.0,0.0,10.0,0.0,0.0,0.0,10.0,0.0,0.0,0.0,10.0,0.016911072922,0.0119842249054,0.00812264132474,1.0,0.0,0.0,0.0,1.0,0.0,0.0,0.0,1.0,-0.0826281738281,-0.261057128906,10.1237475586,0.1,0.0,0.0,0.0,0.1,0.0,0.0,0.0,0.1
1446034844554841529,120,1446034844553040981,robocape,0.0,0.0,0.0,0.0,10.0,0.0,0.0,0.0,10.0,0.0,0.0,0.0,10.0,0.0141147537774,0.0126500151779,0.00918790576077,1.0,0.0,0.0,0.0,1.0,0.0,0.0,0.0,1.0,0.0874182128906,-0.209564208984,10.1596728516,0.1,0.0,0.0,0.0,0.1,0.0,0.0,0.0,0.1
1446034844577885988,121,1446034844576478958,robocape,0.0,0.0,0.0,0.0,10.0,0.0,0.0,0.0,10.0,0.0,0.0,0.0,10.0,0.00918790576077,0.0131826473959,0.00732369299772,1.0,0.0,0.0,0.0,1.0,0.0,0.0,0.0,1.0,0.0526904296875,-0.217946777344,10.1560803223,0.1,0.0,0.0,0.0,0.1,0.0,0.0,0.0,0.1
1446034844594815196,122,1446034844593127012,robocape,0.0,0.0,0.0,0.0,10.0,0.0,0.0,0.0,10.0,0.0,0.0,0.0,10.0,0.00492684801665,0.0127831732324,0.00878843159726,1.0,0.0,0.0,0.0,1.0,0.0,0.0,0.0,1.0,-0.0718505859375,-0.277822265625,10.1836230469,0.1,0.0,0.0,0.0,0.1,0.0,0.0,0.0,0.1
1446034844615059279,123,1446034844613264083,robocape,0.0,0.0,0.0,0.0,10.0,0.0,0.0,0.0,10.0,0.0,0.0,0.0,10.0,0.00253000303558,0.0117179087963,0.0119842249054,1.0,0.0,0.0,0.0,1.0,0.0,0.0,0.0,1.0,0.05748046875,-0.234711914063,10.1441052246,0.1,0.0,0.0,0.0,0.1,0.0,0.0,0.0,0.1
1446034844637811738,124,1446034844636404037,robocape,0.0,0.0,0.0,0.0,10.0,0.0,0.0,0.0,10.0,0.0,0.0,0.0,10.0,-0.000532632218016,0.0118510668509,0.00892158965177,1.0,0.0,0.0,0.0,1.0,0.0,0.0,0.0,1.0,0.152083740234,-0.235909423828,10.1476977539,0.1,0.0,0.0,0.0,0.1,0.0,0.0,0.0,0.1
1446034844654690571,125,1446034844653250932,robocape,0.0,0.0,0.0,0.0,10.0,0.0,0.0,0.0,10.0,0.0,0.0,0.0,10.0,-0.00306263525359,0.0125168571234,0.00852211548825,1.0,0.0,0.0,0.0,1.0,0.0,0.0,0.0,1.0,0.067060546875,-0.307760009766,10.1476977539,0.1,0.0,0.0,0.0,0.1,0.0,0.0,0.0,0.1
1446034844675297696,126,1446034844673491954,robocape,0.0,0.0,0.0,0.0,10.0,0.0,0.0,0.0,10.0,0.0,0.0,0.0,10.0,-0.000133158054504,0.0118510668509,0.00719053494321,1.0,0.0,0.0,0.0,1.0,0.0,0.0,0.0,1.0,-0.0251477050781,-0.382005615234,10.1560803223,0.1,0.0,0.0,0.0,0.1,0.0,0.0,0.0,0.1
1446034844699830613,127,1446034844697537899,robocape,0.0,0.0,0.0,0.0,10.0,0.0,0.0,0.0,10.0,0.0,0.0,0.0,10.0,0.00958737992429,0.0125168571234,0.00972053797879,1.0,0.0,0.0,0.0,1.0,0.0,0.0,0.0,1.0,-0.0143701171875,-0.374820556641,10.1453027344,0.1,0.0,0.0,0.0,0.1,0.0,0.0,0.0,0.1
1446034844714681279,128,1446034844713248014,robocape,0.0,0.0,0.0,0.0,10.0,0.0,0.0,0.0,10.0,0.0,0.0,0.0,10.0,0.0150468601589,0.0127831732324,0.00732369299772,1.0,0.0,0.0,0.0,1.0,0.0,0.0,0.0,1.0,0.0874182128906,-0.360450439453,10.1297351074,0.1,0.0,0.0,0.0,0.1,0.0,0.0,0.0,0.1
1446034844734637196,129,1446034844733205080,robocape,0.0,0.0,0.0,0.0,10.0,0.0,0.0,0.0,10.0,0.0,0.0,0.0,10.0,0.0207726565026,0.0139815957229,0.00705737688871,1.0,0.0,0.0,0.0,1.0,0.0,0.0,0.0,1.0,0.0898132324219,-0.316142578125,10.1465002441,0.1,0.0,0.0,0.0,0.1,0.0,0.0,0.0,0.1
1446034844756376279,130,1446034844754463911,robocape,0.0,0.0,0.0,0.0,10.0,0.0,0.0,0.0,10.0,0.0,0.0,0.0,10.0,0.0239684498107,0.0135821215594,0.00759000910673,1.0,0.0,0.0,0.0,1.0,0.0,0.0,0.0,1.0,0.0119750976563,-0.299377441406,10.1429077148,0.1,0.0,0.0,0.0,0.1,0.0,0.0,0.0,0.1
1446034844776673738,131,1446034844775084018,robocape,0.0,0.0,0.0,0.0,10.0,0.0,0.0,0.0,10.0,0.0,0.0,0.0,10.0,0.0239684498107,0.0127831732324,0.00878843159726,1.0,0.0,0.0,0.0,1.0,0.0,0.0,0.0,1.0,0.0562829589844,-0.264649658203,10.1584753418,0.1,0.0,0.0,0.0,0.1,0.0,0.0,0.0,0.1
1446034844794932988,132,1446034844793144941,robocape,0.0,0.0,0.0,0.0,10.0,0.0,0.0,0.0,10.0,0.0,0.0,0.0,10.0,0.0211721306661,0.0150468601589,0.00745685105222,1.0,0.0,0.0,0.0,1.0,0.0,0.0,0.0,1.0,-0.0706530761719,-0.233514404297,10.177635498,0.1,0.0,0.0,0.0,0.1,0.0,0.0,0.0,0.1
1446034844814692113,133,1446034844813270092,robocape,0.0,0.0,0.0,0.0,10.0,0.0,0.0,0.0,10.0,0.0,0.0,0.0,10.0,0.0126500151779,0.0131826473959,0.0106526443603,1.0,0.0,0.0,0.0,1.0,0.0,0.0,0.0,1.0,0.0419128417969,-0.189206542969,10.1620678711,0.1,0.0,0.0,0.0,0.1,0.0,0.0,0.0,0.1
1446034844837099905,134,1446034844835670948,robocape,0.0,0.0,0.0,0.0,10.0,0.0,0.0,0.0,10.0,0.0,0.0,0.0,10.0,0.00292947719909,0.0133158054504,0.00798948327024,1.0,0.0,0.0,0.0,1.0,0.0,0.0,0.0,1.0,0.0934057617188,-0.179626464844,10.1476977539,0.1,0.0,0.0,0.0,0.1,0.0,0.0,0.0,0.1
1446034844854851030,135,1446034844853072881,robocape,0.0,0.0,0.0,0.0,10.0,0.0,0.0,0.0,10.0,0.0,0.0,0.0,10.0,-0.00399474163512,0.0125168571234,0.0101200121423,1.0,0.0,0.0,0.0,1.0,0.0,0.0,0.0,1.0,0.0467028808594,-0.237106933594,10.1704504395,0.1,0.0,0.0,0.0,0.1,0.0,0.0,0.0,0.1
1446034844875807113,136,1446034844874438047,robocape,0.0,0.0,0.0,0.0,10.0,0.0,0.0,0.0,10.0,0.0,0.0,0.0,10.0,-0.00838895743375,0.0114515926873,0.0106526443603,1.0,0.0,0.0,0.0,1.0,0.0,0.0,0.0,1.0,0.0155676269531,-0.240699462891,10.1285375977,0.1,0.0,0.0,0.0,0.1,0.0,0.0,0.0,0.1
1446034844899156905,137,1446034844897785902,robocape,0.0,0.0,0.0,0.0,10.0,0.0,0.0,0.0,10.0,0.0,0.0,0.0,10.0,-0.0101200121423,0.0105194863058,0.0101200121423,1.0,0.0,0.0,0.0,1.0,0.0,0.0,0.0,1.0,0.0586779785156,-0.293389892578,10.1429077148,0.1,0.0,0.0,0.0,0.1,0.0,0.0,0.0,0.1
1446034844914528780,138,1446034844912972927,robocape,0.0,0.0,0.0,0.0,10.0,0.0,0.0,0.0,10.0,0.0,0.0,0.0,10.0,-0.00918790576077,0.0109189604693,0.00985369603329,1.0,0.0,0.0,0.0,1.0,0.0,0.0,0.0,1.0,0.05748046875,-0.311352539063,10.1105749512,0.1,0.0,0.0,0.0,0.1,0.0,0.0,0.0,0.1
1446034844935445655,139,1446034844933976888,robocape,0.0,0.0,0.0,0.0,10.0,0.0,0.0,0.0,10.0,0.0,0.0,0.0,10.0,-0.00359526747161,0.0118510668509,0.00945422186978,1.0,0.0,0.0,0.0,1.0,0.0,0.0,0.0,1.0,0.0538879394531,-0.367635498047,10.1345251465,0.1,0.0,0.0,0.0,0.1,0.0,0.0,0.0,0.1
1446034844956526280,140,1446034844954817056,robocape,0.0,0.0,0.0,0.0,10.0,0.0,0.0,0.0,10.0,0.0,0.0,0.0,10.0,0.00439421579863,0.0121173829599,0.00838895743375,1.0,0.0,0.0,0.0,1.0,0.0,0.0,0.0,1.0,0.0323327636719,-0.437091064453,10.132130127,0.1,0.0,0.0,0.0,0.1,0.0,0.0,0.0,0.1
1446034844975467946,141,1446034844973989009,robocape,0.0,0.0,0.0,0.0,10.0,0.0,0.0,0.0,10.0,0.0,0.0,0.0,10.0,0.0167779148675,0.0123836990689,0.00932106381528,1.0,0.0,0.0,0.0,1.0,0.0,0.0,0.0,1.0,0.0359252929688,-0.409548339844,10.1656604004,0.1,0.0,0.0,0.0,0.1,0.0,0.0,0.0,0.1
1446034844994767571,142,1446034844993407964,robocape,0.0,0.0,0.0,0.0,10.0,0.0,0.0,0.0,10.0,0.0,0.0,0.0,10.0,0.0249005561922,0.0147805440499,0.00785632521573,1.0,0.0,0.0,0.0,1.0,0.0,0.0,0.0,1.0,-0.0371228027344,-0.350870361328,10.172845459,0.1,0.0,0.0,0.0,0.1,0.0,0.0,0.0,0.1
1446034845014695030,143,1446034845013016939,robocape,0.0,0.0,0.0,0.0,10.0,0.0,0.0,0.0,10.0,0.0,0.0,0.0,10.0,0.0280963495003,0.0143810698864,0.0101200121423,1.0,0.0,0.0,0.0,1.0,0.0,0.0,0.0,1.0,0.102985839844,-0.276624755859,10.1249450684,0.1,0.0,0.0,0.0,0.1,0.0,0.0,0.0,0.1
1446034845038505280,144,1446034845036993026,robocape,0.0,0.0,0.0,0.0,10.0,0.0,0.0,0.0,10.0,0.0,0.0,0.0,10.0,0.0235689756472,0.0143810698864,0.00652474467069,1.0,0.0,0.0,0.0,1.0,0.0,0.0,0.0,1.0,0.107775878906,-0.231119384766,10.132130127,0.1,0.0,0.0,0.0,0.1,0.0,0.0,0.0,0.1
1446034845054432196,145,1446034845053049087,robocape,0.0,0.0,0.0,0.0,10.0,0.0,0.0,0.0,10.0,0.0,0.0,0.0,10.0,0.0193079179031,0.0137152796139,0.00732369299772,1.0,0.0,0.0,0.0,1.0,0.0,0.0,0.0,1.0,0.0263452148438,-0.215551757813,10.1536853027,0.1,0.0,0.0,0.0,0.1,0.0,0.0,0.0,0.1
1446034845074912196,146,1446034845073555946,robocape,0.0,0.0,0.0,0.0,10.0,0.0,0.0,0.0,10.0,0.0,0.0,0.0,10.0,0.016112124595,0.0115847507418,0.0107858024148,1.0,0.0,0.0,0.0,1.0,0.0,0.0,0.0,1.0,-0.0131726074219,-0.168848876953,10.1393151855,0.1,0.0,0.0,0.0,0.1,0.0,0.0,0.0,0.1
1446034845097760571,147,1446034845096354961,robocape,0.0,0.0,0.0,0.0,10.0,0.0,0.0,0.0,10.0,0.0,0.0,0.0,10.0,0.00412789968962,0.0107858024148,0.0107858024148,1.0,0.0,0.0,0.0,1.0,0.0,0.0,0.0,1.0,0.0143701171875,-0.143701171875,10.1441052246,0.1,0.0,0.0,0.0,0.1,0.0,0.0,0.0,0.1
1446034845114827321,148,1446034845113078117,robocape,0.0,0.0,0.0,0.0,10.0,0.0,0.0,0.0,10.0,0.0,0.0,0.0,10.0,-0.0031957933081,0.0110521185238,0.00852211548825,1.0,0.0,0.0,0.0,1.0,0.0,0.0,0.0,1.0,0.149688720703,-0.164058837891,10.152487793,0.1,0.0,0.0,0.0,0.1,0.0,0.0,0.0,0.1
1446034845135072280,149,1446034845133630990,robocape,0.0,0.0,0.0,0.0,10.0,0.0,0.0,0.0,10.0,0.0,0.0,0.0,10.0,-0.00652474467069,0.0109189604693,0.00772316716123,1.0,0.0,0.0,0.0,1.0,0.0,0.0,0.0,1.0,-0.086220703125,-0.324525146484,10.1488952637,0.1,0.0,0.0,0.0,0.1,0.0,0.0,0.0,0.1
1446034845158457655,150,1446034845156918048,robocape,0.0,0.0,0.0,0.0,10.0,0.0,0.0,0.0,10.0,0.0,0.0,0.0,10.0,-0.00492684801665,0.0102531701968,0.0129163312869,1.0,0.0,0.0,0.0,1.0,0.0,0.0,0.0,1.0,-0.0167651367188,-0.331710205078,10.1536853027,0.1,0.0,0.0,0.0,0.1,0.0,0.0,0.0,0.1
1446034845177658030,151,1446034845176093101,robocape,0.0,0.0,0.0,0.0,10.0,0.0,0.0,0.0,10.0,0.0,0.0,0.0,10.0,-0.00133158054504,0.0106526443603,0.00985369603329,1.0,0.0,0.0,0.0,1.0,0.0,0.0,0.0,1.0,0.184416503906,-0.290994873047,10.100994873,0.1,0.0,0.0,0.0,0.1,0.0,0.0,0.0,0.1
1446034845194773571,152,1446034845193315029,robocape,0.0,0.0,0.0,0.0,10.0,0.0,0.0,0.0,10.0,0.0,0.0,0.0,10.0,-0.000532632218016,0.0127831732324,0.00639158661619,1.0,0.0,0.0,0.0,1.0,0.0,0.0,0.0,1.0,0.0874182128906,-0.360450439453,10.1285375977,0.1,0.0,0.0,0.0,0.1,0.0,0.0,0.0,0.1
1446034845215316863,153,1446034845213387966,robocape,0.0,0.0,0.0,0.0,10.0,0.0,0.0,0.0,10.0,0.0,0.0,0.0,10.0,0.00852211548825,0.0127831732324,0.00759000910673,1.0,0.0,0.0,0.0,1.0,0.0,0.0,0.0,1.0,-0.0850231933594,-0.379610595703,10.1500927734,0.1,0.0,0.0,0.0,0.1,0.0,0.0,0.0,0.1
1446034845235436238,154,1446034845234019994,robocape,0.0,0.0,0.0,0.0,10.0,0.0,0.0,0.0,10.0,0.0,0.0,0.0,10.0,0.0150468601589,0.0126500151779,0.00958737992429,1.0,0.0,0.0,0.0,1.0,0.0,0.0,0.0,1.0,0.0526904296875,-0.361647949219,10.1081799316,0.1,0.0,0.0,0.0,0.1,0.0,0.0,0.0,0.1
1446034845254555446,155,1446034845253211975,robocape,0.0,0.0,0.0,0.0,10.0,0.0,0.0,0.0,10.0,0.0,0.0,0.0,10.0,0.0201068662301,0.0121173829599,0.00812264132474,1.0,0.0,0.0,0.0,1.0,0.0,0.0,0.0,1.0,0.0946032714844,-0.267044677734,10.0950073242,0.1,0.0,0.0,0.0,0.1,0.0,0.0,0.0,0.1
1446034845274719321,156,1446034845273211002,robocape,0.0,0.0,0.0,0.0,10.0,0.0,0.0,0.0,10.0,0.0,0.0,0.0,10.0,0.0186421276306,0.0131826473959,0.00612527050718,1.0,0.0,0.0,0.0,1.0,0.0,0.0,0.0,1.0,0.0778381347656,-0.270637207031,10.1716479492,0.1,0.0,0.0,0.0,0.1,0.0,0.0,0.0,0.1
1446034845297433280,157,1446034845295957088,robocape,0.0,0.0,0.0,0.0,10.0,0.0,0.0,0.0,10.0,0.0,0.0,0.0,10.0,0.0175768631945,0.0135821215594,0.00732369299772,1.0,0.0,0.0,0.0,1.0,0.0,0.0,0.0,1.0,-0.009580078125,-0.237106933594,10.1668579102,0.1,0.0,0.0,0.0,0.1,0.0,0.0,0.0,0.1
1446034845314605030,158,1446034845313230991,robocape,0.0,0.0,0.0,0.0,10.0,0.0,0.0,0.0,10.0,0.0,0.0,0.0,10.0,0.015313176268,0.0122505410144,0.00958737992429,1.0,0.0,0.0,0.0,1.0,0.0,0.0,0.0,1.0,0.0335302734375,-0.207169189453,10.1608703613,0.1,0.0,0.0,0.0,0.1,0.0,0.0,0.0,0.1
1446034845334884405,159,1446034845333487033,robocape,0.0,0.0,0.0,0.0,10.0,0.0,0.0,0.0,10.0,0.0,0.0,0.0,10.0,0.00812264132474,0.0122505410144,0.00878843159726,1.0,0.0,0.0,0.0,1.0,0.0,0.0,0.0,1.0,0.117355957031,-0.185614013672,10.1536853027,0.1,0.0,0.0,0.0,0.1,0.0,0.0,0.0,0.1
1446034845359887071,160,1446034845358412981,robocape,0.0,0.0,0.0,0.0,10.0,0.0,0.0,0.0,10.0,0.0,0.0,0.0,10.0,0.000798948327024,0.0127831732324,0.00892158965177,1.0,0.0,0.0,0.0,1.0,0.0,0.0,0.0,1.0,0.0467028808594,-0.227526855469,10.1476977539,0.1,0.0,0.0,0.0,0.1,0.0,0.0,0.0,0.1
1446034845375541196,161,1446034845374048948,robocape,0.0,0.0,0.0,0.0,10.0,0.0,0.0,0.0,10.0,0.0,0.0,0.0,10.0,-0.00159789665405,0.00892158965177,0.0101200121423,1.0,0.0,0.0,0.0,1.0,0.0,0.0,0.0,1.0,0.138911132813,-0.263452148438,10.1141674805,0.1,0.0,0.0,0.0,0.1,0.0,0.0,0.0,0.1
1446034845394868280,162,1446034845393488883,robocape,0.0,0.0,0.0,0.0,10.0,0.0,0.0,0.0,10.0,0.0,0.0,0.0,10.0,-0.00239684498107,0.0109189604693,0.0066579027252,1.0,0.0,0.0,0.0,1.0,0.0,0.0,0.0,1.0,0.028740234375,-0.340092773437,10.1512902832,0.1,0.0,0.0,0.0,0.1,0.0,0.0,0.0,0.1
1446034845416413530,163,1446034845414841890,robocape,0.0,0.0,0.0,0.0,10.0,0.0,0.0,0.0,10.0,0.0,0.0,0.0,10.0,0.00159789665405,0.0119842249054,0.00905474770627,1.0,0.0,0.0,0.0,1.0,0.0,0.0,0.0,1.0,-0.0119750976563,-0.355660400391,10.152487793,0.1,0.0,0.0,0.0,0.1,0.0,0.0,0.0,0.1
1446034845435514696,164,1446034845434106111,robocape,0.0,0.0,0.0,0.0,10.0,0.0,0.0,0.0,10.0,0.0,0.0,0.0,10.0,0.00732369299772,0.0118510668509,0.00772316716123,1.0,0.0,0.0,0.0,1.0,0.0,0.0,0.0,1.0,0.0275427246094,-0.358055419922,10.152487793,0.1,0.0,0.0,0.0,0.1,0.0,0.0,0.0,0.1
1446034845454753821,165,1446034845453007936,robocape,0.0,0.0,0.0,0.0,10.0,0.0,0.0,0.0,10.0,0.0,0.0,0.0,10.0,0.0122505410144,0.0123836990689,0.00865527354276,1.0,0.0,0.0,0.0,1.0,0.0,0.0,0.0,1.0,0.0814306640625,-0.335302734375,10.1441052246,0.1,0.0,0.0,0.0,0.1,0.0,0.0,0.0,0.1
1446034845475726030,166,1446034845474349975,robocape,0.0,0.0,0.0,0.0,10.0,0.0,0.0,0.0,10.0,0.0,0.0,0.0,10.0,0.0165115987585,0.0130494893414,0.00759000910673,1.0,0.0,0.0,0.0,1.0,0.0,0.0,0.0,1.0,0.0431103515625,-0.296982421875,10.1417102051,0.1,0.0,0.0,0.0,0.1,0.0,0.0,0.0,0.1
1446034845497429530,167,1446034845495937108,robocape,0.0,0.0,0.0,0.0,10.0,0.0,0.0,0.0,10.0,0.0,0.0,0.0,10.0,0.0190416017941,0.0130494893414,0.00812264132474,1.0,0.0,0.0,0.0,1.0,0.0,0.0,0.0,1.0,0.0131726074219,-0.302969970703,10.1441052246,0.1,0.0,0.0,0.0,0.1,0.0,0.0,0.0,0.1
1446034845514817196,168,1446034845513107061,robocape,0.0,0.0,0.0,0.0,10.0,0.0,0.0,0.0,10.0,0.0,0.0,0.0,10.0,0.0198405501211,0.0146473859954,0.00825579937925,1.0,0.0,0.0,0.0,1.0,0.0,0.0,0.0,1.0,-0.0586779785156,-0.273032226563,10.1297351074,0.1,0.0,0.0,0.0,0.1,0.0,0.0,0.0,0.1
1446034845534995072,169,1446034845533529043,robocape,0.0,0.0,0.0,0.0,10.0,0.0,0.0,0.0,10.0,0.0,0.0,0.0,10.0,0.0151800182135,0.0127831732324,0.0113184346328,1.0,0.0,0.0,0.0,1.0,0.0,0.0,0.0,1.0,0.0814306640625,-0.192799072266,10.157277832,0.1,0.0,0.0,0.0,0.1,0.0,0.0,0.0,0.1
1446034845556762363,170,1446034845555344104,robocape,0.0,0.0,0.0,0.0,10.0,0.0,0.0,0.0,10.0,0.0,0.0,0.0,10.0,0.00625842856169,0.0126500151779,0.00759000910673,1.0,0.0,0.0,0.0,1.0,0.0,0.0,0.0,1.0,0.0898132324219,-0.188009033203,10.1345251465,0.1,0.0,0.0,0.0,0.1,0.0,0.0,0.0,0.1
1446034845574590113,171,1446034845573200941,robocape,0.0,0.0,0.0,0.0,10.0,0.0,0.0,0.0,10.0,0.0,0.0,0.0,10.0,-0.000532632218016,0.0125168571234,0.00905474770627,1.0,0.0,0.0,0.0,1.0,0.0,0.0,0.0,1.0,0.0179626464844,-0.235909423828,10.1584753418,0.1,0.0,0.0,0.0,0.1,0.0,0.0,0.0,0.1
1446034845594859905,172,1446034845593146085,robocape,0.0,0.0,0.0,0.0,10.0,0.0,0.0,0.0,10.0,0.0,0.0,0.0,10.0,-0.00506000607115,0.0117179087963,0.0162452826495,1.0,0.0,0.0,0.0,1.0,0.0,0.0,0.0,1.0,0.009580078125,-0.247884521484,10.1788330078,0.1,0.0,0.0,0.0,0.1,0.0,0.0,0.0,0.1
1446034845619848072,173,1446034845617161989,robocape,0.0,0.0,0.0,0.0,10.0,0.0,0.0,0.0,10.0,0.0,0.0,0.0,10.0,-0.00545948023466,0.0110521185238,0.0127831732324,1.0,0.0,0.0,0.0,1.0,0.0,0.0,0.0,1.0,0.0850231933594,-0.267044677734,10.1644628906,0.1,0.0,0.0,0.0,0.1,0.0,0.0,0.0,0.1
1446034845634732322,174,1446034845633198976,robocape,0.0,0.0,0.0,0.0,10.0,0.0,0.0,0.0,10.0,0.0,0.0,0.0,10.0,-0.0154463343225,0.0107858024148,0.0287621397729,1.0,0.0,0.0,0.0,1.0,0.0,0.0,0.0,1.0,0.0814306640625,-0.258662109375,10.1596728516,0.1,0.0,0.0,0.0,0.1,0.0,0.0,0.0,0.1
1446034845654901780,175,1446034845653409004,robocape,0.0,0.0,0.0,0.0,10.0,0.0,0.0,0.0,10.0,0.0,0.0,0.0,10.0,-0.0639158661619,0.0099868540878,0.0735032460862,1.0,0.0,0.0,0.0,1.0,0.0,0.0,0.0,1.0,0.0179626464844,-0.300574951172,10.1944006348,0.1,0.0,0.0,0.0,0.1,0.0,0.0,0.0,0.1
1446034845676873072,176,1446034845674514055,robocape,0.0,0.0,0.0,0.0,10.0,0.0,0.0,0.0,10.0,0.0,0.0,0.0,10.0,-0.0480700576759,0.00599211245268,0.0683100819605,1.0,0.0,0.0,0.0,1.0,0.0,0.0,0.0,1.0,-0.102985839844,-1.04183349609,10.0722546387,0.1,0.0,0.0,0.0,0.1,0.0,0.0,0.0,0.1
1446034845695344613,177,1446034845693934917,robocape,0.0,0.0,0.0,0.0,10.0,0.0,0.0,0.0,10.0,0.0,0.0,0.0,10.0,0.0593884923088,0.0154463343225,0.0229031853747,1.0,0.0,0.0,0.0,1.0,0.0,0.0,0.0,1.0,0.240699462891,-0.656235351563,10.1285375977,0.1,0.0,0.0,0.0,0.1,0.0,0.0,0.0,0.1
1446034845714645530,178,1446034845713164091,robocape,0.0,0.0,0.0,0.0,10.0,0.0,0.0,0.0,10.0,0.0,0.0,0.0,10.0,0.0735032460862,0.0191747598486,0.0352868844435,1.0,0.0,0.0,0.0,1.0,0.0,0.0,0.0,1.0,0.131726074219,-0.453856201172,10.1596728516,0.1,0.0,0.0,0.0,0.1,0.0,0.0,0.0,0.1
1446034845734703530,179,1446034845733248949,robocape,0.0,0.0,0.0,0.0,10.0,0.0,0.0,0.0,10.0,0.0,0.0,0.0,10.0,0.0917458995532,0.0186421276306,0.0399474163512,1.0,0.0,0.0,0.0,1.0,0.0,0.0,0.0,1.0,0.0215551757813,-0.464633789063,10.1297351074,0.1,0.0,0.0,0.0,0.1,0.0,0.0,0.0,0.1
1446034845758323030,180,1446034845756851911,robocape,0.0,0.0,0.0,0.0,10.0,0.0,0.0,0.0,10.0,0.0,0.0,0.0,10.0,0.0976048539514,0.0187752856851,0.0299605622634,1.0,0.0,0.0,0.0,1.0,0.0,0.0,0.0,1.0,0.0586779785156,-0.262254638672,10.1429077148,0.1,0.0,0.0,0.0,0.1,0.0,0.0,0.0,0.1
1446034845775123613,181,1446034845773323059,robocape,0.0,0.0,0.0,0.0,10.0,0.0,0.0,0.0,10.0,0.0,0.0,0.0,10.0,0.0980043281149,0.01744370514,0.0298274042089,1.0,0.0,0.0,0.0,1.0,0.0,0.0,0.0,1.0,0.0467028808594,-0.146096191406,10.1548828125,0.1,0.0,0.0,0.0,0.1,0.0,0.0,0.0,0.1
1446034845794985780,182,1446034845793206930,robocape,0.0,0.0,0.0,0.0,10.0,0.0,0.0,0.0,10.0,0.0,0.0,0.0,10.0,0.100001698932,0.0187752856851,0.000532632218016,1.0,0.0,0.0,0.0,1.0,0.0,0.0,0.0,1.0,0.0562829589844,0.0251477050781,10.132130127,0.1,0.0,0.0,0.0,0.1,0.0,0.0,0.0,0.1
1446034845818212905,183,1446034845816703081,robocape,0.0,0.0,0.0,0.0,10.0,0.0,0.0,0.0,10.0,0.0,0.0,0.0,10.0,0.0633832339439,0.0159789665405,0.00825579937925,1.0,0.0,0.0,0.0,1.0,0.0,0.0,0.0,1.0,0.0167651367188,0.174836425781,10.1979931641,0.1,0.0,0.0,0.0,0.1,0.0,0.0,0.0,0.1
1446034845834823238,184,1446034845833272933,robocape,0.0,0.0,0.0,0.0,10.0,0.0,0.0,0.0,10.0,0.0,0.0,0.0,10.0,0.0374174133156,0.0149137021044,0.0031957933081,1.0,0.0,0.0,0.0,1.0,0.0,0.0,0.0,1.0,-0.0443078613281,0.227526855469,10.152487793,0.1,0.0,0.0,0.0,0.1,0.0,0.0,0.0,0.1
1446034845854895280,185,1446034845853101968,robocape,0.0,0.0,0.0,0.0,10.0,0.0,0.0,0.0,10.0,0.0,0.0,0.0,10.0,-0.0106526443603,0.0125168571234,0.00865527354276,1.0,0.0,0.0,0.0,1.0,0.0,0.0,0.0,1.0,0.0514929199219,0.155676269531,10.1979931641,0.1,0.0,0.0,0.0,0.1,0.0,0.0,0.0,0.1
1446034845876800280,186,1446034845875232934,robocape,0.0,0.0,0.0,0.0,10.0,0.0,0.0,0.0,10.0,0.0,0.0,0.0,10.0,-0.0355532005526,0.0103863282513,0.00719053494321,1.0,0.0,0.0,0.0,1.0,0.0,0.0,0.0,1.0,-0.0526904296875,0.0502954101563,10.1045874023,0.1,0.0,0.0,0.0,0.1,0.0,0.0,0.0,0.1
1446034845895253863,187,1446034845893842935,robocape,0.0,0.0,0.0,0.0,10.0,0.0,0.0,0.0,10.0,0.0,0.0,0.0,10.0,-0.0580569117637,0.00759000910673,0.00812264132474,1.0,0.0,0.0,0.0,1.0,0.0,0.0,0.0,1.0,-0.0227526855469,-0.137713623047,10.1752404785,0.1,0.0,0.0,0.0,0.1,0.0,0.0,0.0,0.1
1446034845914834197,188,1446034845913096904,robocape,0.0,0.0,0.0,0.0,10.0,0.0,0.0,0.0,10.0,0.0,0.0,0.0,10.0,-0.0573911214912,0.00652474467069,-0.00759000910673,1.0,0.0,0.0,0.0,1.0,0.0,0.0,0.0,1.0,0.09580078125,-0.323327636719,10.1429077148,0.1,0.0,0.0,0.0,0.1,0.0,0.0,0.0,0.1
1446034845936268280,189,1446034845934879064,robocape,0.0,0.0,0.0,0.0,10.0,0.0,0.0,0.0,10.0,0.0,0.0,0.0,10.0,-0.0221042370477,0.0106526443603,-0.0386158358061,1.0,0.0,0.0,0.0,1.0,0.0,0.0,0.0,1.0,0.146096191406,-0.367635498047,10.1716479492,0.1,0.0,0.0,0.0,0.1,0.0,0.0,0.0,0.1
1446034845957837988,190,1446034845956403970,robocape,0.0,0.0,0.0,0.0,10.0,0.0,0.0,0.0,10.0,0.0,0.0,0.0,10.0,-0.0157126504315,0.0122505410144,-0.0483363737849,1.0,0.0,0.0,0.0,1.0,0.0,0.0,0.0,1.0,0.047900390625,-0.211959228516,10.1596728516,0.1,0.0,0.0,0.0,0.1,0.0,0.0,0.0,0.1
1446034845974891863,191,1446034845973464012,robocape,0.0,0.0,0.0,0.0,10.0,0.0,0.0,0.0,10.0,0.0,0.0,0.0,10.0,-0.0219710789932,0.0123836990689,-0.0396811002422,1.0,0.0,0.0,0.0,1.0,0.0,0.0,0.0,1.0,-0.028740234375,-0.326920166016,10.1824255371,0.1,0.0,0.0,0.0,0.1,0.0,0.0,0.0,0.1
1446034845995451572,192,1446034845993228912,robocape,0.0,0.0,0.0,0.0,10.0,0.0,0.0,0.0,10.0,0.0,0.0,0.0,10.0,-0.0031957933081,0.0103863282513,-0.0790958843754,1.0,0.0,0.0,0.0,1.0,0.0,0.0,0.0,1.0,0.067060546875,-0.411943359375,10.0926123047,0.1,0.0,0.0,0.0,0.1,0.0,0.0,0.0,0.1
1446034846017556113,193,1446034846016057014,robocape,0.0,0.0,0.0,0.0,10.0,0.0,0.0,0.0,10.0,0.0,0.0,0.0,10.0,0.0195742340121,0.0143810698864,-0.107858024148,1.0,0.0,0.0,0.0,1.0,0.0,0.0,0.0,1.0,0.146096191406,0.0706530761719,10.1453027344,0.1,0.0,0.0,0.0,0.1,0.0,0.0,0.0,0.1
1446034846034647947,194,1446034846033104896,robocape,0.0,0.0,0.0,0.0,10.0,0.0,0.0,0.0,10.0,0.0,0.0,0.0,10.0,-0.0105194863058,0.0133158054504,-0.0868190515366,1.0,0.0,0.0,0.0,1.0,0.0,0.0,0.0,1.0,0.0239501953125,0.237106933594,10.1740429688,0.1,0.0,0.0,0.0,0.1,0.0,0.0,0.0,0.1
1446034846054630280,195,1446034846053203105,robocape,0.0,0.0,0.0,0.0,10.0,0.0,0.0,0.0,10.0,0.0,0.0,0.0,10.0,-0.0619184953443,0.0067910607797,-0.0766990393943,1.0,0.0,0.0,0.0,1.0,0.0,0.0,0.0,1.0,-0.196391601563,0.0502954101563,10.1668579102,0.1,0.0,0.0,0.0,0.1,0.0,0.0,0.0,0.1
1446034846078724238,196,1446034846076723098,robocape,0.0,0.0,0.0,0.0,10.0,0.0,0.0,0.0,10.0,0.0,0.0,0.0,10.0,-0.0880174740271,0.00279631914458,-0.0655137628159,1.0,0.0,0.0,0.0,1.0,0.0,0.0,0.0,1.0,-0.0359252929688,0.125738525391,10.1860180664,0.1,0.0,0.0,0.0,0.1,0.0,0.0,0.0,0.1
1446034846095973988,197,1446034846094518899,robocape,0.0,0.0,0.0,0.0,10.0,0.0,0.0,0.0,10.0,0.0,0.0,0.0,10.0,-0.143943856919,-0.000266316109008,-0.0388821519152,1.0,0.0,0.0,0.0,1.0,0.0,0.0,0.0,1.0,0.0969982910156,-0.0107775878906,10.1548828125,0.1,0.0,0.0,0.0,0.1,0.0,0.0,0.0,0.1
1446034846114460738,198,1446034846112999916,robocape,0.0,0.0,0.0,0.0,10.0,0.0,0.0,0.0,10.0,0.0,0.0,0.0,10.0,-0.167912306729,-0.00572579634367,-0.0209058145571,1.0,0.0,0.0,0.0,1.0,0.0,0.0,0.0,1.0,0.326920166016,-0.265847167969,10.0638720703,0.1,0.0,0.0,0.0,0.1,0.0,0.0,0.0,0.1
1446034846135226238,199,1446034846133492946,robocape,0.0,0.0,0.0,0.0,10.0,0.0,0.0,0.0,10.0,0.0,0.0,0.0,10.0,-0.156727030151,0.000266316109008,-0.0254331884103,1.0,0.0,0.0,0.0,1.0,0.0,0.0,0.0,1.0,0.111368408203,-0.731678466797,10.1357226563,0.1,0.0,0.0,0.0,0.1,0.0,0.0,0.0,0.1
1446034846162290405,200,1446034846160121917,robocape,0.0,0.0,0.0,0.0,10.0,0.0,0.0,0.0,10.0,0.0,0.0,0.0,10.0,-0.111320133565,0.00186421276306,-0.0247673981377,1.0,0.0,0.0,0.0,1.0,0.0,0.0,0.0,1.0,-0.0718505859375,-0.887354736328,10.1309326172,0.1,0.0,0.0,0.0,0.1,0.0,0.0,0.0,0.1
1446034846179552947,201,1446034846178036928,robocape,0.0,0.0,0.0,0.0,10.0,0.0,0.0,0.0,10.0,0.0,0.0,0.0,10.0,-0.0932106381528,0.00306263525359,0.00559263828917,1.0,0.0,0.0,0.0,1.0,0.0,0.0,0.0,1.0,0.118553466797,-0.815504150391,10.1189575195,0.1,0.0,0.0,0.0,0.1,0.0,0.0,0.0,0.1
1446034846198714572,202,1446034846196929931,robocape,0.0,0.0,0.0,0.0,10.0,0.0,0.0,0.0,10.0,0.0,0.0,0.0,10.0,-0.0569916473277,0.0066579027252,0.0109189604693,1.0,0.0,0.0,0.0,1.0,0.0,0.0,0.0,1.0,0.237106933594,-1.00590820312,10.0530944824,0.1,0.0,0.0,0.0,0.1,0.0,0.0,0.0,0.1
1446034846217566238,203,1446034846216263055,robocape,0.0,0.0,0.0,0.0,10.0,0.0,0.0,0.0,10.0,0.0,0.0,0.0,10.0,-0.0170442309765,0.0111852765783,0.00479368996214,1.0,0.0,0.0,0.0,1.0,0.0,0.0,0.0,1.0,0.184416503906,-0.999920654297,10.1057849121,0.1,0.0,0.0,0.0,0.1,0.0,0.0,0.0,0.1
1446034846234597114,204,1446034846233184099,robocape,0.0,0.0,0.0,0.0,10.0,0.0,0.0,0.0,10.0,0.0,0.0,0.0,10.0,0.0211721306661,0.0135821215594,0.00439421579863,1.0,0.0,0.0,0.0,1.0,0.0,0.0,0.0,1.0,0.0802331542969,-0.973575439453,10.1405126953,0.1,0.0,0.0,0.0,0.1,0.0,0.0,0.0,0.1
1446034846254672822,205,1446034846253215074,robocape,0.0,0.0,0.0,0.0,10.0,0.0,0.0,0.0,10.0,0.0,0.0,0.0,10.0,0.0880174740271,0.016112124595,-0.0103863282513,1.0,0.0,0.0,0.0,1.0,0.0,0.0,0.0,1.0,-0.161663818359,-0.871787109375,10.0878222656,0.1,0.0,0.0,0.0,0.1,0.0,0.0,0.0,0.1
1446034846278190447,206,1446034846276725053,robocape,0.0,0.0,0.0,0.0,10.0,0.0,0.0,0.0,10.0,0.0,0.0,0.0,10.0,0.114782242982,0.0201068662301,-0.0206394984481,1.0,0.0,0.0,0.0,1.0,0.0,0.0,0.0,1.0,0.201181640625,-0.455053710938,10.1285375977,0.1,0.0,0.0,0.0,0.1,0.0,0.0,0.0,0.1
1446034846294811364,207,1446034846293217897,robocape,0.0,0.0,0.0,0.0,10.0,0.0,0.0,0.0,10.0,0.0,0.0,0.0,10.0,0.105061705004,0.0211721306661,-0.0119842249054,1.0,0.0,0.0,0.0,1.0,0.0,0.0,0.0,1.0,0.255069580078,-0.147293701172,10.1033898926,0.1,0.0,0.0,0.0,0.1,0.0,0.0,0.0,0.1
1446034846314648322,208,1446034846313235044,robocape,0.0,0.0,0.0,0.0,10.0,0.0,0.0,0.0,10.0,0.0,0.0,0.0,10.0,0.08455536461,0.0203731823391,-0.00186421276306,1.0,0.0,0.0,0.0,1.0,0.0,0.0,0.0,1.0,0.0335302734375,-0.170046386719,10.1297351074,0.1,0.0,0.0,0.0,0.1,0.0,0.0,0.0,0.1
1446034846336437905,209,1446034846335036993,robocape,0.0,0.0,0.0,0.0,10.0,0.0,0.0,0.0,10.0,0.0,0.0,0.0,10.0,0.0612527050718,0.0170442309765,0.0033289513626,1.0,0.0,0.0,0.0,1.0,0.0,0.0,0.0,1.0,-0.0934057617188,-0.0922082519531,10.1333276367,0.1,0.0,0.0,0.0,0.1,0.0,0.0,0.0,0.1
1446034846355900405,210,1446034846354402065,robocape,0.0,0.0,0.0,0.0,10.0,0.0,0.0,0.0,10.0,0.0,0.0,0.0,10.0,0.0414121549507,0.01744370514,0.00705737688871,1.0,0.0,0.0,0.0,1.0,0.0,0.0,0.0,1.0,0.0443078613281,-0.0371228027344,10.1944006348,0.1,0.0,0.0,0.0,0.1,0.0,0.0,0.0,0.1
1446034846374891655,211,1446034846373490095,robocape,0.0,0.0,0.0,0.0,10.0,0.0,0.0,0.0,10.0,0.0,0.0,0.0,10.0,0.00625842856169,0.0103863282513,0.00812264132474,1.0,0.0,0.0,0.0,1.0,0.0,0.0,0.0,1.0,-0.128133544922,0.0646655273438,10.1021923828,0.1,0.0,0.0,0.0,0.1,0.0,0.0,0.0,0.1
1446034846394597489,212,1446034846393119096,robocape,0.0,0.0,0.0,0.0,10.0,0.0,0.0,0.0,10.0,0.0,0.0,0.0,10.0,-0.0193079179031,0.00985369603329,0.00692421883421,1.0,0.0,0.0,0.0,1.0,0.0,0.0,0.0,1.0,-0.0179626464844,-0.0431103515625,10.2003881836,0.1,0.0,0.0,0.0,0.1,0.0,0.0,0.0,0.1
1446034846416872197,213,1446034846415457963,robocape,0.0,0.0,0.0,0.0,10.0,0.0,0.0,0.0,10.0,0.0,0.0,0.0,10.0,-0.0508663768205,0.00452737385313,0.0119842249054,1.0,0.0,0.0,0.0,1.0,0.0,0.0,0.0,1.0,0.207169189453,-0.130528564453,10.1045874023,0.1,0.0,0.0,0.0,0.1,0.0,0.0,0.0,0.1
1446034846435023655,214,1446034846433213949,robocape,0.0,0.0,0.0,0.0,10.0,0.0,0.0,0.0,10.0,0.0,0.0,0.0,10.0,-0.0636495500529,0.00945422186978,0.0109189604693,1.0,0.0,0.0,0.0,1.0,0.0,0.0,0.0,1.0,0.0490979003906,-0.274229736328,10.1788330078,0.1,0.0,0.0,0.0,0.1,0.0,0.0,0.0,0.1
1446034846454540739,215,1446034846453051090,robocape,0.0,0.0,0.0,0.0,10.0,0.0,0.0,0.0,10.0,0.0,0.0,0.0,10.0,-0.0788295682663,-0.00159789665405,0.0175768631945,1.0,0.0,0.0,0.0,1.0,0.0,0.0,0.0,1.0,-0.434696044922,-0.185614013672,10.024354248,0.1,0.0,0.0,0.0,0.1,0.0,0.0,0.0,0.1
1446034846477464780,216,1446034846476057052,robocape,0.0,0.0,0.0,0.0,10.0,0.0,0.0,0.0,10.0,0.0,0.0,0.0,10.0,-0.101200121423,0.000932106381528,0.0472711093489,1.0,0.0,0.0,0.0,1.0,0.0,0.0,0.0,1.0,-0.0347277832031,-0.558039550781,10.208770752,0.1,0.0,0.0,0.0,0.1,0.0,0.0,0.0,0.1
1446034846494519780,217,1446034846493135929,robocape,0.0,0.0,0.0,0.0,10.0,0.0,0.0,0.0,10.0,0.0,0.0,0.0,10.0,-0.0938764284253,0.00452737385313,0.0604537567448,1.0,0.0,0.0,0.0,1.0,0.0,0.0,0.0,1.0,0.165256347656,-0.529299316406,9.97525634766,0.1,0.0,0.0,0.0,0.1,0.0,0.0,0.0,0.1
1446034846514956114,218,1446034846513185024,robocape,0.0,0.0,0.0,0.0,10.0,0.0,0.0,0.0,10.0,0.0,0.0,0.0,10.0,-0.0874848418091,0.00732369299772,0.0635163919984,1.0,0.0,0.0,0.0,1.0,0.0,0.0,0.0,1.0,0.384400634766,-0.809516601563,10.1333276367,0.1,0.0,0.0,0.0,0.1,0.0,0.0,0.0,0.1
1446034846538966739,219,1446034846537396907,robocape,0.0,0.0,0.0,0.0,10.0,0.0,0.0,0.0,10.0,0.0,0.0,0.0,10.0,-0.0529969056926,0.00972053797879,0.0597879664723,1.0,0.0,0.0,0.0,1.0,0.0,0.0,0.0,1.0,0.343685302734,-0.813109130859,10.0087866211,0.1,0.0,0.0,0.0,0.1,0.0,0.0,0.0,0.1
1446034846557822572,220,1446034846556278944,robocape,0.0,0.0,0.0,0.0,10.0,0.0,0.0,0.0,10.0,0.0,0.0,0.0,10.0,-0.00785632521573,0.00732369299772,0.0386158358061,1.0,0.0,0.0,0.0,1.0,0.0,0.0,0.0,1.0,0.258662109375,-0.783171386719,10.0051940918,0.1,0.0,0.0,0.0,0.1,0.0,0.0,0.0,0.1
1446034846574587822,221,1446034846573165893,robocape,0.0,0.0,0.0,0.0,10.0,0.0,0.0,0.0,10.0,0.0,0.0,0.0,10.0,-0.00812264132474,0.0226368692657,0.0376837294246,1.0,0.0,0.0,0.0,1.0,0.0,0.0,0.0,1.0,0.443078613281,-1.13044921875,10.2375109863,0.1,0.0,0.0,0.0,0.1,0.0,0.0,0.0,0.1
1446034846597026947,222,1446034846594306945,robocape,0.0,0.0,0.0,0.0,10.0,0.0,0.0,0.0,10.0,0.0,0.0,0.0,10.0,0.0427437354958,0.016378440704,0.0368847810976,1.0,0.0,0.0,0.0,1.0,0.0,0.0,0.0,1.0,-0.718505859375,-1.27774291992,10.1393151855,0.1,0.0,0.0,0.0,0.1,0.0,0.0,0.0,0.1
1446034846615953239,223,1446034846614542961,robocape,0.0,0.0,0.0,0.0,10.0,0.0,0.0,0.0,10.0,0.0,0.0,0.0,10.0,0.100001698932,0.0130494893414,0.0422111032778,1.0,0.0,0.0,0.0,1.0,0.0,0.0,0.0,1.0,-0.317340087891,-0.643062744141,10.136920166,0.1,0.0,0.0,0.0,0.1,0.0,0.0,0.0,0.1
1446034846634765239,224,1446034846633342981,robocape,0.0,0.0,0.0,0.0,10.0,0.0,0.0,0.0,10.0,0.0,0.0,0.0,10.0,0.084821680719,0.0193079179031,0.085087996828,1.0,0.0,0.0,0.0,1.0,0.0,0.0,0.0,1.0,0.299377441406,-0.193996582031,10.0782421875,0.1,0.0,0.0,0.0,0.1,0.0,0.0,0.0,0.1
1446034846654888905,225,1446034846653491020,robocape,0.0,0.0,0.0,0.0,10.0,0.0,0.0,0.0,10.0,0.0,0.0,0.0,10.0,0.0451405804768,0.0170442309765,0.1182443524,1.0,0.0,0.0,0.0,1.0,0.0,0.0,0.0,1.0,0.467028808594,-0.453856201172,10.1021923828,0.1,0.0,0.0,0.0,0.1,0.0,0.0,0.0,0.1
1446034846677633864,226,1446034846676192045,robocape,0.0,0.0,0.0,0.0,10.0,0.0,0.0,0.0,10.0,0.0,0.0,0.0,10.0,0.067910607797,0.0217047628841,0.084289048501,1.0,0.0,0.0,0.0,1.0,0.0,0.0,0.0,1.0,0.204774169922,-0.655037841797,10.0447119141,0.1,0.0,0.0,0.0,0.1,0.0,0.0,0.0,0.1
1446034846695078114,227,1446034846693278074,robocape,0.0,0.0,0.0,0.0,10.0,0.0,0.0,0.0,10.0,0.0,0.0,0.0,10.0,0.0986701183874,0.0387489938607,0.0624511275624,1.0,0.0,0.0,0.0,1.0,0.0,0.0,0.0,1.0,-0.128133544922,-0.857416992188,10.3572619629,0.1,0.0,0.0,0.0,0.1,0.0,0.0,0.0,0.1
1446034846714609322,228,1446034846713150978,robocape,0.0,0.0,0.0,0.0,10.0,0.0,0.0,0.0,10.0,0.0,0.0,0.0,10.0,0.121839619871,0.00972053797879,0.0637827081074,1.0,0.0,0.0,0.0,1.0,0.0,0.0,0.0,1.0,-0.643062744141,-0.0850231933594,10.0890197754,0.1,0.0,0.0,0.0,0.1,0.0,0.0,0.0,0.1
1446034846738188322,229,1446034846736604928,robocape,0.0,0.0,0.0,0.0,10.0,0.0,0.0,0.0,10.0,0.0,0.0,0.0,10.0,0.129429628978,0.0131826473959,0.0383495196971,1.0,0.0,0.0,0.0,1.0,0.0,0.0,0.0,1.0,-0.295784912109,-0.650247802734,10.2866088867,0.1,0.0,0.0,0.0,0.1,0.0,0.0,0.0,0.1
1446034846754830739,230,1446034846753297090,robocape,0.0,0.0,0.0,0.0,10.0,0.0,0.0,0.0,10.0,0.0,0.0,0.0,10.0,0.150468601589,0.0187752856851,0.00892158965177,1.0,0.0,0.0,0.0,1.0,0.0,0.0,0.0,1.0,-0.32572265625,-0.566422119141,10.0566870117,0.1,0.0,0.0,0.0,0.1,0.0,0.0,0.0,0.1
1446034846775198822,231,1446034846773397922,robocape,0.0,0.0,0.0,0.0,10.0,0.0,0.0,0.0,10.0,0.0,0.0,0.0,10.0,0.216381838569,0.0167779148675,-0.0119842249054,1.0,0.0,0.0,0.0,1.0,0.0,0.0,0.0,1.0,-2.25850341797,-0.0898132324219,10.520123291,0.1,0.0,0.0,0.0,0.1,0.0,0.0,0.0,0.1
1446034846796547239,232,1446034846795066118,robocape,0.0,0.0,0.0,0.0,10.0,0.0,0.0,0.0,10.0,0.0,0.0,0.0,10.0,0.160055981514,0.0138484376684,0.126899625942,1.0,0.0,0.0,0.0,1.0,0.0,0.0,0.0,1.0,-3.80688354492,0.148491210938,10.310559082,0.1,0.0,0.0,0.0,0.1,0.0,0.0,0.0,0.1
1446034846815161489,233,1446034846813761949,robocape,0.0,0.0,0.0,0.0,10.0,0.0,0.0,0.0,10.0,0.0,0.0,0.0,10.0,0.0675111336335,0.0141147537774,0.109322762748,1.0,0.0,0.0,0.0,1.0,0.0,0.0,0.0,1.0,-2.11480224609,0.433498535156,11.250604248,0.1,0.0,0.0,0.0,0.1,0.0,0.0,0.0,0.1
1446034846834823280,234,1446034846833432912,robocape,0.0,0.0,0.0,0.0,10.0,0.0,0.0,0.0,10.0,0.0,0.0,0.0,10.0,0.0407463646782,0.0904143190082,0.0508663768205,1.0,0.0,0.0,0.0,1.0,0.0,0.0,0.0,1.0,-5.17204467773,0.673000488281,11.2565917969,0.1,0.0,0.0,0.0,0.1,0.0,0.0,0.0,0.1
1446034846855807864,235,1446034846854348897,robocape,0.0,0.0,0.0,0.0,10.0,0.0,0.0,0.0,10.0,0.0,0.0,0.0,10.0,-0.110121711075,0.0379500455336,0.125568045397,1.0,0.0,0.0,0.0,1.0,0.0,0.0,0.0,1.0,-5.64745605469,1.51963989258,10.3033740234,0.1,0.0,0.0,0.0,0.1,0.0,0.0,0.0,0.1
1446034846877690572,236,1446034846876266956,robocape,0.0,0.0,0.0,0.0,10.0,0.0,0.0,0.0,10.0,0.0,0.0,0.0,10.0,-0.30333404816,-0.0751011427402,0.217447103005,1.0,0.0,0.0,0.0,1.0,0.0,0.0,0.0,1.0,-8.19934936523,1.62502075195,10.2602636719,0.1,0.0,0.0,0.0,0.1,0.0,0.0,0.0,0.1
1446034846894693864,237,1446034846893290042,robocape,0.0,0.0,0.0,0.0,10.0,0.0,0.0,0.0,10.0,0.0,0.0,0.0,10.0,-0.437424209046,0.111985923838,0.221042370477,1.0,0.0,0.0,0.0,1.0,0.0,0.0,0.0,1.0,-3.77455078125,1.29331054688,12.6852209473,0.1,0.0,0.0,0.0,0.1,0.0,0.0,0.0,0.1
1446034846914546280,238,1446034846913136005,robocape,0.0,0.0,0.0,0.0,10.0,0.0,0.0,0.0,10.0,0.0,0.0,0.0,10.0,-0.571913844095,-0.12889699676,0.234890808145,1.0,0.0,0.0,0.0,1.0,0.0,0.0,0.0,1.0,-6.39110961914,1.00231567383,10.4458776855,0.1,0.0,0.0,0.0,0.1,0.0,0.0,0.0,0.1
1446034846937989281,239,1446034846936522006,robocape,0.0,0.0,0.0,0.0,10.0,0.0,0.0,0.0,10.0,0.0,0.0,0.0,10.0,-0.854342077697,-0.017710021249,0.299472464579,1.0,0.0,0.0,0.0,1.0,0.0,0.0,0.0,1.0,-4.81159423828,2.33274902344,10.177635498,0.1,0.0,0.0,0.0,0.1,0.0,0.0,0.0,0.1
1446034846954966406,240,1446034846953156948,robocape,0.0,0.0,0.0,0.0,10.0,0.0,0.0,0.0,10.0,0.0,0.0,0.0,10.0,-1.01519700754,-0.0785632521573,0.360458853542,1.0,0.0,0.0,0.0,1.0,0.0,0.0,0.0,1.0,-5.27263549805,0.752036132813,10.4602478027,0.1,0.0,0.0,0.0,0.1,0.0,0.0,0.0,0.1
1446034846974612489,241,1446034846973174095,robocape,0.0,0.0,0.0,0.0,10.0,0.0,0.0,0.0,10.0,0.0,0.0,0.0,10.0,-1.33251265142,-0.0619184953443,0.360458853542,1.0,0.0,0.0,0.0,1.0,0.0,0.0,0.0,1.0,-5.25467285156,0.701740722656,9.65192871094,0.1,0.0,0.0,0.0,0.1,0.0,0.0,0.0,0.1
1446034846999464822,242,1446034846997136116,robocape,0.0,0.0,0.0,0.0,10.0,0.0,0.0,0.0,10.0,0.0,0.0,0.0,10.0,-1.55422081217,-0.0211721306661,0.424374719704,1.0,0.0,0.0,0.0,1.0,0.0,0.0,0.0,1.0,-2.76744506836,2.44531494141,10.2411035156,0.1,0.0,0.0,0.0,0.1,0.0,0.0,0.0,0.1
1446034847014773239,243,1446034847013385057,robocape,0.0,0.0,0.0,0.0,10.0,0.0,0.0,0.0,10.0,0.0,0.0,0.0,10.0,-1.95023286627,-0.282827707766,0.45912897193,1.0,0.0,0.0,0.0,1.0,0.0,0.0,0.0,1.0,-7.31798217773,2.53153564453,9.52858520508,0.1,0.0,0.0,0.0,0.1,0.0,0.0,0.0,0.1
1446034847034787781,244,1446034847033293962,robocape,0.0,0.0,0.0,0.0,10.0,0.0,0.0,0.0,10.0,0.0,0.0,0.0,10.0,-2.28725590221,0.000266316109008,0.558065406426,1.0,0.0,0.0,0.0,1.0,0.0,0.0,0.0,1.0,-4.80680419922,1.34959350586,9.70940917969,0.1,0.0,0.0,0.0,0.1,0.0,0.0,0.0,0.1
1446034847056667031,245,1446034847054438114,robocape,0.0,0.0,0.0,0.0,10.0,0.0,0.0,0.0,10.0,0.0,0.0,0.0,10.0,-2.79991441205,-0.342482516184,0.603871777175,1.0,0.0,0.0,0.0,1.0,0.0,0.0,0.0,1.0,-2.86923339844,2.82253051758,6.9359765625,0.1,0.0,0.0,0.0,0.1,0.0,0.0,0.0,0.1
1446034847076561489,246,1446034847075081110,robocape,0.0,0.0,0.0,0.0,10.0,0.0,0.0,0.0,10.0,0.0,0.0,0.0,10.0,-3.22655281869,-0.19867181732,0.725578238992,1.0,0.0,0.0,0.0,1.0,0.0,0.0,0.0,1.0,-4.93014770508,2.86803588867,7.85446655273,0.1,0.0,0.0,0.0,0.1,0.0,0.0,0.0,0.1
1446034847095354697,247,1446034847093547105,robocape,0.0,0.0,0.0,0.0,10.0,0.0,0.0,0.0,10.0,0.0,0.0,0.0,10.0,-3.93388840421,-0.159789665405,0.782703044374,1.0,0.0,0.0,0.0,1.0,0.0,0.0,0.0,1.0,-0.322130126953,3.37338500977,6.97549438477,0.1,0.0,0.0,0.0,0.1,0.0,0.0,0.0,0.1
1446034847114837239,248,1446034847113056898,robocape,0.0,0.0,0.0,0.0,10.0,0.0,0.0,0.0,10.0,0.0,0.0,0.0,10.0,-4.36332312999,-0.194011285412,0.843556275283,1.0,0.0,0.0,0.0,1.0,0.0,0.0,0.0,1.0,-5.15048950195,2.78181518555,4.51341430664,0.1,0.0,0.0,0.0,0.1,0.0,0.0,0.0,0.1
1446034847138237281,249,1446034847136707067,robocape,0.0,0.0,0.0,0.0,10.0,0.0,0.0,0.0,10.0,0.0,0.0,0.0,10.0,-4.36332312999,-0.294412458508,0.147405966336,1.0,0.0,0.0,0.0,1.0,0.0,0.0,0.0,1.0,-1.46335693359,-19.175723877,5.38400390625,0.1,0.0,0.0,0.0,0.1,0.0,0.0,0.0,0.1
1446034847160970322,250,1446034847159486055,robocape,0.0,0.0,0.0,0.0,10.0,0.0,0.0,0.0,10.0,0.0,0.0,0.0,10.0,-2.35423440363,0.236355546745,-1.18137825956,1.0,0.0,0.0,0.0,1.0,0.0,0.0,0.0,1.0,11.0266699219,-19.62,9.45314208984,0.1,0.0,0.0,0.0,0.1,0.0,0.0,0.0,0.1
1446034847175821989,251,1446034847174411058,robocape,0.0,0.0,0.0,0.0,10.0,0.0,0.0,0.0,10.0,0.0,0.0,0.0,10.0,-0.647014986835,0.944756396706,-1.59723086378,1.0,0.0,0.0,0.0,1.0,0.0,0.0,0.0,1.0,11.4841186523,-19.62,8.31071777344,0.1,0.0,0.0,0.0,0.1,0.0,0.0,0.0,0.1
1446034847198608364,252,1446034847196933031,robocape,0.0,0.0,0.0,0.0,10.0,0.0,0.0,0.0,10.0,0.0,0.0,0.0,10.0,0.868856305638,1.60109244736,-1.67193253235,1.0,0.0,0.0,0.0,1.0,0.0,0.0,0.0,1.0,4.98044311523,-15.3041748047,5.67978881836,0.1,0.0,0.0,0.0,0.1,0.0,0.0,0.0,0.1
1446034847214991781,253,1446034847213131904,robocape,0.0,0.0,0.0,0.0,10.0,0.0,0.0,0.0,10.0,0.0,0.0,0.0,10.0,1.54090500672,1.87486540742,-1.18603879147,1.0,0.0,0.0,0.0,1.0,0.0,0.0,0.0,1.0,0.552052001953,-1.33402587891,8.91785522461,0.1,0.0,0.0,0.0,0.1,0.0,0.0,0.0,0.1
1446034847234738072,254,1446034847233262062,robocape,0.0,0.0,0.0,0.0,10.0,0.0,0.0,0.0,10.0,0.0,0.0,0.0,10.0,0.855274184079,1.11360080982,-0.758734594564,1.0,0.0,0.0,0.0,1.0,0.0,0.0,0.0,1.0,-3.50990112305,2.73630981445,8.68793334961,0.1,0.0,0.0,0.0,0.1,0.0,0.0,0.0,0.1
1446034847256149406,255,1446034847254745006,robocape,0.0,0.0,0.0,0.0,10.0,0.0,0.0,0.0,10.0,0.0,0.0,0.0,10.0,-0.150069127426,0.988831712746,-0.482032157304,1.0,0.0,0.0,0.0,1.0,0.0,0.0,0.0,1.0,-3.90268432617,0.667012939453,10.3943847656,0.1,0.0,0.0,0.0,0.1,0.0,0.0,0.0,0.1
1446034847275048406,256,1446034847273560047,robocape,0.0,0.0,0.0,0.0,10.0,0.0,0.0,0.0,10.0,0.0,0.0,0.0,10.0,-0.564856467206,0.459927920257,-0.47124635489,1.0,0.0,0.0,0.0,1.0,0.0,0.0,0.0,1.0,-0.576002197266,0.743653564453,5.64266601563,0.1,0.0,0.0,0.0,0.1,0.0,0.0,0.0,0.1
1446034847294733989,257,1446034847293301105,robocape,0.0,0.0,0.0,0.0,10.0,0.0,0.0,0.0,10.0,0.0,0.0,0.0,10.0,-0.668320275555,0.416385236434,-0.687761351513,1.0,0.0,0.0,0.0,1.0,0.0,0.0,0.0,1.0,-0.379610595703,-8.21731201172,10.1201550293,0.1,0.0,0.0,0.0,0.1,0.0,0.0,0.0,0.1
1446034847314719322,258,1446034847313252925,robocape,0.0,0.0,0.0,0.0,10.0,0.0,0.0,0.0,10.0,0.0,0.0,0.0,10.0,-0.51944957062,0.450606856441,-0.523843786419,1.0,0.0,0.0,0.0,1.0,0.0,0.0,0.0,1.0,0.559237060547,-11.1356433105,9.49385742188,0.1,0.0,0.0,0.0,0.1,0.0,0.0,0.0,0.1
1446034847337794697,259,1446034847336307048,robocape,0.0,0.0,0.0,0.0,10.0,0.0,0.0,0.0,10.0,0.0,0.0,0.0,10.0,-0.211721306661,0.588958075071,-0.490421114738,1.0,0.0,0.0,0.0,1.0,0.0,0.0,0.0,1.0,0.0550854492188,-5.30377075195,8.93701538086,0.1,0.0,0.0,0.0,0.1,0.0,0.0,0.0,0.1
1446034847355125864,260,1446034847353312015,robocape,0.0,0.0,0.0,0.0,10.0,0.0,0.0,0.0,10.0,0.0,0.0,0.0,10.0,-0.193744969303,0.440353686245,-0.433828941574,1.0,0.0,0.0,0.0,1.0,0.0,0.0,0.0,1.0,5.53129760742,-8.07720336914,7.35031494141,0.1,0.0,0.0,0.0,0.1,0.0,0.0,0.0,0.1
1446034847374894739,261,1446034847373402118,robocape,0.0,0.0,0.0,0.0,10.0,0.0,0.0,0.0,10.0,0.0,0.0,0.0,10.0,0.0624511275624,0.308394054231,-0.45380264975,1.0,0.0,0.0,0.0,1.0,0.0,0.0,0.0,1.0,-3.40571777344,-6.3228515625,6.20310058594,0.1,0.0,0.0,0.0,0.1,0.0,0.0,0.0,0.1
1446034847397345406,262,1446034847395915985,robocape,0.0,0.0,0.0,0.0,10.0,0.0,0.0,0.0,10.0,0.0,0.0,0.0,10.0,0.0813595713019,0.627041278659,-0.187220224633,1.0,0.0,0.0,0.0,1.0,0.0,0.0,0.0,1.0,2.20940551758,-6.11448486328,6.25818603516,0.1,0.0,0.0,0.0,0.1,0.0,0.0,0.0,0.1
1446034847414716072,263,1446034847413378953,robocape,0.0,0.0,0.0,0.0,10.0,0.0,0.0,0.0,10.0,0.0,0.0,0.0,10.0,-0.111719607729,0.386824148334,-0.423708929432,1.0,0.0,0.0,0.0,1.0,0.0,0.0,0.0,1.0,-3.00335449219,-3.1039453125,6.77551025391,0.1,0.0,0.0,0.0,0.1,0.0,0.0,0.0,0.1
1446034847435309822,264,1446034847433492898,robocape,0.0,0.0,0.0,0.0,10.0,0.0,0.0,0.0,10.0,0.0,0.0,0.0,10.0,-0.128098048433,0.598545454995,-0.334892507077,1.0,0.0,0.0,0.0,1.0,0.0,0.0,0.0,1.0,-2.04774169922,-12.7510839844,10.612331543,0.1,0.0,0.0,0.0,0.1,0.0,0.0,0.0,0.1
1446034847459143864,265,1446034847456722974,robocape,0.0,0.0,0.0,0.0,10.0,0.0,0.0,0.0,10.0,0.0,0.0,0.0,10.0,0.0972053797879,0.260590312664,-0.198006027047,1.0,0.0,0.0,0.0,1.0,0.0,0.0,0.0,1.0,-1.05500610352,-3.58175170898,6.79227539063,0.1,0.0,0.0,0.0,0.1,0.0,0.0,0.0,0.1
1446034847474700947,266,1446034847473237991,robocape,0.0,0.0,0.0,0.0,10.0,0.0,0.0,0.0,10.0,0.0,0.0,0.0,10.0,0.0230363434292,0.391085206078,-0.229830802074,1.0,0.0,0.0,0.0,1.0,0.0,0.0,0.0,1.0,-1.27774291992,-2.71355712891,6.72880737305,0.1,0.0,0.0,0.0,0.1,0.0,0.0,0.0,0.1
1446034847494744906,267,1446034847493195056,robocape,0.0,0.0,0.0,0.0,10.0,0.0,0.0,0.0,10.0,0.0,0.0,0.0,10.0,0.0651142886524,0.40266995682,-0.298274042089,1.0,0.0,0.0,0.0,1.0,0.0,0.0,0.0,1.0,0.505349121094,-0.374820556641,8.04606811523,0.1,0.0,0.0,0.0,0.1,0.0,0.0,0.0,0.1
1446034847515132114,268,1446034847513336896,robocape,0.0,0.0,0.0,0.0,10.0,0.0,0.0,0.0,10.0,0.0,0.0,0.0,10.0,-0.068176923906,0.0605869147993,-0.0739027202497,1.0,0.0,0.0,0.0,1.0,0.0,0.0,0.0,1.0,4.09907592773,-1.08614135742,10.213560791,0.1,0.0,0.0,0.0,0.1,0.0,0.0,0.0,0.1
1446034847535767447,269,1446034847534235954,robocape,0.0,0.0,0.0,0.0,10.0,0.0,0.0,0.0,10.0,0.0,0.0,0.0,10.0,-0.0533963798561,0.352203054163,-0.214917099969,1.0,0.0,0.0,0.0,1.0,0.0,0.0,0.0,1.0,-0.959205322266,-9.57049804688,6.99824707031,0.1,0.0,0.0,0.0,0.1,0.0,0.0,0.0,0.1
1446034847554700322,270,1446034847553271055,robocape,0.0,0.0,0.0,0.0,10.0,0.0,0.0,0.0,10.0,0.0,0.0,0.0,10.0,0.0382163616426,0.184024431324,-0.53689327576,1.0,0.0,0.0,0.0,1.0,0.0,0.0,0.0,1.0,2.11839477539,-1.4980847168,7.27008178711,0.1,0.0,0.0,0.0,0.1,0.0,0.0,0.0,0.1
1446034847574411322,271,1446034847573029994,robocape,0.0,0.0,0.0,0.0,10.0,0.0,0.0,0.0,10.0,0.0,0.0,0.0,10.0,-0.113450662437,0.51265850984,-0.179363899417,1.0,0.0,0.0,0.0,1.0,0.0,0.0,0.0,1.0,-1.61663818359,-6.69527709961,10.4554577637,0.1,0.0,0.0,0.0,0.1,0.0,0.0,0.0,0.1
1446034847597660531,272,1446034847596257925,robocape,0.0,0.0,0.0,0.0,10.0,0.0,0.0,0.0,10.0,0.0,0.0,0.0,10.0,-0.0949416928613,0.099602224769,0.00759000910673,1.0,0.0,0.0,0.0,1.0,0.0,0.0,0.0,1.0,0.395178222656,-2.58302856445,6.56834106445,0.1,0.0,0.0,0.0,0.1,0.0,0.0,0.0,0.1
1446034847614841614,273,1446034847613080024,robocape,0.0,0.0,0.0,0.0,10.0,0.0,0.0,0.0,10.0,0.0,0.0,0.0,10.0,-0.15166702408,0.0648479725434,0.145408595518,1.0,0.0,0.0,0.0,1.0,0.0,0.0,0.0,1.0,1.86093017578,-6.29171630859,6.6294140625,0.1,0.0,0.0,0.0,0.1,0.0,0.0,0.0,0.1
1446034847635105781,274,1446034847633687019,robocape,0.0,0.0,0.0,0.0,10.0,0.0,0.0,0.0,10.0,0.0,0.0,0.0,10.0,-0.241815026979,-0.083756416283,-0.0700411366691,1.0,0.0,0.0,0.0,1.0,0.0,0.0,0.0,1.0,-0.251477050781,-6.81862060547,9.37650146484,0.1,0.0,0.0,0.0,0.1,0.0,0.0,0.0,0.1
1446034847658746489,275,1446034847656802892,robocape,0.0,0.0,0.0,0.0,10.0,0.0,0.0,0.0,10.0,0.0,0.0,0.0,10.0,-0.236488704799,-0.0540621701286,-0.0378168874791,1.0,0.0,0.0,0.0,1.0,0.0,0.0,0.0,1.0,0.658630371094,-8.66637817383,5.95761108398,0.1,0.0,0.0,0.0,0.1,0.0,0.0,0.0,0.1
1446034847675220239,276,1446034847673496007,robocape,0.0,0.0,0.0,0.0,10.0,0.0,0.0,0.0,10.0,0.0,0.0,0.0,10.0,-0.0376837294246,0.0596548084178,0.0933437962073,1.0,0.0,0.0,0.0,1.0,0.0,0.0,0.0,1.0,4.97325805664,-10.0950073242,7.45809082031,0.1,0.0,0.0,0.0,0.1,0.0,0.0,0.0,0.1
1446034847695054031,277,1446034847693269968,robocape,0.0,0.0,0.0,0.0,10.0,0.0,0.0,0.0,10.0,0.0,0.0,0.0,10.0,0.296276671271,-0.0637827081074,-0.149935969371,1.0,0.0,0.0,0.0,1.0,0.0,0.0,0.0,1.0,-4.37450317383,-8.42448120117,7.69519775391,0.1,0.0,0.0,0.0,0.1,0.0,0.0,0.0,0.1
1446034847716344448,278,1446034847714845895,robocape,0.0,0.0,0.0,0.0,10.0,0.0,0.0,0.0,10.0,0.0,0.0,0.0,10.0,0.246741874996,-0.183758115215,0.157392820424,1.0,0.0,0.0,0.0,1.0,0.0,0.0,0.0,1.0,0.295784912109,-2.16509765625,5.18641479492,0.1,0.0,0.0,0.0,0.1,0.0,0.0,0.0,0.1
1446034847735119948,279,1446034847733711004,robocape,0.0,0.0,0.0,0.0,10.0,0.0,0.0,0.0,10.0,0.0,0.0,0.0,10.0,-0.0119842249054,0.216648154678,0.300005096797,1.0,0.0,0.0,0.0,1.0,0.0,0.0,0.0,1.0,2.56506591797,-4.9433203125,8.6184777832,0.1,0.0,0.0,0.0,0.1,0.0,0.0,0.0,0.1
1446034847755869031,280,1446034847754436016,robocape,0.0,0.0,0.0,0.0,10.0,0.0,0.0,0.0,10.0,0.0,0.0,0.0,10.0,-0.0653806047614,-0.44168526679,-0.345811467547,1.0,0.0,0.0,0.0,1.0,0.0,0.0,0.0,1.0,-2.19623291016,-8.58375,7.24134155273,0.1,0.0,0.0,0.0,0.1,0.0,0.0,0.0,0.1
1446034847774708281,281,1446034847773186922,robocape,0.0,0.0,0.0,0.0,10.0,0.0,0.0,0.0,10.0,0.0,0.0,0.0,10.0,-0.278566650022,0.259258732119,-0.0929443220438,1.0,0.0,0.0,0.0,1.0,0.0,0.0,0.0,1.0,6.72042480469,-4.33857788086,6.17076782227,0.1,0.0,0.0,0.0,0.1,0.0,0.0,0.0,0.1
1446034847797230323,282,1446034847795775890,robocape,0.0,0.0,0.0,0.0,10.0,0.0,0.0,0.0,10.0,0.0,0.0,0.0,10.0,0.344479887002,0.599344403322,-0.345278835329,1.0,0.0,0.0,0.0,1.0,0.0,0.0,0.0,1.0,1.67771118164,-10.3213366699,4.35414550781,0.1,0.0,0.0,0.0,0.1,0.0,0.0,0.0,0.1
1446034847814506489,283,1446034847813102960,robocape,0.0,0.0,0.0,0.0,10.0,0.0,0.0,0.0,10.0,0.0,0.0,0.0,10.0,0.105993811385,0.0854874709915,-0.231695014837,1.0,0.0,0.0,0.0,1.0,0.0,0.0,0.0,1.0,-6.667734375,-7.02099975586,10.9871520996,0.1,0.0,0.0,0.0,0.1,0.0,0.0,0.0,0.1
1446034847834497198,284,1446034847833092927,robocape,0.0,0.0,0.0,0.0,10.0,0.0,0.0,0.0,10.0,0.0,0.0,0.0,10.0,-0.000399474163512,0.142612276374,0.0271642431188,1.0,0.0,0.0,0.0,1.0,0.0,0.0,0.0,1.0,0.783171386719,-6.26537109375,6.84855834961,0.1,0.0,0.0,0.0,0.1,0.0,0.0,0.0,0.1
1446034847859002323,285,1446034847857506990,robocape,0.0,0.0,0.0,0.0,10.0,0.0,0.0,0.0,10.0,0.0,0.0,0.0,10.0,0.24301344947,0.101200121423,-0.251269248849,1.0,0.0,0.0,0.0,1.0,0.0,0.0,0.0,1.0,-2.76505004883,-5.77079956055,8.14665893555,0.1,0.0,0.0,0.0,0.1,0.0,0.0,0.0,0.1
1446034847874806073,286,1446034847873420000,robocape,0.0,0.0,0.0,0.0,10.0,0.0,0.0,0.0,10.0,0.0,0.0,0.0,10.0,0.209723935844,0.307728263959,-0.14221280221,1.0,0.0,0.0,0.0,1.0,0.0,0.0,0.0,1.0,-3.68833007813,-4.13380371094,10.8183032227,0.1,0.0,0.0,0.0,0.1,0.0,0.0,0.0,0.1
1446034847894625864,287,1446034847893203973,robocape,0.0,0.0,0.0,0.0,10.0,0.0,0.0,0.0,10.0,0.0,0.0,0.0,10.0,0.229564485965,0.235822914527,-0.0992027506055,1.0,0.0,0.0,0.0,1.0,0.0,0.0,0.0,1.0,2.77942016602,-3.48595092773,8.56578735352,0.1,0.0,0.0,0.0,0.1,0.0,0.0,0.0,0.1
1446034847918087073,288,1446034847916225910,robocape,0.0,0.0,0.0,0.0,10.0,0.0,0.0,0.0,10.0,0.0,0.0,0.0,10.0,0.0536626959651,0.210922358334,-0.316117221392,1.0,0.0,0.0,0.0,1.0,0.0,0.0,0.0,1.0,-3.26800415039,-2.93988647461,8.45202392578,0.1,0.0,0.0,0.0,0.1,0.0,0.0,0.0,0.1
1446034847934926864,289,1446034847933438062,robocape,0.0,0.0,0.0,0.0,10.0,0.0,0.0,0.0,10.0,0.0,0.0,0.0,10.0,-0.142079644156,0.369380443194,-0.258859257956,1.0,0.0,0.0,0.0,1.0,0.0,0.0,0.0,1.0,-0.797541503906,-6.29411132813,11.1979138184,0.1,0.0,0.0,0.0,0.1,0.0,0.0,0.0,0.1
1446034847954700823,290,1446034847953099012,robocape,0.0,0.0,0.0,0.0,10.0,0.0,0.0,0.0,10.0,0.0,0.0,0.0,10.0,0.0633832339439,0.250869774685,-0.403202589038,1.0,0.0,0.0,0.0,1.0,0.0,0.0,0.0,1.0,-1.58071289063,-4.36612060547,9.89382568359,0.1,0.0,0.0,0.0,0.1,0.0,0.0,0.0,0.1
1446034847974753989,291,1446034847973311901,robocape,0.0,0.0,0.0,0.0,10.0,0.0,0.0,0.0,10.0,0.0,0.0,0.0,10.0,0.0818922035199,0.37457360732,-0.535828011324,1.0,0.0,0.0,0.0,1.0,0.0,0.0,0.0,1.0,0.294587402344,-2.23575073242,6.67970947266,0.1,0.0,0.0,0.0,0.1,0.0,0.0,0.0,0.1
1446034847996666323,292,1446034847995210886,robocape,0.0,0.0,0.0,0.0,10.0,0.0,0.0,0.0,10.0,0.0,0.0,0.0,10.0,0.100800647259,0.423975245541,-0.858203661278,1.0,0.0,0.0,0.0,1.0,0.0,0.0,0.0,1.0,-2.54710327148,-3.31111450195,9.82676513672,0.1,0.0,0.0,0.0,0.1,0.0,0.0,0.0,0.1
1446034848014942864,293,1446034848013175964,robocape,0.0,0.0,0.0,0.0,10.0,0.0,0.0,0.0,10.0,0.0,0.0,0.0,10.0,0.0186421276306,0.833968895358,-0.873117363382,1.0,0.0,0.0,0.0,1.0,0.0,0.0,0.0,1.0,1.3831237793,-3.04766235352,12.4541015625,0.1,0.0,0.0,0.0,0.1,0.0,0.0,0.0,0.1
1446034848034912739,294,1446034848033494949,robocape,0.0,0.0,0.0,0.0,10.0,0.0,0.0,0.0,10.0,0.0,0.0,0.0,10.0,-0.033023197517,0.697481889492,-1.04276072482,1.0,0.0,0.0,0.0,1.0,0.0,0.0,0.0,1.0,3.75419311523,-0.234711914063,7.58263183594,0.1,0.0,0.0,0.0,0.1,0.0,0.0,0.0,0.1
1446034848057717406,295,1446034848056293964,robocape,0.0,0.0,0.0,0.0,10.0,0.0,0.0,0.0,10.0,0.0,0.0,0.0,10.0,0.0721716655411,0.921720053276,-1.15940718057,1.0,0.0,0.0,0.0,1.0,0.0,0.0,0.0,1.0,-3.83322875977,-1.40108642578,11.5787219238,0.1,0.0,0.0,0.0,0.1,0.0,0.0,0.0,0.1
1446034848074543239,296,1446034848073136091,robocape,0.0,0.0,0.0,0.0,10.0,0.0,0.0,0.0,10.0,0.0,0.0,0.0,10.0,0.0258326625738,1.09868710771,-1.16819561216,1.0,0.0,0.0,0.0,1.0,0.0,0.0,0.0,1.0,-1.45497436523,-1.65855102539,13.3797766113,0.1,0.0,0.0,0.0,0.1,0.0,0.0,0.0,0.1
1446034848094936823,297,1446034848093235969,robocape,0.0,0.0,0.0,0.0,10.0,0.0,0.0,0.0,10.0,0.0,0.0,0.0,10.0,-0.130628051468,0.872851047273,-1.24382938712,1.0,0.0,0.0,0.0,1.0,0.0,0.0,0.0,1.0,-3.67036743164,-0.554447021484,7.18984863281,0.1,0.0,0.0,0.0,0.1,0.0,0.0,0.0,0.1
1446034848117749114,298,1446034848116348981,robocape,0.0,0.0,0.0,0.0,10.0,0.0,0.0,0.0,10.0,0.0,0.0,0.0,10.0,-0.414654181725,1.01572963976,-1.23623937801,1.0,0.0,0.0,0.0,1.0,0.0,0.0,0.0,1.0,-1.48251708984,-1.53999755859,9.40404418945,0.1,0.0,0.0,0.0,0.1,0.0,0.0,0.0,0.1
1446034848135559739,299,1446034848133224010,robocape,0.0,0.0,0.0,0.0,10.0,0.0,0.0,0.0,10.0,0.0,0.0,0.0,10.0,-0.449142117842,1.10081763658,-1.38657482155,1.0,0.0,0.0,0.0,1.0,0.0,0.0,0.0,1.0,2.05971679688,-3.8356237793,12.8528723145,0.1,0.0,0.0,0.0,0.1,0.0,0.0,0.0,0.1
1446034848157201281,300,1446034848155829906,robocape,0.0,0.0,0.0,0.0,10.0,0.0,0.0,0.0,10.0,0.0,0.0,0.0,10.0,-0.374040975102,1.14728979761,-1.47738861472,1.0,0.0,0.0,0.0,1.0,0.0,0.0,0.0,1.0,-0.850231933594,-3.31710205078,9.28788574219,0.1,0.0,0.0,0.0,0.1,0.0,0.0,0.0,0.1
1446034848176351031,301,1446034848174932956,robocape,0.0,0.0,0.0,0.0,10.0,0.0,0.0,0.0,10.0,0.0,0.0,0.0,10.0,-0.110121711075,1.11999239643,-1.70309151711,1.0,0.0,0.0,0.0,1.0,0.0,0.0,0.0,1.0,-2.86085083008,-0.607137451172,11.7739160156,0.1,0.0,0.0,0.0,0.1,0.0,0.0,0.0,0.1
1446034848195816906,302,1446034848194370985,robocape,0.0,0.0,0.0,0.0,10.0,0.0,0.0,0.0,10.0,0.0,0.0,0.0,10.0,-0.00306263525359,1.34569529882,-1.65755146247,1.0,0.0,0.0,0.0,1.0,0.0,0.0,0.0,1.0,1.35797607422,-3.97094238281,10.9775720215,0.1,0.0,0.0,0.0,0.1,0.0,0.0,0.0,0.1
1446034848214591614,303,1446034848213160991,robocape,0.0,0.0,0.0,0.0,10.0,0.0,0.0,0.0,10.0,0.0,0.0,0.0,10.0,0.0569916473277,1.4575480646,-1.57299609786,1.0,0.0,0.0,0.0,1.0,0.0,0.0,0.0,1.0,1.0693762207,-1.99026123047,9.13220947266,0.1,0.0,0.0,0.0,0.1,0.0,0.0,0.0,0.1
1446034848234926073,304,1446034848233459949,robocape,0.0,0.0,0.0,0.0,10.0,0.0,0.0,0.0,10.0,0.0,0.0,0.0,10.0,-0.0693753463966,1.09575763051,-1.5108112864,1.0,0.0,0.0,0.0,1.0,0.0,0.0,0.0,1.0,-0.935255126953,1.52083740234,7.69040771484,0.1,0.0,0.0,0.0,0.1,0.0,0.0,0.0,0.1
1446034848257387698,305,1446034848255918025,robocape,0.0,0.0,0.0,0.0,10.0,0.0,0.0,0.0,10.0,0.0,0.0,0.0,10.0,-0.398941531294,1.30761209523,-1.40015694311,1.0,0.0,0.0,0.0,1.0,0.0,0.0,0.0,1.0,2.86324584961,-1.27415039063,13.2037426758,0.1,0.0,0.0,0.0,0.1,0.0,0.0,0.0,0.1
1446034848275330073,306,1446034848273329019,robocape,0.0,0.0,0.0,0.0,10.0,0.0,0.0,0.0,10.0,0.0,0.0,0.0,10.0,-0.441152634572,1.13730294352,-1.56647135318,1.0,0.0,0.0,0.0,1.0,0.0,0.0,0.0,1.0,-3.51588867188,-0.870589599609,11.9415673828,0.1,0.0,0.0,0.0,0.1,0.0,0.0,0.0,0.1
1446034848295985239,307,1446034848294249057,robocape,0.0,0.0,0.0,0.0,10.0,0.0,0.0,0.0,10.0,0.0,0.0,0.0,10.0,-0.532632218016,1.24050043576,-1.47419282141,1.0,0.0,0.0,0.0,1.0,0.0,0.0,0.0,1.0,0.944835205078,-1.91481811523,8.05445068359,0.1,0.0,0.0,0.0,0.1,0.0,0.0,0.0,0.1
1446034848317920614,308,1446034848316414117,robocape,0.0,0.0,0.0,0.0,10.0,0.0,0.0,0.0,10.0,0.0,0.0,0.0,10.0,-0.343680938675,1.26952889164,-1.64250460231,1.0,0.0,0.0,0.0,1.0,0.0,0.0,0.0,1.0,-0.275427246094,-3.24046142578,13.9940991211,0.1,0.0,0.0,0.0,0.1,0.0,0.0,0.0,0.1
1446034848334972031,309,1446034848333587884,robocape,0.0,0.0,0.0,0.0,10.0,0.0,0.0,0.0,10.0,0.0,0.0,0.0,10.0,-0.208259197244,1.11972608032,-1.67166621624,1.0,0.0,0.0,0.0,1.0,0.0,0.0,0.0,1.0,-1.40946899414,-2.35550170898,10.2363134766,0.1,0.0,0.0,0.0,0.1,0.0,0.0,0.0,0.1
1446034848354582865,310,1446034848353207111,robocape,0.0,0.0,0.0,0.0,10.0,0.0,0.0,0.0,10.0,0.0,0.0,0.0,10.0,-0.198938133429,1.49256863293,-1.6334498546,1.0,0.0,0.0,0.0,1.0,0.0,0.0,0.0,1.0,-6.207890625,-2.52794311523,11.302097168,0.1,0.0,0.0,0.0,0.1,0.0,0.0,0.0,0.1
1446034848378906490,311,1446034848376616001,robocape,0.0,0.0,0.0,0.0,10.0,0.0,0.0,0.0,10.0,0.0,0.0,0.0,10.0,-0.221708160749,1.38271323797,-1.63118616767,1.0,0.0,0.0,0.0,1.0,0.0,0.0,0.0,1.0,2.74469238281,-3.97094238281,11.1512109375,0.1,0.0,0.0,0.0,0.1,0.0,0.0,0.0,0.1
1446034848394907615,312,1446034848393475055,robocape,0.0,0.0,0.0,0.0,10.0,0.0,0.0,0.0,10.0,0.0,0.0,0.0,10.0,-0.176567580272,1.32319158761,-1.65115987585,1.0,0.0,0.0,0.0,1.0,0.0,0.0,0.0,1.0,-3.06083496094,-4.45593383789,11.2769494629,0.1,0.0,0.0,0.0,0.1,0.0,0.0,0.0,0.1
1446034848414886365,313,1446034848413414001,robocape,0.0,0.0,0.0,0.0,10.0,0.0,0.0,0.0,10.0,0.0,0.0,0.0,10.0,-0.259525048228,1.1218566092,-1.55009291248,1.0,0.0,0.0,0.0,1.0,0.0,0.0,0.0,1.0,0.837059326172,0.204774169922,9.73216186523,0.1,0.0,0.0,0.0,0.1,0.0,0.0,0.0,0.1
1446034848434911115,314,1446034848433460950,robocape,0.0,0.0,0.0,0.0,10.0,0.0,0.0,0.0,10.0,0.0,0.0,0.0,10.0,-0.294146142399,1.31919684597,-1.51533866026,1.0,0.0,0.0,0.0,1.0,0.0,0.0,0.0,1.0,1.21906494141,-2.23335571289,10.1872155762,0.1,0.0,0.0,0.0,0.1,0.0,0.0,0.0,0.1
1446034848455578698,315,1446034848454114913,robocape,0.0,0.0,0.0,0.0,10.0,0.0,0.0,0.0,10.0,0.0,0.0,0.0,10.0,-0.266449267062,1.32106105873,-1.56127818906,1.0,0.0,0.0,0.0,1.0,0.0,0.0,0.0,1.0,4.83434692383,-1.14721435547,12.4864343262,0.1,0.0,0.0,0.0,0.1,0.0,0.0,0.0,0.1
1446034848474509740,316,1446034848473120927,robocape,0.0,0.0,0.0,0.0,10.0,0.0,0.0,0.0,10.0,0.0,0.0,0.0,10.0,-0.242347659197,1.13903399823,-1.57619189116,1.0,0.0,0.0,0.0,1.0,0.0,0.0,0.0,1.0,-0.0814306640625,-1.52203491211,10.5021606445,0.1,0.0,0.0,0.0,0.1,0.0,0.0,0.0,0.1
1446034848495192281,317,1446034848493465900,robocape,0.0,0.0,0.0,0.0,10.0,0.0,0.0,0.0,10.0,0.0,0.0,0.0,10.0,-0.25632925492,1.33570844473,-1.58258347778,1.0,0.0,0.0,0.0,1.0,0.0,0.0,0.0,1.0,1.07057373047,-4.47030395508,13.2360754395,0.1,0.0,0.0,0.0,0.1,0.0,0.0,0.0,0.1
1446034848517444406,318,1446034848515947103,robocape,0.0,0.0,0.0,0.0,10.0,0.0,0.0,0.0,10.0,0.0,0.0,0.0,10.0,-0.215050258024,1.25834361506,-1.54423395808,1.0,0.0,0.0,0.0,1.0,0.0,0.0,0.0,1.0,0.761616210938,-3.00095947266,10.9164990234,0.1,0.0,0.0,0.0,0.1,0.0,0.0,0.0,0.1
1446034848535054573,319,1446034848533252954,robocape,0.0,0.0,0.0,0.0,10.0,0.0,0.0,0.0,10.0,0.0,0.0,0.0,10.0,-0.283360339984,1.09975237215,-1.53824184563,1.0,0.0,0.0,0.0,1.0,0.0,0.0,0.0,1.0,-1.39390136719,-1.40946899414,9.55373291016,0.1,0.0,0.0,0.0,0.1,0.0,0.0,0.0,0.1
1446034848554706615,320,1446034848553265094,robocape,0.0,0.0,0.0,0.0,10.0,0.0,0.0,0.0,10.0,0.0,0.0,0.0,10.0,-0.328234604352,1.0524812628,-1.50188969675,1.0,0.0,0.0,0.0,1.0,0.0,0.0,0.0,1.0,12.6373205566,-0.876577148438,10.7632177734,0.1,0.0,0.0,0.0,0.1,0.0,0.0,0.0,0.1
1446034848578023865,321,1446034848576158046,robocape,0.0,0.0,0.0,0.0,10.0,0.0,0.0,0.0,10.0,0.0,0.0,0.0,10.0,-0.303999838433,1.08710235697,-1.68245201866,1.0,0.0,0.0,0.0,1.0,0.0,0.0,0.0,1.0,-3.74461303711,-0.189206542969,10.2482885742,0.1,0.0,0.0,0.0,0.1,0.0,0.0,0.0,0.1
1446034848595066198,322,1446034848593167066,robocape,0.0,0.0,0.0,0.0,10.0,0.0,0.0,0.0,10.0,0.0,0.0,0.0,10.0,-0.297608251816,1.39123535346,-1.65595356581,1.0,0.0,0.0,0.0,1.0,0.0,0.0,0.0,1.0,2.56027587891,-2.13396240234,11.8050512695,0.1,0.0,0.0,0.0,0.1,0.0,0.0,0.0,0.1
1446034848615102615,323,1446034848613307952,robocape,0.0,0.0,0.0,0.0,10.0,0.0,0.0,0.0,10.0,0.0,0.0,0.0,10.0,-0.207859723081,1.29496208005,-1.71813837726,1.0,0.0,0.0,0.0,1.0,0.0,0.0,0.0,1.0,1.44180175781,0.489781494141,10.3800146484,0.1,0.0,0.0,0.0,0.1,0.0,0.0,0.0,0.1
1446034848636403656,324,1446034848634881973,robocape,0.0,0.0,0.0,0.0,10.0,0.0,0.0,0.0,10.0,0.0,0.0,0.0,10.0,-0.314519324738,1.11626397091,-1.61813667833,1.0,0.0,0.0,0.0,1.0,0.0,0.0,0.0,1.0,3.15304321289,0.886157226563,10.2985839844,0.1,0.0,0.0,0.0,0.1,0.0,0.0,0.0,0.1
1446034848655604906,325,1446034848653951883,robocape,0.0,0.0,0.0,0.0,10.0,0.0,0.0,0.0,10.0,0.0,0.0,0.0,10.0,-0.461925291074,1.12784872165,-1.5078818092,1.0,0.0,0.0,0.0,1.0,0.0,0.0,0.0,1.0,-0.150886230469,0.953217773438,9.93573852539,0.1,0.0,0.0,0.0,0.1,0.0,0.0,0.0,0.1
1446034848674855948,326,1446034848673428058,robocape,0.0,0.0,0.0,0.0,10.0,0.0,0.0,0.0,10.0,0.0,0.0,0.0,10.0,-0.540888017395,1.17711720182,-1.44276752055,1.0,0.0,0.0,0.0,1.0,0.0,0.0,0.0,1.0,-1.01069824219,-0.393980712891,10.7739953613,0.1,0.0,0.0,0.0,0.1,0.0,0.0,0.0,0.1
1446034848694790031,327,1446034848693327903,robocape,0.0,0.0,0.0,0.0,10.0,0.0,0.0,0.0,10.0,0.0,0.0,0.0,10.0,-0.613325999045,0.961267995464,-1.29682629281,1.0,0.0,0.0,0.0,1.0,0.0,0.0,0.0,1.0,-2.67523681641,-1.39030883789,12.9295129395,0.1,0.0,0.0,0.0,0.1,0.0,0.0,0.0,0.1
1446034848719485448,328,1446034848718067884,robocape,0.0,0.0,0.0,0.0,10.0,0.0,0.0,0.0,10.0,0.0,0.0,0.0,10.0,-0.621315482315,0.935302174836,-1.08816762141,1.0,0.0,0.0,0.0,1.0,0.0,0.0,0.0,1.0,-1.03704345703,-3.80568603516,8.50950439453,0.1,0.0,0.0,0.0,0.1,0.0,0.0,0.0,0.1
1446034848734862865,329,1446034848733407020,robocape,0.0,0.0,0.0,0.0,10.0,0.0,0.0,0.0,10.0,0.0,0.0,0.0,10.0,-0.607333886593,0.837697320884,-0.987233816092,1.0,0.0,0.0,0.0,1.0,0.0,0.0,0.0,1.0,-1.67172363281,-5.28580810547,9.06514892578,0.1,0.0,0.0,0.0,0.1,0.0,0.0,0.0,0.1
1446034848754711531,330,1446034848753336906,robocape,0.0,0.0,0.0,0.0,10.0,0.0,0.0,0.0,10.0,0.0,0.0,0.0,10.0,-0.537825382142,0.49255164361,-0.934769542618,1.0,0.0,0.0,0.0,1.0,0.0,0.0,0.0,1.0,0.621507568359,-7.25810668945,10.7871679688,0.1,0.0,0.0,0.0,0.1,0.0,0.0,0.0,0.1
1446034848776968990,331,1446034848775325059,robocape,0.0,0.0,0.0,0.0,10.0,0.0,0.0,0.0,10.0,0.0,0.0,0.0,10.0,-0.377636242573,0.787763050445,-0.778175670521,1.0,0.0,0.0,0.0,1.0,0.0,0.0,0.0,1.0,2.86444335938,-9.08071655273,7.14075073242,0.1,0.0,0.0,0.0,0.1,0.0,0.0,0.0,0.1
1446034848794956073,332,1446034848793164014,robocape,0.0,0.0,0.0,0.0,10.0,0.0,0.0,0.0,10.0,0.0,0.0,0.0,10.0,-0.0402137324602,0.538624330469,-0.93157374931,1.0,0.0,0.0,0.0,1.0,0.0,0.0,0.0,1.0,2.84169067383,-2.99377441406,10.5081481934,0.1,0.0,0.0,0.0,0.1,0.0,0.0,0.0,0.1
1446034848814641990,333,1446034848813247919,robocape,0.0,0.0,0.0,0.0,10.0,0.0,0.0,0.0,10.0,0.0,0.0,0.0,10.0,0.160854929841,0.526773263618,-0.651675518742,1.0,0.0,0.0,0.0,1.0,0.0,0.0,0.0,1.0,-1.37713623047,-5.31215332031,8.11073364258,0.1,0.0,0.0,0.0,0.1,0.0,0.0,0.0,0.1
1446034848838475198,334,1446034848836575031,robocape,0.0,0.0,0.0,0.0,10.0,0.0,0.0,0.0,10.0,0.0,0.0,0.0,10.0,0.130494893414,0.509063242369,-0.359127272997,1.0,0.0,0.0,0.0,1.0,0.0,0.0,0.0,1.0,0.6514453125,-2.41657470703,8.78732666016,0.1,0.0,0.0,0.0,0.1,0.0,0.0,0.0,0.1
1446034848854924281,335,1446034848853426933,robocape,0.0,0.0,0.0,0.0,10.0,0.0,0.0,0.0,10.0,0.0,0.0,0.0,10.0,-0.238752391726,0.169776519493,-0.309858792831,1.0,0.0,0.0,0.0,1.0,0.0,0.0,0.0,1.0,-3.99728759766,-3.76736572266,6.75994262695,0.1,0.0,0.0,0.0,0.1,0.0,0.0,0.0,0.1
1446034848874845740,336,1446034848873298883,robocape,0.0,0.0,0.0,0.0,10.0,0.0,0.0,0.0,10.0,0.0,0.0,0.0,10.0,-0.231828172891,0.31398669252,-0.393348893005,1.0,0.0,0.0,0.0,1.0,0.0,0.0,0.0,1.0,-2.07169189453,-7.27127929688,10.2231408691,0.1,0.0,0.0,0.0,0.1,0.0,0.0,0.0,0.1
1446034848894697073,337,1446034848893280029,robocape,0.0,0.0,0.0,0.0,10.0,0.0,0.0,0.0,10.0,0.0,0.0,0.0,10.0,-0.0146473859954,0.380965193936,-0.54488275903,1.0,0.0,0.0,0.0,1.0,0.0,0.0,0.0,1.0,0.129331054688,1.25978027344,10.5189257813,0.1,0.0,0.0,0.0,0.1,0.0,0.0,0.0,0.1
1446034848915661448,338,1446034848914165019,robocape,0.0,0.0,0.0,0.0,10.0,0.0,0.0,0.0,10.0,0.0,0.0,0.0,10.0,0.159257033187,0.517452199802,-0.715058752686,1.0,0.0,0.0,0.0,1.0,0.0,0.0,0.0,1.0,-2.67284179688,-3.50870361328,9.5034375,0.1,0.0,0.0,0.0,0.1,0.0,0.0,0.0,0.1
1446034848935015323,339,1446034848933357000,robocape,0.0,0.0,0.0,0.0,10.0,0.0,0.0,0.0,10.0,0.0,0.0,0.0,10.0,0.174836525564,0.569650157168,-0.681636081006,1.0,0.0,0.0,0.0,1.0,0.0,0.0,0.0,1.0,0.837059326172,-2.39022949219,9.52259765625,0.1,0.0,0.0,0.0,0.1,0.0,0.0,0.0,0.1
1446034848955016281,340,1446034848953200101,robocape,0.0,0.0,0.0,0.0,10.0,0.0,0.0,0.0,10.0,0.0,0.0,0.0,10.0,0.131826473959,0.459395288039,-0.806138861967,1.0,0.0,0.0,0.0,1.0,0.0,0.0,0.0,1.0,2.00582885742,-0.500559082031,8.18617675781,0.1,0.0,0.0,0.0,0.1,0.0,0.0,0.0,0.1
1446034848976524073,341,1446034848975126981,robocape,0.0,0.0,0.0,0.0,10.0,0.0,0.0,0.0,10.0,0.0,0.0,0.0,10.0,0.104928546949,0.822517302671,-0.944090606433,1.0,0.0,0.0,0.0,1.0,0.0,0.0,0.0,1.0,3.26680664063,-1.52562744141,10.9009313965,0.1,0.0,0.0,0.0,0.1,0.0,0.0,0.0,0.1
1446034848994956406,342,1446034848993539094,robocape,0.0,0.0,0.0,0.0,10.0,0.0,0.0,0.0,10.0,0.0,0.0,0.0,10.0,0.0977380120059,0.869255779802,-1.08963236001,1.0,0.0,0.0,0.0,1.0,0.0,0.0,0.0,1.0,-0.619112548828,-1.29091552734,11.669732666,0.1,0.0,0.0,0.0,0.1,0.0,0.0,0.0,0.1
1446034849014988906,343,1446034849013217926,robocape,0.0,0.0,0.0,0.0,10.0,0.0,0.0,0.0,10.0,0.0,0.0,0.0,10.0,0.227700273202,1.01240068839,-1.27112678829,1.0,0.0,0.0,0.0,1.0,0.0,0.0,0.0,1.0,4.58406738281,-1.51844238281,11.2793444824,0.1,0.0,0.0,0.0,0.1,0.0,0.0,0.0,0.1
1446034849038607615,344,1446034849037087917,robocape,0.0,0.0,0.0,0.0,10.0,0.0,0.0,0.0,10.0,0.0,0.0,0.0,10.0,0.443416321498,1.21240408626,-1.77739371152,1.0,0.0,0.0,0.0,1.0,0.0,0.0,0.0,1.0,3.63204711914,-3.57097412109,11.726015625,0.1,0.0,0.0,0.0,0.1,0.0,0.0,0.0,0.1
1446034849054727990,345,1446034849053250074,robocape,0.0,0.0,0.0,0.0,10.0,0.0,0.0,0.0,10.0,0.0,0.0,0.0,10.0,1.20135196773,1.44969173938,-2.29924012712,1.0,0.0,0.0,0.0,1.0,0.0,0.0,0.0,1.0,1.08494384766,-4.47629150391,13.3905541992,0.1,0.0,0.0,0.0,0.1,0.0,0.0,0.0,0.1
1446034849074397865,346,1446034849073024034,robocape,0.0,0.0,0.0,0.0,10.0,0.0,0.0,0.0,10.0,0.0,0.0,0.0,10.0,1.8491659029,1.64889618892,-2.75610541212,1.0,0.0,0.0,0.0,1.0,0.0,0.0,0.0,1.0,0.989143066406,-5.57201293945,13.5210827637,0.1,0.0,0.0,0.0,0.1,0.0,0.0,0.0,0.1
1446034849096155990,347,1446034849094739913,robocape,0.0,0.0,0.0,0.0,10.0,0.0,0.0,0.0,10.0,0.0,0.0,0.0,10.0,2.91629455169,1.639308809,-3.39912565732,1.0,0.0,0.0,0.0,1.0,0.0,0.0,0.0,1.0,1.60466308594,-5.65104858398,11.1272607422,0.1,0.0,0.0,0.0,0.1,0.0,0.0,0.0,0.1
1446034849115286657,348,1446034849113797903,robocape,0.0,0.0,0.0,0.0,10.0,0.0,0.0,0.0,10.0,0.0,0.0,0.0,10.0,3.66544176633,1.62546037133,-3.81431247127,1.0,0.0,0.0,0.0,1.0,0.0,0.0,0.0,1.0,-0.445473632813,-5.34448608398,8.34664306641,0.1,0.0,0.0,0.0,0.1,0.0,0.0,0.0,0.1
1446034849134836865,349,1446034849133084058,robocape,0.0,0.0,0.0,0.0,10.0,0.0,0.0,0.0,10.0,0.0,0.0,0.0,10.0,4.36318997193,1.26486835973,-3.98568688741,1.0,0.0,0.0,0.0,1.0,0.0,0.0,0.0,1.0,-3.44044555664,-5.85582275391,5.99832641602,0.1,0.0,0.0,0.0,0.1,0.0,0.0,0.0,0.1
1446034849160470532,350,1446034849158535957,robocape,0.0,0.0,0.0,0.0,10.0,0.0,0.0,0.0,10.0,0.0,0.0,0.0,10.0,4.36318997193,0.950881667213,-4.13362548597,1.0,0.0,0.0,0.0,1.0,0.0,0.0,0.0,1.0,-6.61384643555,-5.39118896484,3.79251342773,0.1,0.0,0.0,0.0,0.1,0.0,0.0,0.0,0.1
1446034849179235907,351,1446034849177583932,robocape,0.0,0.0,0.0,0.0,10.0,0.0,0.0,0.0,10.0,0.0,0.0,0.0,10.0,4.36318997193,0.629171807531,-4.09687386292,1.0,0.0,0.0,0.0,1.0,0.0,0.0,0.0,1.0,-6.49289794922,-4.12901367188,0.227526855469,0.1,0.0,0.0,0.0,0.1,0.0,0.0,0.0,0.1
1446034849195171615,352,1446034849193355083,robocape,0.0,0.0,0.0,0.0,10.0,0.0,0.0,0.0,10.0,0.0,0.0,0.0,10.0,4.36318997193,0.202000768683,-3.96584633729,1.0,0.0,0.0,0.0,1.0,0.0,0.0,0.0,1.0,-6.48092285156,-3.17938842773,-3.58893676758,0.1,0.0,0.0,0.0,0.1,0.0,0.0,0.0,0.1
1446034849215043657,353,1446034849213654994,robocape,0.0,0.0,0.0,0.0,10.0,0.0,0.0,0.0,10.0,0.0,0.0,0.0,10.0,4.36318997193,-0.157126504315,-3.71564235288,1.0,0.0,0.0,0.0,1.0,0.0,0.0,0.0,1.0,-8.55620727539,-4.13140869141,-7.51676879883,0.1,0.0,0.0,0.0,0.1,0.0,0.0,0.0,0.1
1446034849237643115,354,1446034849236131906,robocape,0.0,0.0,0.0,0.0,10.0,0.0,0.0,0.0,10.0,0.0,0.0,0.0,10.0,4.36318997193,-0.415053655889,-3.2698291864,1.0,0.0,0.0,0.0,1.0,0.0,0.0,0.0,1.0,-6.1276574707,-2.38424194336,-10.6662194824,0.1,0.0,0.0,0.0,0.1,0.0,0.0,0.0,0.1
1446034849254929490,355,1446034849253231048,robocape,0.0,0.0,0.0,0.0,10.0,0.0,0.0,0.0,10.0,0.0,0.0,0.0,10.0,4.36318997193,-0.591221761998,-2.45583399922,1.0,0.0,0.0,0.0,1.0,0.0,0.0,0.0,1.0,-5.79474975586,19.6194012451,-6.35398681641,0.1,0.0,0.0,0.0,0.1,0.0,0.0,0.0,0.1
1446034849275276532,356,1446034849273468017,robocape,0.0,0.0,0.0,0.0,10.0,0.0,0.0,0.0,10.0,0.0,0.0,0.0,10.0,4.36318997193,-1.06353338132,0.0267647689553,1.0,0.0,0.0,0.0,1.0,0.0,0.0,0.0,1.0,1.89326293945,19.6194012451,-0.300574951172,0.1,0.0,0.0,0.0,0.1,0.0,0.0,0.0,0.1
1446034849297745907,357,1446034849295819044,robocape,0.0,0.0,0.0,0.0,10.0,0.0,0.0,0.0,10.0,0.0,0.0,0.0,10.0,2.37008021212,0.71133032716,2.13478992981,1.0,0.0,0.0,0.0,1.0,0.0,0.0,0.0,1.0,19.6194012451,19.6194012451,15.6286999512,0.1,0.0,0.0,0.0,0.1,0.0,0.0,0.0,0.1
1446034849314710657,358,1446034849313244104,robocape,0.0,0.0,0.0,0.0,10.0,0.0,0.0,0.0,10.0,0.0,0.0,0.0,10.0,0.501739549371,0.778575144685,1.82919219472,1.0,0.0,0.0,0.0,1.0,0.0,0.0,0.0,1.0,10.2985839844,19.6194012451,7.11560302734,0.1,0.0,0.0,0.0,0.1,0.0,0.0,0.0,0.1
1446034849334802407,359,1446034849333333969,robocape,0.0,0.0,0.0,0.0,10.0,0.0,0.0,0.0,10.0,0.0,0.0,0.0,10.0,-2.5100293274,1.39935799478,2.63146947311,1.0,0.0,0.0,0.0,1.0,0.0,0.0,0.0,1.0,1.48610961914,9.62558349609,1.37354370117,0.1,0.0,0.0,0.0,0.1,0.0,0.0,0.0,0.1
1446034849354559823,360,1446034849353172063,robocape,0.0,0.0,0.0,0.0,10.0,0.0,0.0,0.0,10.0,0.0,0.0,0.0,10.0,-2.43053396886,1.33237949337,2.13945046172,1.0,0.0,0.0,0.0,1.0,0.0,0.0,0.0,1.0,-2.0345690918,0.486188964844,0.467028808594,0.1,0.0,0.0,0.0,0.1,0.0,0.0,0.0,0.1
1446034849377671115,361,1446034849375984907,robocape,0.0,0.0,0.0,0.0,10.0,0.0,0.0,0.0,10.0,0.0,0.0,0.0,10.0,-1.83691536188,1.34449687633,1.30255208916,1.0,0.0,0.0,0.0,1.0,0.0,0.0,0.0,1.0,-1.16517700195,-0.805924072266,0.0383203125,0.1,0.0,0.0,0.0,0.1,0.0,0.0,0.0,0.1
1446034849395351115,362,1446034849393929958,robocape,0.0,0.0,0.0,0.0,10.0,0.0,0.0,0.0,10.0,0.0,0.0,0.0,10.0,-1.62133247164,1.47326071503,0.884302639961,1.0,0.0,0.0,0.0,1.0,0.0,0.0,0.0,1.0,3.33147216797,-0.732875976563,1.20349731445,0.1,0.0,0.0,0.0,0.1,0.0,0.0,0.0,0.1
1446034849414497282,363,1446034849413098096,robocape,0.0,0.0,0.0,0.0,10.0,0.0,0.0,0.0,10.0,0.0,0.0,0.0,10.0,-0.92065478884,2.40683183516,0.341284093694,1.0,0.0,0.0,0.0,1.0,0.0,0.0,0.0,1.0,4.21762939453,-1.64537841797,1.77710449219,0.1,0.0,0.0,0.0,0.1,0.0,0.0,0.0,0.1
1446034849435022948,364,1446034849433242082,robocape,0.0,0.0,0.0,0.0,10.0,0.0,0.0,0.0,10.0,0.0,0.0,0.0,10.0,-0.556201193663,2.89219294383,-0.121573303762,1.0,0.0,0.0,0.0,1.0,0.0,0.0,0.0,1.0,-19.62,0.549656982422,12.4493115234,0.1,0.0,0.0,0.0,0.1,0.0,0.0,0.0,0.1
1446034849457396240,365,1446034849455988883,robocape,0.0,0.0,0.0,0.0,10.0,0.0,0.0,0.0,10.0,0.0,0.0,0.0,10.0,0.0778974618848,1.31693315904,0.387623096661,1.0,0.0,0.0,0.0,1.0,0.0,0.0,0.0,1.0,-8.353828125,4.10985351563,19.6194012451,0.1,0.0,0.0,0.0,0.1,0.0,0.0,0.0,0.1
1446034849474568157,366,1446034849473170042,robocape,0.0,0.0,0.0,0.0,10.0,0.0,0.0,0.0,10.0,0.0,0.0,0.0,10.0,0.168178622839,0.0416784710597,0.194810233739,1.0,0.0,0.0,0.0,1.0,0.0,0.0,0.0,1.0,-5.85342773438,-0.526904296875,14.3856848145,0.1,0.0,0.0,0.0,0.1,0.0,0.0,0.0,0.1
1446034849495408740,367,1446034849493609905,robocape,0.0,0.0,0.0,0.0,10.0,0.0,0.0,0.0,10.0,0.0,0.0,0.0,10.0,0.612393892664,-0.202000768683,0.240616604489,1.0,0.0,0.0,0.0,1.0,0.0,0.0,0.0,1.0,1.76512939453,1.88248535156,5.94084594727,0.1,0.0,0.0,0.0,0.1,0.0,0.0,0.0,0.1
1446034849516721032,368,1446034849515269994,robocape,0.0,0.0,0.0,0.0,10.0,0.0,0.0,0.0,10.0,0.0,0.0,0.0,10.0,0.531433795525,0.737162989734,1.07019128405,1.0,0.0,0.0,0.0,1.0,0.0,0.0,0.0,1.0,8.04966064453,7.88679931641,8.92743530273,0.1,0.0,0.0,0.0,0.1,0.0,0.0,0.0,0.1
1446034849534961740,369,1446034849533165931,robocape,0.0,0.0,0.0,0.0,10.0,0.0,0.0,0.0,10.0,0.0,0.0,0.0,10.0,-0.0375505713701,1.14475979457,1.51680339885,1.0,0.0,0.0,0.0,1.0,0.0,0.0,0.0,1.0,3.71826782227,7.42216552734,15.404765625,0.1,0.0,0.0,0.0,0.1,0.0,0.0,0.0,0.1
1446034849554672907,370,1446034849553232908,robocape,0.0,0.0,0.0,0.0,10.0,0.0,0.0,0.0,10.0,0.0,0.0,0.0,10.0,-0.443815795662,1.11626397091,1.7250625961,1.0,0.0,0.0,0.0,1.0,0.0,0.0,0.0,1.0,4.92535766602,5.16845214844,10.6913671875,0.1,0.0,0.0,0.0,0.1,0.0,0.0,0.0,0.1
1446034849578630782,371,1446034849576375007,robocape,0.0,0.0,0.0,0.0,10.0,0.0,0.0,0.0,10.0,0.0,0.0,0.0,10.0,-0.631568652512,1.48431283356,1.97340236775,1.0,0.0,0.0,0.0,1.0,0.0,0.0,0.0,1.0,4.33738037109,1.86931274414,12.5582849121,0.1,0.0,0.0,0.0,0.1,0.0,0.0,0.0,0.1
1446034849595012907,372,1446034849593527078,robocape,0.0,0.0,0.0,0.0,10.0,0.0,0.0,0.0,10.0,0.0,0.0,0.0,10.0,-0.538757488523,1.46021122569,1.88005857154,1.0,0.0,0.0,0.0,1.0,0.0,0.0,0.0,1.0,1.84536254883,3.14466064453,13.0025610352,0.1,0.0,0.0,0.0,0.1,0.0,0.0,0.0,0.1
1446034849614651907,373,1446034849613092899,robocape,0.0,0.0,0.0,0.0,10.0,0.0,0.0,0.0,10.0,0.0,0.0,0.0,10.0,-0.397876266858,1.24649254821,1.74823209758,1.0,0.0,0.0,0.0,1.0,0.0,0.0,0.0,1.0,0.929267578125,0.904119873047,10.7919580078,0.1,0.0,0.0,0.0,0.1,0.0,0.0,0.0,0.1
1446034849636512657,374,1446034849634252071,robocape,0.0,0.0,0.0,0.0,10.0,0.0,0.0,0.0,10.0,0.0,0.0,0.0,10.0,-0.254465042157,1.24263096463,1.66820410683,1.0,0.0,0.0,0.0,1.0,0.0,0.0,0.0,1.0,-5.75403442383,1.97708862305,9.74892700195,0.1,0.0,0.0,0.0,0.1,0.0,0.0,0.0,0.1
1446034849656541282,375,1446034849654836893,robocape,0.0,0.0,0.0,0.0,10.0,0.0,0.0,0.0,10.0,0.0,0.0,0.0,10.0,-0.0454068965859,1.35301899181,1.54596501279,1.0,0.0,0.0,0.0,1.0,0.0,0.0,0.0,1.0,-2.03337158203,0.718505859375,10.3416943359,0.1,0.0,0.0,0.0,0.1,0.0,0.0,0.0,0.1
1446034849674883115,376,1446034849673477888,robocape,0.0,0.0,0.0,0.0,10.0,0.0,0.0,0.0,10.0,0.0,0.0,0.0,10.0,0.112119081892,0.993092770491,1.43051697954,1.0,0.0,0.0,0.0,1.0,0.0,0.0,0.0,1.0,2.93988647461,1.44299926758,8.7753515625,0.1,0.0,0.0,0.0,0.1,0.0,0.0,0.0,0.1
1446034849695178865,377,1446034849693350076,robocape,0.0,0.0,0.0,0.0,10.0,0.0,0.0,0.0,10.0,0.0,0.0,0.0,10.0,0.339153564822,1.08403972172,1.42399223487,1.0,0.0,0.0,0.0,1.0,0.0,0.0,0.0,1.0,-2.27407104492,1.77949951172,10.8458459473,0.1,0.0,0.0,0.0,0.1,0.0,0.0,0.0,0.1
1446034849716977990,378,1446034849715507030,robocape,0.0,0.0,0.0,0.0,10.0,0.0,0.0,0.0,10.0,0.0,0.0,0.0,10.0,0.402270482656,1.167796138,1.33770581555,1.0,0.0,0.0,0.0,1.0,0.0,0.0,0.0,1.0,6.27854370117,2.1423449707,9.61241088867,0.1,0.0,0.0,0.0,0.1,0.0,0.0,0.0,0.1
1446034849734602282,379,1446034849733175039,robocape,0.0,0.0,0.0,0.0,10.0,0.0,0.0,0.0,10.0,0.0,0.0,0.0,10.0,0.499475862444,1.0659302263,1.45195542631,1.0,0.0,0.0,0.0,1.0,0.0,0.0,0.0,1.0,0.173638916016,2.51716552734,12.1271813965,0.1,0.0,0.0,0.0,0.1,0.0,0.0,0.0,0.1
1446034849754823282,380,1446034849753195047,robocape,0.0,0.0,0.0,0.0,10.0,0.0,0.0,0.0,10.0,0.0,0.0,0.0,10.0,0.520914309219,0.990296451346,1.504952332,1.0,0.0,0.0,0.0,1.0,0.0,0.0,0.0,1.0,1.75794433594,1.76033935547,11.9607275391,0.1,0.0,0.0,0.0,0.1,0.0,0.0,0.0,0.1
1446034849777834282,381,1446034849776381969,robocape,0.0,0.0,0.0,0.0,10.0,0.0,0.0,0.0,10.0,0.0,0.0,0.0,10.0,0.570182789386,1.06899286156,1.4944328457,1.0,0.0,0.0,0.0,1.0,0.0,0.0,0.0,1.0,-1.42982666016,1.53161499023,11.3464050293,0.1,0.0,0.0,0.0,0.1,0.0,0.0,0.0,0.1
1446034849794860699,382,1446034849793286085,robocape,0.0,0.0,0.0,0.0,10.0,0.0,0.0,0.0,10.0,0.0,0.0,0.0,10.0,0.633832339439,1.05634284638,1.44702857829,1.0,0.0,0.0,0.0,1.0,0.0,0.0,0.0,1.0,2.91952880859,0.602347412109,11.552376709,0.1,0.0,0.0,0.0,0.1,0.0,0.0,0.0,0.1
1446034849814557907,383,1446034849813169002,robocape,0.0,0.0,0.0,0.0,10.0,0.0,0.0,0.0,10.0,0.0,0.0,0.0,10.0,0.759267226782,1.09882026577,1.35275267571,1.0,0.0,0.0,0.0,1.0,0.0,0.0,0.0,1.0,1.56155273438,1.26576782227,10.2626586914,0.1,0.0,0.0,0.0,0.1,0.0,0.0,0.0,0.1
1446034849836336865,384,1446034849834949016,robocape,0.0,0.0,0.0,0.0,10.0,0.0,0.0,0.0,10.0,0.0,0.0,0.0,10.0,0.927046375457,1.22918200113,1.33451002224,1.0,0.0,0.0,0.0,1.0,0.0,0.0,0.0,1.0,-2.87282592773,2.84049316406,12.3918310547,0.1,0.0,0.0,0.0,0.1,0.0,0.0,0.0,0.1
1446034849855412699,385,1446034849854022979,robocape,0.0,0.0,0.0,0.0,10.0,0.0,0.0,0.0,10.0,0.0,0.0,0.0,10.0,1.02052332972,1.08870025362,1.26753152082,1.0,0.0,0.0,0.0,1.0,0.0,0.0,0.0,1.0,0.296982421875,3.77335327148,10.6195166016,0.1,0.0,0.0,0.0,0.1,0.0,0.0,0.0,0.1
1446034849874825949,386,1446034849873434066,robocape,0.0,0.0,0.0,0.0,10.0,0.0,0.0,0.0,10.0,0.0,0.0,0.0,10.0,0.902678451482,1.26366993724,1.49549811013,1.0,0.0,0.0,0.0,1.0,0.0,0.0,0.0,1.0,0.458646240234,6.34440673828,10.4626428223,0.1,0.0,0.0,0.0,0.1,0.0,0.0,0.0,0.1
1446034849894627490,387,1446034849893158912,robocape,0.0,0.0,0.0,0.0,10.0,0.0,0.0,0.0,10.0,0.0,0.0,0.0,10.0,0.319845646919,1.51200970889,1.73291892131,1.0,0.0,0.0,0.0,1.0,0.0,0.0,0.0,1.0,5.30377075195,8.02690795898,12.3702758789,0.1,0.0,0.0,0.0,0.1,0.0,0.0,0.0,0.1
1446034849916437990,388,1446034849914972066,robocape,0.0,0.0,0.0,0.0,10.0,0.0,0.0,0.0,10.0,0.0,0.0,0.0,10.0,-0.131426999795,1.68910992138,1.90402702135,1.0,0.0,0.0,0.0,1.0,0.0,0.0,0.0,1.0,4.80321166992,6.92639648438,11.3344299316,0.1,0.0,0.0,0.0,0.1,0.0,0.0,0.0,0.1
1446034849934951157,389,1446034849933173894,robocape,0.0,0.0,0.0,0.0,10.0,0.0,0.0,0.0,10.0,0.0,0.0,0.0,10.0,-0.399207847403,1.5640745082,1.91321492711,1.0,0.0,0.0,0.0,1.0,0.0,0.0,0.0,1.0,-0.294587402344,4.16374145508,12.375065918,0.1,0.0,0.0,0.0,0.1,0.0,0.0,0.0,0.1
1446034849954912574,390,1446034849953104019,robocape,0.0,0.0,0.0,0.0,10.0,0.0,0.0,0.0,10.0,0.0,0.0,0.0,10.0,-0.471113196835,1.25860993117,1.84690221597,1.0,0.0,0.0,0.0,1.0,0.0,0.0,0.0,1.0,-1.03345092773,2.38903198242,8.20892944336,0.1,0.0,0.0,0.0,0.1,0.0,0.0,0.0,0.1
1446034849976617574,391,1446034849975150108,robocape,0.0,0.0,0.0,0.0,10.0,0.0,0.0,0.0,10.0,0.0,0.0,0.0,10.0,-0.370578865685,1.31280525935,1.78977741059,1.0,0.0,0.0,0.0,1.0,0.0,0.0,0.0,1.0,-3.53504882813,2.70996459961,11.9882702637,0.1,0.0,0.0,0.0,0.1,0.0,0.0,0.0,0.1
1446034849994842615,392,1446034849993475914,robocape,0.0,0.0,0.0,0.0,10.0,0.0,0.0,0.0,10.0,0.0,0.0,0.0,10.0,-0.383894671135,1.31626736877,1.74663420093,1.0,0.0,0.0,0.0,1.0,0.0,0.0,0.0,1.0,3.28357177734,2.32077392578,12.8277246094,0.1,0.0,0.0,0.0,0.1,0.0,0.0,0.0,0.1
1446034850014987407,393,1446034850013232946,robocape,0.0,0.0,0.0,0.0,10.0,0.0,0.0,0.0,10.0,0.0,0.0,0.0,10.0,-0.388555203043,1.06206864272,1.7385115596,1.0,0.0,0.0,0.0,1.0,0.0,0.0,0.0,1.0,0.00838256835938,1.41904907227,10.3764221191,0.1,0.0,0.0,0.0,0.1,0.0,0.0,0.0,0.1
1446034850038448240,394,1446034850036336898,robocape,0.0,0.0,0.0,0.0,10.0,0.0,0.0,0.0,10.0,0.0,0.0,0.0,10.0,-0.327036181862,1.14289558181,1.70788520707,1.0,0.0,0.0,0.0,1.0,0.0,0.0,0.0,1.0,0.82388671875,2.79019775391,11.2158764648,0.1,0.0,0.0,0.0,0.1,0.0,0.0,0.0,0.1
1446034850054697865,395,1446034850053241968,robocape,0.0,0.0,0.0,0.0,10.0,0.0,0.0,0.0,10.0,0.0,0.0,0.0,10.0,-0.391750996351,1.09935289798,1.72599470248,1.0,0.0,0.0,0.0,1.0,0.0,0.0,0.0,1.0,0.882564697266,2.60099121094,11.536809082,0.1,0.0,0.0,0.0,0.1,0.0,0.0,0.0,0.1
1446034850074687865,396,1446034850073280096,robocape,0.0,0.0,0.0,0.0,10.0,0.0,0.0,0.0,10.0,0.0,0.0,0.0,10.0,-0.425706300249,1.01040331758,1.72732628303,1.0,0.0,0.0,0.0,1.0,0.0,0.0,0.0,1.0,2.93150390625,2.77702514648,9.96567626953,0.1,0.0,0.0,0.0,0.1,0.0,0.0,0.0,0.1
1446034850096749490,397,1446034850094516992,robocape,0.0,0.0,0.0,0.0,10.0,0.0,0.0,0.0,10.0,0.0,0.0,0.0,10.0,-0.498144281899,1.09029815028,1.73358471159,1.0,0.0,0.0,0.0,1.0,0.0,0.0,0.0,1.0,-0.113763427734,3.02131713867,12.931907959,0.1,0.0,0.0,0.0,0.1,0.0,0.0,0.0,0.1
1446034850115544699,398,1446034850114065885,robocape,0.0,0.0,0.0,0.0,10.0,0.0,0.0,0.0,10.0,0.0,0.0,0.0,10.0,-0.555135929227,0.957805886047,1.70029519796,1.0,0.0,0.0,0.0,1.0,0.0,0.0,0.0,1.0,-2.34232910156,2.70038452148,10.8195007324,0.1,0.0,0.0,0.0,0.1,0.0,0.0,0.0,0.1
1446034850134604407,399,1446034850133151054,robocape,0.0,0.0,0.0,0.0,10.0,0.0,0.0,0.0,10.0,0.0,0.0,0.0,10.0,-0.569250683004,1.22092620175,1.68365044115,1.0,0.0,0.0,0.0,1.0,0.0,0.0,0.0,1.0,2.54351074219,2.26209594727,12.9690307617,0.1,0.0,0.0,0.0,0.1,0.0,0.0,0.0,0.1
1446034850158113865,400,1446034850156399011,robocape,0.0,0.0,0.0,0.0,10.0,0.0,0.0,0.0,10.0,0.0,0.0,0.0,10.0,-0.734632986698,1.12385398001,1.68538149586,1.0,0.0,0.0,0.0,1.0,0.0,0.0,0.0,1.0,4.85949462891,3.45960571289,12.0840710449,0.1,0.0,0.0,0.0,0.1,0.0,0.0,0.0,0.1
1446034850180079449,401,1446034850178631067,robocape,0.0,0.0,0.0,0.0,10.0,0.0,0.0,0.0,10.0,0.0,0.0,0.0,10.0,-0.847417858863,0.624777591733,1.75262631338,1.0,0.0,0.0,0.0,1.0,0.0,0.0,0.0,1.0,-7.47365844727,2.5710534668,9.87945556641,0.1,0.0,0.0,0.0,0.1,0.0,0.0,0.0,0.1
1446034850195141907,402,1446034850193315029,robocape,0.0,0.0,0.0,0.0,10.0,0.0,0.0,0.0,10.0,0.0,0.0,0.0,10.0,-0.914928992497,0.927579007675,1.6911072922,1.0,0.0,0.0,0.0,1.0,0.0,0.0,0.0,1.0,-1.38551879883,2.60458374023,9.85311035156,0.1,0.0,0.0,0.0,0.1,0.0,0.0,0.0,0.1
1446034850214639157,403,1446034850213202953,robocape,0.0,0.0,0.0,0.0,10.0,0.0,0.0,0.0,10.0,0.0,0.0,0.0,10.0,-1.1634019222,0.898151077629,1.79337267806,1.0,0.0,0.0,0.0,1.0,0.0,0.0,0.0,1.0,2.66565673828,4.01884277344,12.7810217285,0.1,0.0,0.0,0.0,0.1,0.0,0.0,0.0,0.1
1446034850238156907,404,1446034850236691951,robocape,0.0,0.0,0.0,0.0,10.0,0.0,0.0,0.0,10.0,0.0,0.0,0.0,10.0,-1.40441800085,0.62823970115,1.90309491497,1.0,0.0,0.0,0.0,1.0,0.0,0.0,0.0,1.0,-2.33274902344,2.36508178711,9.51900512695,0.1,0.0,0.0,0.0,0.1,0.0,0.0,0.0,0.1
1446034850254648365,405,1446034850253211021,robocape,0.0,0.0,0.0,0.0,10.0,0.0,0.0,0.0,10.0,0.0,0.0,0.0,10.0,-1.67313095484,0.913597411952,1.88871384508,1.0,0.0,0.0,0.0,1.0,0.0,0.0,0.0,1.0,1.73279663086,3.73623046875,10.7380700684,0.1,0.0,0.0,0.0,0.1,0.0,0.0,0.0,0.1
1446034850275048199,406,1446034850273251056,robocape,0.0,0.0,0.0,0.0,10.0,0.0,0.0,0.0,10.0,0.0,0.0,0.0,10.0,-2.0030966139,0.4390221057,1.95329550152,1.0,0.0,0.0,0.0,1.0,0.0,0.0,0.0,1.0,7.37426513672,3.89669677734,10.7668103027,0.1,0.0,0.0,0.0,0.1,0.0,0.0,0.0,0.1
1446034850296262532,407,1446034850294781923,robocape,0.0,0.0,0.0,0.0,10.0,0.0,0.0,0.0,10.0,0.0,0.0,0.0,10.0,-2.6180205096,0.321177227464,2.18419156803,1.0,0.0,0.0,0.0,1.0,0.0,0.0,0.0,1.0,-5.22593261719,4.90260498047,8.78253662109,0.1,0.0,0.0,0.0,0.1,0.0,0.0,0.0,0.1
1446034850314987907,408,1446034850313504934,robocape,0.0,0.0,0.0,0.0,10.0,0.0,0.0,0.0,10.0,0.0,0.0,0.0,10.0,-3.07741579764,0.495481120809,2.41415552816,1.0,0.0,0.0,0.0,1.0,0.0,0.0,0.0,1.0,-6.38751708984,4.75052124023,10.0099841309,0.1,0.0,0.0,0.0,0.1,0.0,0.0,0.0,0.1
1446034850334858949,409,1446034850333336114,robocape,0.0,0.0,0.0,0.0,10.0,0.0,0.0,0.0,10.0,0.0,0.0,0.0,10.0,-3.80818720076,0.39587889604,2.5056351116,1.0,0.0,0.0,0.0,1.0,0.0,0.0,0.0,1.0,0.09580078125,4.42958862305,7.56466918945,0.1,0.0,0.0,0.0,0.1,0.0,0.0,0.0,0.1
1446034850354521407,410,1446034850353046894,robocape,0.0,0.0,0.0,0.0,10.0,0.0,0.0,0.0,10.0,0.0,0.0,0.0,10.0,-4.31405464982,0.0255663464648,2.5527730629,1.0,0.0,0.0,0.0,1.0,0.0,0.0,0.0,1.0,0.894539794922,3.39973022461,6.67372192383,0.1,0.0,0.0,0.0,0.1,0.0,0.0,0.0,0.1
1446034850377060949,411,1446034850375591993,robocape,0.0,0.0,0.0,0.0,10.0,0.0,0.0,0.0,10.0,0.0,0.0,0.0,10.0,-4.36332312999,0.351404105836,2.5720809808,1.0,0.0,0.0,0.0,1.0,0.0,0.0,0.0,1.0,-7.31798217773,3.71467529297,5.15408203125,0.1,0.0,0.0,0.0,0.1,0.0,0.0,0.0,0.1
1446034850394776449,412,1446034850393371105,robocape,0.0,0.0,0.0,0.0,10.0,0.0,0.0,0.0,10.0,0.0,0.0,0.0,10.0,-4.36332312999,-0.366717282104,2.38978760418,1.0,0.0,0.0,0.0,1.0,0.0,0.0,0.0,1.0,-4.24517211914,3.908671875,0.621507568359,0.1,0.0,0.0,0.0,0.1,0.0,0.0,0.0,0.1
1446034850414484907,413,1446034850412978887,robocape,0.0,0.0,0.0,0.0,10.0,0.0,0.0,0.0,10.0,0.0,0.0,0.0,10.0,-4.36332312999,-0.257927151574,2.26089060742,1.0,0.0,0.0,0.0,1.0,0.0,0.0,0.0,1.0,-1.69926635742,4.28349243164,1.16038696289,0.1,0.0,0.0,0.0,0.1,0.0,0.0,0.0,0.1
1446034850437278991,414,1446034850435745954,robocape,0.0,0.0,0.0,0.0,10.0,0.0,0.0,0.0,10.0,0.0,0.0,0.0,10.0,-4.36332312999,-0.603605461066,1.96794288751,1.0,0.0,0.0,0.0,1.0,0.0,0.0,0.0,1.0,-3.48475341797,3.85478393555,-0.772393798828,0.1,0.0,0.0,0.0,0.1,0.0,0.0,0.0,0.1
1446034850454955449,415,1446034850453162908,robocape,0.0,0.0,0.0,0.0,10.0,0.0,0.0,0.0,10.0,0.0,0.0,0.0,10.0,-4.36332312999,-0.939696390634,1.5225291952,1.0,0.0,0.0,0.0,1.0,0.0,0.0,0.0,1.0,-4.34815795898,-2.3339465332,-1.24301513672,0.1,0.0,0.0,0.0,0.1,0.0,0.0,0.0,0.1
1446034850474622366,416,1446034850473181009,robocape,0.0,0.0,0.0,0.0,10.0,0.0,0.0,0.0,10.0,0.0,0.0,0.0,10.0,-4.36332312999,-0.769786713087,0.0801611488114,1.0,0.0,0.0,0.0,1.0,0.0,0.0,0.0,1.0,3.81167358398,-19.62,4.39605834961,0.1,0.0,0.0,0.0,0.1,0.0,0.0,0.0,0.1
1446034850498663866,417,1446034850496543884,robocape,0.0,0.0,0.0,0.0,10.0,0.0,0.0,0.0,10.0,0.0,0.0,0.0,10.0,-0.961001679355,1.28484206791,-2.08458934326,1.0,0.0,0.0,0.0,1.0,0.0,0.0,0.0,1.0,19.6194012451,-19.62,15.5113439941,0.1,0.0,0.0,0.0,0.1,0.0,0.0,0.0,0.1
1446034850514618074,418,1446034850513179063,robocape,0.0,0.0,0.0,0.0,10.0,0.0,0.0,0.0,10.0,0.0,0.0,0.0,10.0,1.82493113698,2.64451896245,-2.80723810505,1.0,0.0,0.0,0.0,1.0,0.0,0.0,0.0,1.0,1.36995117188,-19.62,12.9690307617,0.1,0.0,0.0,0.0,0.1,0.0,0.0,0.0,0.1
1446034850534607699,419,1446034850533078908,robocape,0.0,0.0,0.0,0.0,10.0,0.0,0.0,0.0,10.0,0.0,0.0,0.0,10.0,2.83280445152,2.46129347945,-2.97661515038,1.0,0.0,0.0,0.0,1.0,0.0,0.0,0.0,1.0,-1.21547241211,-3.91825195313,4.95050537109,0.1,0.0,0.0,0.0,0.1,0.0,0.0,0.0,0.1
1446034850556609699,420,1446034850554368972,robocape,0.0,0.0,0.0,0.0,10.0,0.0,0.0,0.0,10.0,0.0,0.0,0.0,10.0,2.67288162806,2.1271999207,-2.54651463433,1.0,0.0,0.0,0.0,1.0,0.0,0.0,0.0,1.0,-8.09157348633,-1.1879296875,4.89541992188,0.1,0.0,0.0,0.0,0.1,0.0,0.0,0.0,0.1
1446034850575522741,421,1446034850574031114,robocape,0.0,0.0,0.0,0.0,10.0,0.0,0.0,0.0,10.0,0.0,0.0,0.0,10.0,2.29777538852,1.35048898878,-1.8582206506,1.0,0.0,0.0,0.0,1.0,0.0,0.0,0.0,1.0,-3.63923217773,1.85494262695,9.73216186523,0.1,0.0,0.0,0.0,0.1,0.0,0.0,0.0,0.1
1446034850595362532,422,1446034850593544006,robocape,0.0,0.0,0.0,0.0,10.0,0.0,0.0,0.0,10.0,0.0,0.0,0.0,10.0,1.98365553795,1.26540099195,-1.5845808486,1.0,0.0,0.0,0.0,1.0,0.0,0.0,0.0,1.0,-0.968785400391,0.534089355469,10.1704504395,0.1,0.0,0.0,0.0,0.1,0.0,0.0,0.0,0.1
1446034850614856324,423,1446034850613070011,robocape,0.0,0.0,0.0,0.0,10.0,0.0,0.0,0.0,10.0,0.0,0.0,0.0,10.0,1.77526318265,0.649411831816,-1.51640392469,1.0,0.0,0.0,0.0,1.0,0.0,0.0,0.0,1.0,-5.76361450195,0.477806396484,8.73822875977,0.1,0.0,0.0,0.0,0.1,0.0,0.0,0.0,0.1
1446034850636578324,424,1446034850635088920,robocape,0.0,0.0,0.0,0.0,10.0,0.0,0.0,0.0,10.0,0.0,0.0,0.0,10.0,1.67419621928,0.624910749787,-1.4575480646,1.0,0.0,0.0,0.0,1.0,0.0,0.0,0.0,1.0,-4.47150146484,0.611927490234,9.8483203125,0.1,0.0,0.0,0.0,0.1,0.0,0.0,0.0,0.1
1446034850654516991,425,1446034850653100013,robocape,0.0,0.0,0.0,0.0,10.0,0.0,0.0,0.0,10.0,0.0,0.0,0.0,10.0,1.56900135622,0.759267226782,-1.4382401467,1.0,0.0,0.0,0.0,1.0,0.0,0.0,0.0,1.0,3.43206298828,-0.267044677734,11.4877111816,0.1,0.0,0.0,0.0,0.1,0.0,0.0,0.0,0.1
1446034850675176866,426,1446034850673707962,robocape,0.0,0.0,0.0,0.0,10.0,0.0,0.0,0.0,10.0,0.0,0.0,0.0,10.0,1.60548666315,0.497212175518,-1.49216915877,1.0,0.0,0.0,0.0,1.0,0.0,0.0,0.0,1.0,-2.69200195313,0.0898132324219,8.71667358398,0.1,0.0,0.0,0.0,0.1,0.0,0.0,0.0,0.1
1446034850698912616,427,1446034850697412014,robocape,0.0,0.0,0.0,0.0,10.0,0.0,0.0,0.0,10.0,0.0,0.0,0.0,10.0,1.74530262038,0.57178068604,-1.57406136229,1.0,0.0,0.0,0.0,1.0,0.0,0.0,0.0,1.0,-1.40467895508,-1.06698120117,12.052935791,0.1,0.0,0.0,0.0,0.1,0.0,0.0,0.0,0.1
1446034850714910366,428,1446034850713443994,robocape,0.0,0.0,0.0,0.0,10.0,0.0,0.0,0.0,10.0,0.0,0.0,0.0,10.0,1.93851495747,0.560062777244,-1.7089504715,1.0,0.0,0.0,0.0,1.0,0.0,0.0,0.0,1.0,0.009580078125,-1.16158447266,12.2876477051,0.1,0.0,0.0,0.0,0.1,0.0,0.0,0.0,0.1
1446034850734791866,429,1446034850733407020,robocape,0.0,0.0,0.0,0.0,10.0,0.0,0.0,0.0,10.0,0.0,0.0,0.0,10.0,2.21854634609,0.454068965859,-1.79750057775,1.0,0.0,0.0,0.0,1.0,0.0,0.0,0.0,1.0,-3.06442749023,-0.597557373047,6.65815429688,0.1,0.0,0.0,0.0,0.1,0.0,0.0,0.0,0.1
1446034850756316116,430,1446034850754908084,robocape,0.0,0.0,0.0,0.0,10.0,0.0,0.0,0.0,10.0,0.0,0.0,0.0,10.0,2.4939172028,0.329033552679,-1.84024431324,1.0,0.0,0.0,0.0,1.0,0.0,0.0,0.0,1.0,2.96024414063,-1.84536254883,7.52036132813,0.1,0.0,0.0,0.0,0.1,0.0,0.0,0.0,0.1
1446034850775287949,431,1446034850773798942,robocape,0.0,0.0,0.0,0.0,10.0,0.0,0.0,0.0,10.0,0.0,0.0,0.0,10.0,3.06316788581,0.372842552611,-1.97713079327,1.0,0.0,0.0,0.0,1.0,0.0,0.0,0.0,1.0,-4.04039794922,-0.917292480469,10.0830322266,0.1,0.0,0.0,0.0,0.1,0.0,0.0,0.0,0.1
1446034850794910657,432,1446034850793100118,robocape,0.0,0.0,0.0,0.0,10.0,0.0,0.0,0.0,10.0,0.0,0.0,0.0,10.0,3.33893821669,0.319845646919,-2.01574662908,1.0,0.0,0.0,0.0,1.0,0.0,0.0,0.0,1.0,-2.66685424805,-1.05141357422,6.79946044922,0.1,0.0,0.0,0.0,0.1,0.0,0.0,0.0,0.1
1446034850814653032,433,1446034850813204050,robocape,0.0,0.0,0.0,0.0,10.0,0.0,0.0,0.0,10.0,0.0,0.0,0.0,10.0,3.91990680849,-0.00146473859954,-1.95768971732,1.0,0.0,0.0,0.0,1.0,0.0,0.0,0.0,1.0,-3.5637890625,-1.13883178711,8.0053527832,0.1,0.0,0.0,0.0,0.1,0.0,0.0,0.0,0.1
1446034850836912532,434,1446034850835509061,robocape,0.0,0.0,0.0,0.0,10.0,0.0,0.0,0.0,10.0,0.0,0.0,0.0,10.0,4.32910150998,-0.11265171411,-1.95742340121,1.0,0.0,0.0,0.0,1.0,0.0,0.0,0.0,1.0,-3.65479980469,-1.15080688477,7.85326904297,0.1,0.0,0.0,0.0,0.1,0.0,0.0,0.0,0.1
1446034850854884657,435,1446034850853084087,robocape,0.0,0.0,0.0,0.0,10.0,0.0,0.0,0.0,10.0,0.0,0.0,0.0,10.0,4.36318997193,-0.114515926873,-1.92559862618,1.0,0.0,0.0,0.0,1.0,0.0,0.0,0.0,1.0,-2.35789672852,-1.1460168457,1.94834838867,0.1,0.0,0.0,0.0,0.1,0.0,0.0,0.0,0.1
1446034850874869741,436,1446034850873070001,robocape,0.0,0.0,0.0,0.0,10.0,0.0,0.0,0.0,10.0,0.0,0.0,0.0,10.0,4.36318997193,-0.0990695925509,-1.77899160817,1.0,0.0,0.0,0.0,1.0,0.0,0.0,0.0,1.0,-4.05237304688,-0.453856201172,1.34959350586,0.1,0.0,0.0,0.0,0.1,0.0,0.0,0.0,0.1
1446034850896826824,437,1446034850895405054,robocape,0.0,0.0,0.0,0.0,10.0,0.0,0.0,0.0,10.0,0.0,0.0,0.0,10.0,4.36318997193,-0.136620163921,-1.36966374863,1.0,0.0,0.0,0.0,1.0,0.0,0.0,0.0,1.0,4.20445678711,0.138911132813,3.20094360352,0.1,0.0,0.0,0.0,0.1,0.0,0.0,0.0,0.1
