%time,field.header.seq,field.header.stamp,field.header.frame_id,field.orientation.x,field.orientation.y,field.orientation.z,field.orientation.w,field.orientation_covariance0,field.orientation_covariance1,field.orientation_covariance2,field.orientation_covariance3,field.orientation_covariance4,field.orientation_covariance5,field.orientation_covariance6,field.orientation_covariance7,field.orientation_covariance8,field.angular_velocity.x,field.angular_velocity.y,field.angular_velocity.z,field.angular_velocity_covariance0,field.angular_velocity_covariance1,field.angular_velocity_covariance2,field.angular_velocity_covariance3,field.angular_velocity_covariance4,field.angular_velocity_covariance5,field.angular_velocity_covariance6,field.angular_velocity_covariance7,field.angular_velocity_covariance8,field.linear_acceleration.x,field.linear_acceleration.y,field.linear_acceleration.z,field.linear_acceleration_covariance0,field.linear_acceleration_covariance1,field.linear_acceleration_covariance2,field.linear_acceleration_covariance3,field.linear_acceleration_covariance4,field.linear_acceleration_covariance5,field.linear_acceleration_covariance6,field.linear_acceleration_covariance7,field.linear_acceleration_covariance8
1446036124632859407,1,1446036124620064020,robocape,3.85042513924,7.15155778905,-17.9838545258,0.0,10.0,0.0,0.0,0.0,10.0,0.0,0.0,0.0,10.0,0.15020228548,0.0237021337017,0.00545948023466,1.0,0.0,0.0,0.0,1.0,0.0,0.0,0.0,1.0,-0.130528564453,-0.228724365234,10.0938098145,0.1,0.0,0.0,0.0,0.1,0.0,0.0,0.0,0.1
1446036124651219907,2,1446036124647303104,robocape,4.06036350728,7.17643601952,-17.9412302836,0.0,10.0,0.0,0.0,0.0,10.0,0.0,0.0,0.0,10.0,0.112385398001,0.0211721306661,0.00266316109008,1.0,0.0,0.0,0.0,1.0,0.0,0.0,0.0,1.0,-0.176033935547,-0.0359252929688,10.1441052246,0.1,0.0,0.0,0.0,0.1,0.0,0.0,0.0,0.1
1446036124684469573,3,1446036124680325031,robocape,4.18385937886,7.19327514713,-17.8942655344,0.0,10.0,0.0,0.0,0.0,10.0,0.0,0.0,0.0,10.0,0.066845343361,0.0170442309765,0.00559263828917,1.0,0.0,0.0,0.0,1.0,0.0,0.0,0.0,1.0,-0.113763427734,0.0802331542969,10.1405126953,0.1,0.0,0.0,0.0,0.1,0.0,0.0,0.0,0.1
1446036124722277532,4,1446036124714015960,robocape,4.12531346106,7.20850480713,-17.8508030985,0.0,10.0,0.0,0.0,0.0,10.0,0.0,0.0,0.0,10.0,-0.0284958236638,0.015845808486,0.00452737385313,1.0,0.0,0.0,0.0,1.0,0.0,0.0,0.0,1.0,-0.156873779297,0.0419128417969,10.1309326172,0.1,0.0,0.0,0.0,0.1,0.0,0.0,0.0,0.1
1446036124758324698,5,1446036124754895925,robocape,3.97836435323,7.22000612962,-17.833193411,0.0,10.0,0.0,0.0,0.0,10.0,0.0,0.0,0.0,10.0,-0.0732369299772,0.0129163312869,-0.00865527354276,1.0,0.0,0.0,0.0,1.0,0.0,0.0,0.0,1.0,-0.165256347656,-0.110170898438,10.1069824219,0.1,0.0,0.0,0.0,0.1,0.0,0.0,0.0,0.1
1446036124784171448,6,1446036124780993938,robocape,3.77417652089,7.22524409043,-17.7793083398,0.0,10.0,0.0,0.0,0.0,10.0,0.0,0.0,0.0,10.0,-0.105993811385,0.0106526443603,0.0111852765783,1.0,0.0,0.0,0.0,1.0,0.0,0.0,0.0,1.0,-0.104183349609,-0.47900390625,10.1129699707,0.1,0.0,0.0,0.0,0.1,0.0,0.0,0.0,0.1
1446036124817031115,7,1446036124814012050,robocape,3.6127978105,7.23218491443,-17.7379399302,0.0,10.0,0.0,0.0,0.0,10.0,0.0,0.0,0.0,10.0,-0.0828243099015,0.0111852765783,0.00439421579863,1.0,0.0,0.0,0.0,1.0,0.0,0.0,0.0,1.0,-0.108973388672,-0.797541503906,10.1165625,0.1,0.0,0.0,0.0,0.1,0.0,0.0,0.0,0.1
1446036124852914740,8,1446036124849613904,robocape,3.55363844572,7.24719530752,-17.6999723514,0.0,10.0,0.0,0.0,0.0,10.0,0.0,0.0,0.0,10.0,-0.0290284558819,0.0154463343225,0.00199737081756,1.0,0.0,0.0,0.0,1.0,0.0,0.0,0.0,1.0,-0.09580078125,-0.960402832031,10.1033898926,0.1,0.0,0.0,0.0,0.1,0.0,0.0,0.0,0.1
1446036124886129365,9,1446036124882370948,robocape,3.56784741927,7.26661884941,-17.6580842964,0.0,10.0,0.0,0.0,0.0,10.0,0.0,0.0,0.0,10.0,0.00918790576077,0.017976337358,0.00372842552611,1.0,0.0,0.0,0.0,1.0,0.0,0.0,0.0,1.0,-0.0850231933594,-0.912502441406,10.1261425781,0.1,0.0,0.0,0.0,0.1,0.0,0.0,0.0,0.1
1446036124919170407,10,1446036124914638996,robocape,3.718578006,7.28909403902,-17.6146685475,0.0,10.0,0.0,0.0,0.0,10.0,0.0,0.0,0.0,10.0,0.0808269390839,0.0198405501211,0.00399474163512,1.0,0.0,0.0,0.0,1.0,0.0,0.0,0.0,1.0,-0.101788330078,-0.644260253906,10.1069824219,0.1,0.0,0.0,0.0,0.1,0.0,0.0,0.0,0.1
1446036124953307199,11,1446036124949541091,robocape,3.86715506831,7.31098656631,-17.5720182509,0.0,10.0,0.0,0.0,0.0,10.0,0.0,0.0,0.0,10.0,0.0798948327024,0.0195742340121,0.00359526747161,1.0,0.0,0.0,0.0,1.0,0.0,0.0,0.0,1.0,-0.122145996094,-0.300574951172,10.1117724609,0.1,0.0,0.0,0.0,0.1,0.0,0.0,0.0,0.1
1446036124984917365,12,1446036124981662034,robocape,3.95316240609,7.33039717416,-17.5292026235,0.0,10.0,0.0,0.0,0.0,10.0,0.0,0.0,0.0,10.0,0.0471379512944,0.018242653467,0.00399474163512,1.0,0.0,0.0,0.0,1.0,0.0,0.0,0.0,1.0,-0.136516113281,-0.132923583984,10.1153649902,0.1,0.0,0.0,0.0,0.1,0.0,0.0,0.0,0.1
1446036125020671449,13,1446036125015837907,robocape,3.95247633458,7.34556213532,-17.4800996728,0.0,10.0,0.0,0.0,0.0,10.0,0.0,0.0,0.0,10.0,0.00119842249054,0.016112124595,0.00785632521573,1.0,0.0,0.0,0.0,1.0,0.0,0.0,0.0,1.0,-0.136516113281,-0.126936035156,10.136920166,0.1,0.0,0.0,0.0,0.1,0.0,0.0,0.0,0.1
1446036125050857324,14,1446036125047738075,robocape,3.87417331121,7.35556803816,-17.4300572819,0.0,10.0,0.0,0.0,0.0,10.0,0.0,0.0,0.0,10.0,-0.0396811002422,0.0133158054504,0.00892158965177,1.0,0.0,0.0,0.0,1.0,0.0,0.0,0.0,1.0,-0.129331054688,-0.253872070313,10.1165625,0.1,0.0,0.0,0.0,0.1,0.0,0.0,0.0,0.1
1446036125085706615,15,1446036125082288980,robocape,3.76540925911,7.36554560875,-17.3816357121,0.0,10.0,0.0,0.0,0.0,10.0,0.0,0.0,0.0,10.0,-0.0556600667827,0.0131826473959,0.00825579937925,1.0,0.0,0.0,0.0,1.0,0.0,0.0,0.0,1.0,-0.113763427734,-0.499361572266,10.0985998535,0.1,0.0,0.0,0.0,0.1,0.0,0.0,0.0,0.1
1446036125121094407,16,1446036125117341995,robocape,3.69228132432,7.37787844951,-17.3354693456,0.0,10.0,0.0,0.0,0.0,10.0,0.0,0.0,0.0,10.0,-0.0368847810976,0.0143810698864,0.00692421883421,1.0,0.0,0.0,0.0,1.0,0.0,0.0,0.0,1.0,-0.104183349609,-0.694555664063,10.1057849121,0.1,0.0,0.0,0.0,0.1,0.0,0.0,0.0,0.1
1446036125153292740,17,1446036125149873971,robocape,3.6891324037,7.39398158014,-17.2919702147,0.0,10.0,0.0,0.0,0.0,10.0,0.0,0.0,0.0,10.0,0.0,0.016378440704,0.00519316412565,1.0,0.0,0.0,0.0,1.0,0.0,0.0,0.0,1.0,-0.105380859375,-0.780776367188,10.1105749512,0.1,0.0,0.0,0.0,0.1,0.0,0.0,0.0,0.1
1446036125186142365,18,1446036125182205915,robocape,3.75337300648,7.41216518506,-17.2487316422,0.0,10.0,0.0,0.0,0.0,10.0,0.0,0.0,0.0,10.0,0.0354200424981,0.0175768631945,0.00479368996214,1.0,0.0,0.0,0.0,1.0,0.0,0.0,0.0,1.0,-0.102985839844,-0.669407958984,10.1453027344,0.1,0.0,0.0,0.0,0.1,0.0,0.0,0.0,0.1
1446036125219492074,19,1446036125216232061,robocape,3.85238750798,7.43325893186,-17.2060951252,0.0,10.0,0.0,0.0,0.0,10.0,0.0,0.0,0.0,10.0,0.0537958540196,0.0191747598486,0.00426105774413,1.0,0.0,0.0,0.0,1.0,0.0,0.0,0.0,1.0,-0.106578369141,-0.496966552734,10.1201550293,0.1,0.0,0.0,0.0,0.1,0.0,0.0,0.0,0.1
1446036125253156490,20,1446036125249804019,robocape,3.93023823727,7.45304546393,-17.1632145096,0.0,10.0,0.0,0.0,0.0,10.0,0.0,0.0,0.0,10.0,0.0427437354958,0.0185089695761,0.00452737385313,1.0,0.0,0.0,0.0,1.0,0.0,0.0,0.0,1.0,-0.122145996094,-0.336500244141,10.1057849121,0.1,0.0,0.0,0.0,0.1,0.0,0.0,0.0,0.1
1446036125286068824,21,1446036125282710075,robocape,3.95614869444,7.4695702358,-17.1194780322,0.0,10.0,0.0,0.0,0.0,10.0,0.0,0.0,0.0,10.0,0.0154463343225,0.0167779148675,0.00532632218016,1.0,0.0,0.0,0.0,1.0,0.0,0.0,0.0,1.0,-0.124541015625,-0.239501953125,10.1285375977,0.1,0.0,0.0,0.0,0.1,0.0,0.0,0.0,0.1
1446036125319955657,22,1446036125316809892,robocape,3.92455304098,7.4830720187,-17.0737004013,0.0,10.0,0.0,0.0,0.0,10.0,0.0,0.0,0.0,10.0,-0.0149137021044,0.0151800182135,0.0067910607797,1.0,0.0,0.0,0.0,1.0,0.0,0.0,0.0,1.0,-0.108973388672,-0.293389892578,10.1045874023,0.1,0.0,0.0,0.0,0.1,0.0,0.0,0.0,0.1
1446036125352357949,23,1446036125349047899,robocape,3.79177433892,7.48966138276,-16.9550371091,0.0,10.0,0.0,0.0,0.0,10.0,0.0,0.0,0.0,10.0,-0.0733700880317,0.0135821215594,0.0462058449129,1.0,0.0,0.0,0.0,1.0,0.0,0.0,0.0,1.0,-0.137713623047,-0.1916015625,10.1488952637,0.1,0.0,0.0,0.0,0.1,0.0,0.0,0.0,0.1
1446036125384691907,24,1446036125381139993,robocape,3.65390977215,7.49356176725,-16.7734550224,0.0,10.0,0.0,0.0,0.0,10.0,0.0,0.0,0.0,10.0,-0.0806937810294,0.0138484376684,0.0798948327024,1.0,0.0,0.0,0.0,1.0,0.0,0.0,0.0,1.0,-0.067060546875,-1.00231567383,10.0878222656,0.1,0.0,0.0,0.0,0.1,0.0,0.0,0.0,0.1
1446036125419017032,25,1446036125415425062,robocape,3.71151414882,7.50649476491,-16.5971948318,0.0,10.0,0.0,0.0,0.0,10.0,0.0,0.0,0.0,10.0,0.0222373951022,0.0186421276306,0.0762995652308,1.0,0.0,0.0,0.0,1.0,0.0,0.0,0.0,1.0,-0.0658630371094,-1.09212890625,10.0950073242,0.1,0.0,0.0,0.0,0.1,0.0,0.0,0.0,0.1
1446036125450711199,26,1446036125447495937,robocape,3.91902755749,7.52450483873,-16.4123948376,0.0,10.0,0.0,0.0,0.0,10.0,0.0,0.0,0.0,10.0,0.100401173096,0.0219710789932,0.0802943068659,1.0,0.0,0.0,0.0,1.0,0.0,0.0,0.0,1.0,-0.067060546875,-1.1148815918,10.0770446777,0.1,0.0,0.0,0.0,0.1,0.0,0.0,0.0,0.1
1446036125483963990,27,1446036125480866909,robocape,4.28841416826,7.54932564652,-16.2937529301,0.0,10.0,0.0,0.0,0.0,10.0,0.0,0.0,0.0,10.0,0.190416017941,0.0241016078652,0.0444747902043,1.0,0.0,0.0,0.0,1.0,0.0,0.0,0.0,1.0,-0.105380859375,-0.853824462891,10.0866247559,0.1,0.0,0.0,0.0,0.1,0.0,0.0,0.0,0.1
1446036125518311866,28,1446036125515126943,robocape,4.68944802769,7.56742252068,-16.2343388724,0.0,10.0,0.0,0.0,0.0,10.0,0.0,0.0,0.0,10.0,0.211721306661,0.0189084437396,0.0131826473959,1.0,0.0,0.0,0.0,1.0,0.0,0.0,0.0,1.0,-0.195194091797,-0.00598754882813,10.1991906738,0.1,0.0,0.0,0.0,0.1,0.0,0.0,0.0,0.1
1446036125554389532,29,1446036125551219940,robocape,5.01592558687,7.58956138927,-16.2751194711,0.0,10.0,0.0,0.0,0.0,10.0,0.0,0.0,0.0,10.0,0.180296005798,0.017177389031,-0.0399474163512,1.0,0.0,0.0,0.0,1.0,0.0,0.0,0.0,1.0,-0.112565917969,-0.0155676269531,10.1021923828,0.1,0.0,0.0,0.0,0.1,0.0,0.0,0.0,0.1
1446036125584800741,30,1446036125581787109,robocape,5.31124716303,7.62355110537,-16.4473120423,0.0,10.0,0.0,0.0,0.0,10.0,0.0,0.0,0.0,10.0,0.174037577237,0.017710021249,-0.110254869129,1.0,0.0,0.0,0.0,1.0,0.0,0.0,0.0,1.0,-0.135318603516,0.135318603516,10.0818347168,0.1,0.0,0.0,0.0,0.1,0.0,0.0,0.0,0.1
1446036125617379699,31,1446036125614095926,robocape,5.47661508351,7.65508793179,-16.578442195,0.0,10.0,0.0,0.0,0.0,10.0,0.0,0.0,0.0,10.0,0.103064334186,0.017710021249,-0.0882837901361,1.0,0.0,0.0,0.0,1.0,0.0,0.0,0.0,1.0,-0.178428955078,0.4215234375,10.1153649902,0.1,0.0,0.0,0.0,0.1,0.0,0.0,0.0,0.1
1446036125651405116,32,1446036125648401021,robocape,5.36651092571,7.67310934153,-16.590037896,0.0,10.0,0.0,0.0,0.0,10.0,0.0,0.0,0.0,10.0,-0.0506000607115,0.0154463343225,-0.0233026595382,1.0,0.0,0.0,0.0,1.0,0.0,0.0,0.0,1.0,-0.148491210938,0.263452148438,10.1273400879,0.1,0.0,0.0,0.0,0.1,0.0,0.0,0.0,0.1
1446036125682687574,33,1446036125679661035,robocape,5.13700361346,7.68634551876,-16.5920924291,0.0,10.0,0.0,0.0,0.0,10.0,0.0,0.0,0.0,10.0,-0.114249610764,0.0131826473959,-0.01744370514,1.0,0.0,0.0,0.0,1.0,0.0,0.0,0.0,1.0,-0.0682580566406,0.168848876953,10.1273400879,0.1,0.0,0.0,0.0,0.1,0.0,0.0,0.0,0.1
1446036125717112657,34,1446036125713877916,robocape,4.74209622641,7.69202594463,-16.5457399456,0.0,10.0,0.0,0.0,0.0,10.0,0.0,0.0,0.0,10.0,-0.205063403936,0.0109189604693,0.00932106381528,1.0,0.0,0.0,0.0,1.0,0.0,0.0,0.0,1.0,-0.0814306640625,0.343685302734,10.1045874023,0.1,0.0,0.0,0.0,0.1,0.0,0.0,0.0,0.1
1446036125749464407,35,1446036125746187925,robocape,4.19115615326,7.69029310397,-16.4877610044,0.0,10.0,0.0,0.0,0.0,10.0,0.0,0.0,0.0,10.0,-0.288287188001,0.00705737688871,0.0165115987585,1.0,0.0,0.0,0.0,1.0,0.0,0.0,0.0,1.0,-0.196391601563,-0.404758300781,10.177635498,0.1,0.0,0.0,0.0,0.1,0.0,0.0,0.0,0.1
1446036125782815616,36,1446036125779710054,robocape,3.71562256614,7.6887833925,-16.5050974523,0.0,10.0,0.0,0.0,0.0,10.0,0.0,0.0,0.0,10.0,-0.243546081688,0.00479368996214,-0.0237021337017,1.0,0.0,0.0,0.0,1.0,0.0,0.0,0.0,1.0,-0.0874182128906,-1.0346484375,10.1081799316,0.1,0.0,0.0,0.0,0.1,0.0,0.0,0.0,0.1
1446036125815573199,37,1446036125812531948,robocape,3.37764136179,7.68881022162,-16.4919052609,0.0,10.0,0.0,0.0,0.0,10.0,0.0,0.0,0.0,10.0,-0.173904419182,0.0067910607797,-0.00812264132474,1.0,0.0,0.0,0.0,1.0,0.0,0.0,0.0,1.0,-0.178428955078,-1.41066650391,10.132130127,0.1,0.0,0.0,0.0,0.1,0.0,0.0,0.0,0.1
1446036125848842532,38,1446036125845695972,robocape,3.27003324542,7.69712105785,-16.4429338788,0.0,10.0,0.0,0.0,0.0,10.0,0.0,0.0,0.0,10.0,-0.0557932248372,0.0123836990689,0.00985369603329,1.0,0.0,0.0,0.0,1.0,0.0,0.0,0.0,1.0,-0.0347277832031,-1.48491210938,10.0722546387,0.1,0.0,0.0,0.0,0.1,0.0,0.0,0.0,0.1
1446036125882298616,39,1446036125879211902,robocape,3.41510831935,7.72233695809,-16.40636078,0.0,10.0,0.0,0.0,0.0,10.0,0.0,0.0,0.0,10.0,0.0777643038303,0.0213052887206,0.00199737081756,1.0,0.0,0.0,0.0,1.0,0.0,0.0,0.0,1.0,0.100590820313,-1.25738525391,10.0447119141,0.1,0.0,0.0,0.0,0.1,0.0,0.0,0.0,0.1
1446036125915615532,40,1446036125912539958,robocape,3.70046259718,7.75672208171,-16.3757681744,0.0,10.0,0.0,0.0,0.0,10.0,0.0,0.0,0.0,10.0,0.152066498244,0.0262321367373,-0.00199737081756,1.0,0.0,0.0,0.0,1.0,0.0,0.0,0.0,1.0,-0.0993933105469,-1.07177124023,10.1033898926,0.1,0.0,0.0,0.0,0.1,0.0,0.0,0.0,0.1
1446036125948840657,41,1446036125945723056,robocape,4.04295301479,7.78858171226,-16.3384041779,0.0,10.0,0.0,0.0,0.0,10.0,0.0,0.0,0.0,10.0,0.181893902452,0.0253000303558,0.00133158054504,1.0,0.0,0.0,0.0,1.0,0.0,0.0,0.0,1.0,-0.220341796875,-0.40236328125,10.1057849121,0.1,0.0,0.0,0.0,0.1,0.0,0.0,0.0,0.1
1446036125982185699,42,1446036125979110956,robocape,4.31832335218,7.81678198456,-16.2961270279,0.0,10.0,0.0,0.0,0.0,10.0,0.0,0.0,0.0,10.0,0.146607018009,0.0235689756472,0.00412789968962,1.0,0.0,0.0,0.0,1.0,0.0,0.0,0.0,1.0,-0.076640625,-0.05748046875,10.1716479492,0.1,0.0,0.0,0.0,0.1,0.0,0.0,0.0,0.1
1446036126015455616,43,1446036126012386083,robocape,4.46287823099,7.83440255867,-16.2441255981,0.0,10.0,0.0,0.0,0.0,10.0,0.0,0.0,0.0,10.0,0.0773648296668,0.018242653467,0.0101200121423,1.0,0.0,0.0,0.0,1.0,0.0,0.0,0.0,1.0,-0.207169189453,0.276624755859,10.1213525391,0.1,0.0,0.0,0.0,0.1,0.0,0.0,0.0,0.1
1446036126049676449,44,1446036126046561956,robocape,4.42217785521,7.84794817312,-16.1842398241,0.0,10.0,0.0,0.0,0.0,10.0,0.0,0.0,0.0,10.0,-0.0205063403936,0.016112124595,0.0151800182135,1.0,0.0,0.0,0.0,1.0,0.0,0.0,0.0,1.0,-0.126936035156,0.204774169922,10.1045874023,0.1,0.0,0.0,0.0,0.1,0.0,0.0,0.0,0.1
1446036126082217907,45,1446036126079171895,robocape,4.22658826269,7.8536525081,-16.1119369949,0.0,10.0,0.0,0.0,0.0,10.0,0.0,0.0,0.0,10.0,-0.102931176132,0.0121173829599,0.0227700273202,1.0,0.0,0.0,0.0,1.0,0.0,0.0,0.0,1.0,-0.154478759766,-0.0263452148438,10.1237475586,0.1,0.0,0.0,0.0,0.1,0.0,0.0,0.0,0.1
1446036126120047699,46,1446036126115787982,robocape,3.9637357578,7.8547446108,-15.998647595,0.0,10.0,0.0,0.0,0.0,10.0,0.0,0.0,0.0,10.0,-0.141547011938,0.0107858024148,0.0450074224223,1.0,0.0,0.0,0.0,1.0,0.0,0.0,0.0,1.0,-0.100590820313,-0.537681884766,10.1093774414,0.1,0.0,0.0,0.0,0.1,0.0,0.0,0.0,0.1
1446036126148670907,47,1446036126145461082,robocape,3.83074118196,7.86229413685,-15.9142703696,0.0,10.0,0.0,0.0,0.0,10.0,0.0,0.0,0.0,10.0,-0.0713727172141,0.0133158054504,0.0291616139364,1.0,0.0,0.0,0.0,1.0,0.0,0.0,0.0,1.0,-0.0993933105469,-1.27654541016,10.1261425781,0.1,0.0,0.0,0.0,0.1,0.0,0.0,0.0,0.1
1446036126182265949,48,1446036126179264068,robocape,3.89934591163,7.88080949961,-15.8713409905,0.0,10.0,0.0,0.0,0.0,10.0,0.0,0.0,0.0,10.0,0.0375505713701,0.0181094954125,0.00625842856169,1.0,0.0,0.0,0.0,1.0,0.0,0.0,0.0,1.0,-0.0790356445313,-1.12925170898,10.1033898926,0.1,0.0,0.0,0.0,0.1,0.0,0.0,0.0,0.1
1446036126218239866,49,1446036126215102910,robocape,4.11448256528,7.90744146736,-15.8586047255,0.0,10.0,0.0,0.0,0.0,10.0,0.0,0.0,0.0,10.0,0.116912771854,0.0217047628841,-0.0105194863058,1.0,0.0,0.0,0.0,1.0,0.0,0.0,0.0,1.0,-0.100590820313,-0.710123291016,10.0914147949,0.1,0.0,0.0,0.0,0.1,0.0,0.0,0.0,0.1
1446036126252751658,50,1446036126249177932,robocape,4.30879052622,7.92976507351,-15.8222236276,0.0,10.0,0.0,0.0,0.0,10.0,0.0,0.0,0.0,10.0,0.104395914731,0.0202400242846,0.00213052887206,1.0,0.0,0.0,0.0,1.0,0.0,0.0,0.0,1.0,-0.110170898438,-0.277822265625,10.1261425781,0.1,0.0,0.0,0.0,0.1,0.0,0.0,0.0,0.1
1446036126285298991,51,1446036126282080888,robocape,4.42129840857,7.94898675611,-15.7868020536,0.0,10.0,0.0,0.0,0.0,10.0,0.0,0.0,0.0,10.0,0.0616521792353,0.0185089695761,0.00199737081756,1.0,0.0,0.0,0.0,1.0,0.0,0.0,0.0,1.0,-0.141306152344,-0.0910107421875,10.1357226563,0.1,0.0,0.0,0.0,0.1,0.0,0.0,0.0,0.1
1446036126318647616,52,1446036126315325021,robocape,4.43247138432,7.96536799661,-15.7467679389,0.0,10.0,0.0,0.0,0.0,10.0,0.0,0.0,0.0,10.0,0.00812264132474,0.0170442309765,0.00492684801665,1.0,0.0,0.0,0.0,1.0,0.0,0.0,0.0,1.0,-0.124541015625,-0.0622705078125,10.1213525391,0.1,0.0,0.0,0.0,0.1,0.0,0.0,0.0,0.1
1446036126353707741,53,1446036126350431919,robocape,4.35134916747,7.97657952895,-15.6970636658,0.0,10.0,0.0,0.0,0.0,10.0,0.0,0.0,0.0,10.0,-0.0411458388417,0.0145142279409,0.0106526443603,1.0,0.0,0.0,0.0,1.0,0.0,0.0,0.0,1.0,-0.138911132813,-0.15328125,10.1129699707,0.1,0.0,0.0,0.0,0.1,0.0,0.0,0.0,0.1
1446036126386648366,54,1446036126383320093,robocape,4.21435862733,7.98659657552,-15.6721869742,0.0,10.0,0.0,0.0,0.0,10.0,0.0,0.0,0.0,10.0,-0.068709556124,0.0129163312869,-0.00213052887206,1.0,0.0,0.0,0.0,1.0,0.0,0.0,0.0,1.0,-0.113763427734,-0.471818847656,10.1141674805,0.1,0.0,0.0,0.0,0.1,0.0,0.0,0.0,0.1
1446036126419763283,55,1446036126416378021,robocape,4.10543246774,7.99902082384,-15.6545959861,0.0,10.0,0.0,0.0,0.0,10.0,0.0,0.0,0.0,10.0,-0.0535295379106,0.0139815957229,-0.00612527050718,1.0,0.0,0.0,0.0,1.0,0.0,0.0,0.0,1.0,-0.1149609375,-0.455053710938,10.0926123047,0.1,0.0,0.0,0.0,0.1,0.0,0.0,0.0,0.1
1446036126452775449,56,1446036126449342012,robocape,4.00141952618,8.01158538918,-15.6272193441,0.0,10.0,0.0,0.0,0.0,10.0,0.0,0.0,0.0,10.0,-0.051798483202,0.0143810698864,-0.000932106381528,1.0,0.0,0.0,0.0,1.0,0.0,0.0,0.0,1.0,-0.086220703125,-0.870589599609,10.1201550293,0.1,0.0,0.0,0.0,0.1,0.0,0.0,0.0,0.1
1446036126484820991,57,1446036126481520891,robocape,4.00847158758,8.02764810846,-15.6004838086,0.0,10.0,0.0,0.0,0.0,10.0,0.0,0.0,0.0,10.0,0.00652474467069,0.016378440704,-0.00173105470855,1.0,0.0,0.0,0.0,1.0,0.0,0.0,0.0,1.0,-0.110170898438,-0.662222900391,10.1333276367,0.1,0.0,0.0,0.0,0.1,0.0,0.0,0.0,0.1
1446036126518757324,58,1446036126515645980,robocape,4.07955574028,8.04622823619,-15.568908074,0.0,10.0,0.0,0.0,0.0,10.0,0.0,0.0,0.0,10.0,0.0398142582967,0.017976337358,0.000532632218016,1.0,0.0,0.0,0.0,1.0,0.0,0.0,0.0,1.0,-0.0981958007813,-0.6514453125,10.1165625,0.1,0.0,0.0,0.0,0.1,0.0,0.0,0.0,0.1
1446036126555611033,59,1446036126552124023,robocape,4.17997559285,8.06527584619,-15.5351002069,0.0,10.0,0.0,0.0,0.0,10.0,0.0,0.0,0.0,10.0,0.0551274345646,0.0183758115215,0.00159789665405,1.0,0.0,0.0,0.0,1.0,0.0,0.0,0.0,1.0,-0.110170898438,-0.519719238281,10.100994873,0.1,0.0,0.0,0.0,0.1,0.0,0.0,0.0,0.1
1446036126585425241,60,1446036126582266092,robocape,4.26468734021,8.0834965829,-15.4966618247,0.0,10.0,0.0,0.0,0.0,10.0,0.0,0.0,0.0,10.0,0.0466053190764,0.0181094954125,0.00412789968962,1.0,0.0,0.0,0.0,1.0,0.0,0.0,0.0,1.0,-0.108973388672,-0.336500244141,10.1177600098,0.1,0.0,0.0,0.0,0.1,0.0,0.0,0.0,0.1
1446036126618583491,61,1446036126615487098,robocape,4.28716545801,8.09900621722,-15.4533314549,0.0,10.0,0.0,0.0,0.0,10.0,0.0,0.0,0.0,10.0,0.0135821215594,0.0167779148675,0.00705737688871,1.0,0.0,0.0,0.0,1.0,0.0,0.0,0.0,1.0,-0.125738525391,-0.244291992188,10.1297351074,0.1,0.0,0.0,0.0,0.1,0.0,0.0,0.0,0.1
1446036126651829783,62,1446036126648571014,robocape,4.25192452264,8.1118741267,-15.4096770277,0.0,10.0,0.0,0.0,0.0,10.0,0.0,0.0,0.0,10.0,-0.0167779148675,0.015313176268,0.00759000910673,1.0,0.0,0.0,0.0,1.0,0.0,0.0,0.0,1.0,-0.118553466797,-0.269439697266,10.1285375977,0.1,0.0,0.0,0.0,0.1,0.0,0.0,0.0,0.1
1446036126684685241,63,1446036126681653022,robocape,4.18526429849,8.12413589837,-15.3666477072,0.0,10.0,0.0,0.0,0.0,10.0,0.0,0.0,0.0,10.0,-0.033289513626,0.0149137021044,0.00745685105222,1.0,0.0,0.0,0.0,1.0,0.0,0.0,0.0,1.0,-0.110170898438,-0.4215234375,10.0974023437,0.1,0.0,0.0,0.0,0.1,0.0,0.0,0.0,0.1
1446036126718528658,64,1446036126715445995,robocape,4.1240739874,8.13599847075,-15.3252596268,0.0,10.0,0.0,0.0,0.0,10.0,0.0,0.0,0.0,10.0,-0.0303600364269,0.0146473859954,0.0066579027252,1.0,0.0,0.0,0.0,1.0,0.0,0.0,0.0,1.0,-0.116158447266,-0.592767333984,10.1045874023,0.1,0.0,0.0,0.0,0.1,0.0,0.0,0.0,0.1
1446036126750836741,65,1446036126747737884,robocape,4.1000349819,8.15001652982,-15.2835832182,0.0,10.0,0.0,0.0,0.0,10.0,0.0,0.0,0.0,10.0,-0.0109189604693,0.015845808486,0.0066579027252,1.0,0.0,0.0,0.0,1.0,0.0,0.0,0.0,1.0,-0.107775878906,-0.704135742188,10.1129699707,0.1,0.0,0.0,0.0,0.1,0.0,0.0,0.0,0.1
1446036126783511491,66,1446036126780265092,robocape,4.1269475403,8.16513730546,-15.2421056245,0.0,10.0,0.0,0.0,0.0,10.0,0.0,0.0,0.0,10.0,0.015845808486,0.0165115987585,0.00639158661619,1.0,0.0,0.0,0.0,1.0,0.0,0.0,0.0,1.0,-0.111368408203,-0.664617919922,10.1453027344,0.1,0.0,0.0,0.0,0.1,0.0,0.0,0.0,0.1
1446036126816247949,67,1446036126813163995,robocape,4.19171628528,8.18252491925,-15.2030499201,0.0,10.0,0.0,0.0,0.0,10.0,0.0,0.0,0.0,10.0,0.0359526747161,0.017710021249,0.00492684801665,1.0,0.0,0.0,0.0,1.0,0.0,0.0,0.0,1.0,-0.105380859375,-0.554447021484,10.1141674805,0.1,0.0,0.0,0.0,0.1,0.0,0.0,0.0,0.1
1446036126850120866,68,1446036126847089052,robocape,4.25897529199,8.19967228683,-15.1652951062,0.0,10.0,0.0,0.0,0.0,10.0,0.0,0.0,0.0,10.0,0.0374174133156,0.0175768631945,0.00426105774413,1.0,0.0,0.0,0.0,1.0,0.0,0.0,0.0,1.0,-0.119750976563,-0.417930908203,10.1189575195,0.1,0.0,0.0,0.0,0.1,0.0,0.0,0.0,0.1
1446036126883019324,69,1446036126879964113,robocape,4.29431203484,8.21555862639,-15.1268734245,0.0,10.0,0.0,0.0,0.0,10.0,0.0,0.0,0.0,10.0,0.0206394984481,0.016911072922,0.00479368996214,1.0,0.0,0.0,0.0,1.0,0.0,0.0,0.0,1.0,-0.122145996094,-0.317340087891,10.1129699707,0.1,0.0,0.0,0.0,0.1,0.0,0.0,0.0,0.1
1446036126916491533,70,1446036126913480043,robocape,4.28341147307,8.22961169182,-15.0856823644,0.0,10.0,0.0,0.0,0.0,10.0,0.0,0.0,0.0,10.0,-0.00386158358061,0.0159789665405,0.00652474467069,1.0,0.0,0.0,0.0,1.0,0.0,0.0,0.0,1.0,-0.1149609375,-0.24908203125,10.1429077148,0.1,0.0,0.0,0.0,0.1,0.0,0.0,0.0,0.1
1446036126949457741,71,1446036126946386098,robocape,4.09509071502,8.22710110357,-14.8806426448,0.0,10.0,0.0,0.0,0.0,10.0,0.0,0.0,0.0,10.0,-0.10998855302,0.0123836990689,0.0942759025888,1.0,0.0,0.0,0.0,1.0,0.0,0.0,0.0,1.0,-0.106578369141,-0.36404296875,10.1488952637,0.1,0.0,0.0,0.0,0.1,0.0,0.0,0.0,0.1
1446036126982403408,72,1446036126979320049,robocape,3.99556820232,8.22650856257,-14.6617010925,0.0,10.0,0.0,0.0,0.0,10.0,0.0,0.0,0.0,10.0,-0.0645816564344,0.0137152796139,0.101466437532,1.0,0.0,0.0,0.0,1.0,0.0,0.0,0.0,1.0,-0.05748046875,-1.49329467773,10.1165625,0.1,0.0,0.0,0.0,0.1,0.0,0.0,0.0,0.1
1446036127015676908,73,1446036127012633085,robocape,4.18217656616,8.24652588297,-14.5594538379,0.0,10.0,0.0,0.0,0.0,10.0,0.0,0.0,0.0,10.0,0.0948085348068,0.0213052887206,0.0384826777516,1.0,0.0,0.0,0.0,1.0,0.0,0.0,0.0,1.0,-0.0347277832031,-1.149609375,10.1129699707,0.1,0.0,0.0,0.0,0.1,0.0,0.0,0.0,0.1
1446036127049256491,74,1446036127046242952,robocape,4.50803619813,8.27353501121,-14.5114201527,0.0,10.0,0.0,0.0,0.0,10.0,0.0,0.0,0.0,10.0,0.172439680583,0.0235689756472,0.00918790576077,1.0,0.0,0.0,0.0,1.0,0.0,0.0,0.0,1.0,-0.164058837891,-0.602347412109,10.1153649902,0.1,0.0,0.0,0.0,0.1,0.0,0.0,0.0,0.1
1446036127082232033,75,1446036127079176902,robocape,4.88949122495,8.29421801939,-14.491888609,0.0,10.0,0.0,0.0,0.0,10.0,0.0,0.0,0.0,10.0,0.204264455609,0.0194410759576,-0.00585895439817,1.0,0.0,0.0,0.0,1.0,0.0,0.0,0.0,1.0,-0.104183349609,-0.0395178222656,10.1680554199,0.1,0.0,0.0,0.0,0.1,0.0,0.0,0.0,0.1
1446036127115721616,76,1446036127112694978,robocape,5.13285295662,8.31725042225,-14.5934114114,0.0,10.0,0.0,0.0,0.0,10.0,0.0,0.0,0.0,10.0,0.141680169992,0.015579492377,-0.0693753463966,1.0,0.0,0.0,0.0,1.0,0.0,0.0,0.0,1.0,-0.117355957031,0.0239501953125,10.1249450684,0.1,0.0,0.0,0.0,0.1,0.0,0.0,0.0,0.1
1446036127148594283,77,1446036127145569086,robocape,5.20590404167,8.34489203244,-14.7106340064,0.0,10.0,0.0,0.0,0.0,10.0,0.0,0.0,0.0,10.0,0.0536626959651,0.016911072922,-0.0774979877213,1.0,0.0,0.0,0.0,1.0,0.0,0.0,0.0,1.0,-0.143701171875,0.507744140625,10.1476977539,0.1,0.0,0.0,0.0,0.1,0.0,0.0,0.0,0.1
1446036127182571783,78,1446036127179516077,robocape,5.0368944931,8.3635276184,-14.7405801054,0.0,10.0,0.0,0.0,0.0,10.0,0.0,0.0,0.0,10.0,-0.0805606229749,0.0154463343225,-0.0303600364269,1.0,0.0,0.0,0.0,1.0,0.0,0.0,0.0,1.0,-0.186811523438,0.396375732422,10.1560803223,0.1,0.0,0.0,0.0,0.1,0.0,0.0,0.0,0.1
1446036127215836200,79,1446036127212810993,robocape,4.64248233398,8.36976105126,-14.6913413781,0.0,10.0,0.0,0.0,0.0,10.0,0.0,0.0,0.0,10.0,-0.205596036154,0.0117179087963,0.0127831732324,1.0,0.0,0.0,0.0,1.0,0.0,0.0,0.0,1.0,-0.0993933105469,-0.0383203125,10.1309326172,0.1,0.0,0.0,0.0,0.1,0.0,0.0,0.0,0.1
1446036127248910408,80,1446036127245888948,robocape,4.19976817225,8.3663493836,-14.6775395018,0.0,10.0,0.0,0.0,0.0,10.0,0.0,0.0,0.0,10.0,-0.228499221529,0.00519316412565,-0.00519316412565,1.0,0.0,0.0,0.0,1.0,0.0,0.0,0.0,1.0,-0.171243896484,-0.426313476563,10.0938098145,0.1,0.0,0.0,0.0,0.1,0.0,0.0,0.0,0.1
1446036127282089616,81,1446036127279073953,robocape,3.81104098182,8.36768236767,-14.6662571476,0.0,10.0,0.0,0.0,0.0,10.0,0.0,0.0,0.0,10.0,-0.200269713974,0.00772316716123,-0.00692421883421,1.0,0.0,0.0,0.0,1.0,0.0,0.0,0.0,1.0,-0.0993933105469,-1.28732299805,10.1405126953,0.1,0.0,0.0,0.0,0.1,0.0,0.0,0.0,0.1
1446036127315818658,82,1446036127312685966,robocape,3.68093436292,8.37111725992,-14.6212597342,0.0,10.0,0.0,0.0,0.0,10.0,0.0,0.0,0.0,10.0,-0.067377975579,0.0102531701968,0.0099868540878,1.0,0.0,0.0,0.0,1.0,0.0,0.0,0.0,1.0,-0.0694555664063,-1.36516113281,10.1165625,0.1,0.0,0.0,0.0,0.1,0.0,0.0,0.0,0.1
1446036127348829158,83,1446036127345798969,robocape,3.75575836385,8.38953229529,-14.5832613033,0.0,10.0,0.0,0.0,0.0,10.0,0.0,0.0,0.0,10.0,0.0407463646782,0.018242653467,0.00519316412565,1.0,0.0,0.0,0.0,1.0,0.0,0.0,0.0,1.0,0.0634680175781,-1.2298425293,10.0902172852,0.1,0.0,0.0,0.0,0.1,0.0,0.0,0.0,0.1
1446036127381972533,84,1446036127378942966,robocape,4.01330397082,8.42266550815,-14.5924127149,0.0,10.0,0.0,0.0,0.0,10.0,0.0,0.0,0.0,10.0,0.140614905556,0.0249005561922,-0.0207726565026,1.0,0.0,0.0,0.0,1.0,0.0,0.0,0.0,1.0,-0.0718505859375,-0.925675048828,10.080637207,0.1,0.0,0.0,0.0,0.1,0.0,0.0,0.0,0.1
1446036127415740825,85,1446036127412467002,robocape,4.30404009422,8.45408203201,-14.5680240168,0.0,10.0,0.0,0.0,0.0,10.0,0.0,0.0,0.0,10.0,0.155661765715,0.0251668723012,-0.0033289513626,1.0,0.0,0.0,0.0,1.0,0.0,0.0,0.0,1.0,-0.17244140625,-0.499361572266,10.1560803223,0.1,0.0,0.0,0.0,0.1,0.0,0.0,0.0,0.1
1446036127448818491,86,1446036127445696115,robocape,4.55418187142,8.48247705258,-14.5370051099,0.0,10.0,0.0,0.0,0.0,10.0,0.0,0.0,0.0,10.0,0.134090160885,0.0238352917562,0.000266316109008,1.0,0.0,0.0,0.0,1.0,0.0,0.0,0.0,1.0,-0.166453857422,-0.09580078125,10.132130127,0.1,0.0,0.0,0.0,0.1,0.0,0.0,0.0,0.1
1446036127483424866,87,1446036127480421066,robocape,4.66203845268,8.50009920711,-14.5028660778,0.0,10.0,0.0,0.0,0.0,10.0,0.0,0.0,0.0,10.0,0.0592553342543,0.0181094954125,0.00279631914458,1.0,0.0,0.0,0.0,1.0,0.0,0.0,0.0,1.0,-0.13412109375,0.0550854492188,10.1381176758,0.1,0.0,0.0,0.0,0.1,0.0,0.0,0.0,0.1
1446036127515509116,88,1446036127512244939,robocape,4.63609507118,8.51521843164,-14.4632490333,0.0,10.0,0.0,0.0,0.0,10.0,0.0,0.0,0.0,10.0,-0.0114515926873,0.0167779148675,0.00625842856169,1.0,0.0,0.0,0.0,1.0,0.0,0.0,0.0,1.0,-0.166453857422,0.0610729980469,10.1045874023,0.1,0.0,0.0,0.0,0.1,0.0,0.0,0.0,0.1
1446036127552201116,89,1446036127548731088,robocape,4.49253766969,8.5231118919,-14.4117380216,0.0,10.0,0.0,0.0,0.0,10.0,0.0,0.0,0.0,10.0,-0.0743021944132,0.0131826473959,0.0133158054504,1.0,0.0,0.0,0.0,1.0,0.0,0.0,0.0,1.0,-0.124541015625,-0.104183349609,10.0985998535,0.1,0.0,0.0,0.0,0.1,0.0,0.0,0.0,0.1
1446036127581997491,90,1446036127578931093,robocape,4.29235027793,8.5280258952,-14.3678463878,0.0,10.0,0.0,0.0,0.0,10.0,0.0,0.0,0.0,10.0,-0.103596966404,0.0111852765783,0.00972053797879,1.0,0.0,0.0,0.0,1.0,0.0,0.0,0.0,1.0,-0.0981958007813,-0.439486083984,10.1512902832,0.1,0.0,0.0,0.0,0.1,0.0,0.0,0.0,0.1
1446036127615334283,91,1446036127612272977,robocape,4.24945048155,8.46558900821,-14.488046021,0.0,10.0,0.0,0.0,0.0,10.0,0.0,0.0,0.0,10.0,-0.00798948327024,-0.0295610880999,-0.0740358783042,1.0,0.0,0.0,0.0,1.0,0.0,0.0,0.0,1.0,-5.84983520508,-1.07416625977,10.1812280273,0.1,0.0,0.0,0.0,0.1,0.0,0.0,0.0,0.1
1446036127648923908,92,1446036127645565986,robocape,4.20254898597,8.43302851537,-14.6082057533,0.0,10.0,0.0,0.0,0.0,10.0,0.0,0.0,0.0,10.0,-0.0101200121423,-0.0138484376684,-0.0755006169037,1.0,0.0,0.0,0.0,1.0,0.0,0.0,0.0,1.0,-9.31782348633,-2.09564208984,11.0266699219,0.1,0.0,0.0,0.0,0.1,0.0,0.0,0.0,0.1
1446036127682282450,93,1446036127679208993,robocape,4.09010837359,8.25251432452,-14.790365871,0.0,10.0,0.0,0.0,0.0,10.0,0.0,0.0,0.0,10.0,-0.0400805744057,-0.0937432703708,-0.101732753641,1.0,0.0,0.0,0.0,1.0,0.0,0.0,0.0,1.0,-9.21843017578,-1.25020019531,10.6290966797,0.1,0.0,0.0,0.0,0.1,0.0,0.0,0.0,0.1
1446036127715567825,94,1446036127712440967,robocape,3.90468506772,8.44215638408,-15.058004571,0.0,10.0,0.0,0.0,0.0,10.0,0.0,0.0,0.0,10.0,-0.0711064011051,0.0982706442239,-0.162585984549,1.0,0.0,0.0,0.0,1.0,0.0,0.0,0.0,1.0,-8.73583374023,-0.467028808594,11.4996862793,0.1,0.0,0.0,0.0,0.1,0.0,0.0,0.0,0.1
1446036127752076117,95,1446036127748716115,robocape,3.78041818676,8.06019254229,-15.3964387961,0.0,10.0,0.0,0.0,0.0,10.0,0.0,0.0,0.0,10.0,-0.0347542522255,-0.203864981446,-0.17710021249,1.0,0.0,0.0,0.0,1.0,0.0,0.0,0.0,1.0,-10.7488476563,0.107775878906,9.17771484375,0.1,0.0,0.0,0.0,0.1,0.0,0.0,0.0,0.1
1446036127785063075,96,1446036127781970977,robocape,3.6937239311,8.27550472975,-15.6453846483,0.0,10.0,0.0,0.0,0.0,10.0,0.0,0.0,0.0,10.0,-0.0213052887206,0.113051188274,-0.154596501279,1.0,0.0,0.0,0.0,1.0,0.0,0.0,0.0,1.0,-10.8111181641,0.366437988281,13.0959667969,0.1,0.0,0.0,0.0,0.1,0.0,0.0,0.0,0.1
1446036127817935158,97,1446036127814642906,robocape,3.26226075233,8.47448940829,-16.2562024445,0.0,10.0,0.0,0.0,0.0,10.0,0.0,0.0,0.0,10.0,-0.173371786964,0.0953411670248,-0.344213570893,1.0,0.0,0.0,0.0,1.0,0.0,0.0,0.0,1.0,-9.70342163086,0.398770751953,12.0816760254,0.1,0.0,0.0,0.0,0.1,0.0,0.0,0.0,0.1
1446036127851735283,98,1446036127848180055,robocape,2.76102797939,8.58032593584,-17.0365745249,0.0,10.0,0.0,0.0,0.0,10.0,0.0,0.0,0.0,10.0,-0.19600865623,0.0456732126949,-0.431298938538,1.0,0.0,0.0,0.0,1.0,0.0,0.0,0.0,1.0,-10.9069189453,-1.19870727539,11.4984887695,0.1,0.0,0.0,0.0,0.1,0.0,0.0,0.0,0.1
1446036127884606033,99,1446036127881515026,robocape,2.90099918304,8.67090433373,-17.685689085,0.0,10.0,0.0,0.0,0.0,10.0,0.0,0.0,0.0,10.0,0.130628051468,0.0430100516048,-0.364719911286,1.0,0.0,0.0,0.0,1.0,0.0,0.0,0.0,1.0,-6.9012487793,-1.68489624023,10.2913989258,0.1,0.0,0.0,0.0,0.1,0.0,0.0,0.0,0.1
1446036127917800033,100,1446036127914525032,robocape,3.54579691801,8.76022247464,-18.1674211931,0.0,10.0,0.0,0.0,0.0,10.0,0.0,0.0,0.0,10.0,0.383228880862,0.0450074224223,-0.27909928224,1.0,0.0,0.0,0.0,1.0,0.0,0.0,0.0,1.0,-10.0147741699,-0.120948486328,11.5811169434,0.1,0.0,0.0,0.0,0.1,0.0,0.0,0.0,0.1
1446036127951419825,101,1446036127948107004,robocape,4.2255163954,8.70304204509,-18.646065724,0.0,10.0,0.0,0.0,0.0,10.0,0.0,0.0,0.0,10.0,0.402403640711,-0.034621094171,-0.273373485897,1.0,0.0,0.0,0.0,1.0,0.0,0.0,0.0,1.0,-7.71435791016,-0.752036132813,10.2207458496,0.1,0.0,0.0,0.0,0.1,0.0,0.0,0.0,0.1
1446036127984078200,102,1446036127980959892,robocape,5.14927328048,8.83780195053,-19.0445672734,0.0,10.0,0.0,0.0,0.0,10.0,0.0,0.0,0.0,10.0,0.526107473345,0.0664458691975,-0.242480817252,1.0,0.0,0.0,0.0,1.0,0.0,0.0,0.0,1.0,-7.76225830078,0.0514929199219,10.8254882813,0.1,0.0,0.0,0.0,0.1,0.0,0.0,0.0,0.1
1446036128016485992,103,1446036128013432025,robocape,6.21772370608,8.67222787655,-19.6346278978,0.0,10.0,0.0,0.0,0.0,10.0,0.0,0.0,0.0,10.0,0.61998390177,-0.103064334186,-0.33023197517,1.0,0.0,0.0,0.0,1.0,0.0,0.0,0.0,1.0,-7.42935058594,-0.710123291016,10.8003405762,0.1,0.0,0.0,0.0,0.1,0.0,0.0,0.0,0.1
1446036128050965242,104,1446036128047924041,robocape,7.79204645719,8.30916250946,-20.1463909632,0.0,10.0,0.0,0.0,0.0,10.0,0.0,0.0,0.0,10.0,0.881106846653,-0.207859723081,-0.27790085975,1.0,0.0,0.0,0.0,1.0,0.0,0.0,0.0,1.0,-11.1643835449,-0.665815429688,9.54774536133,0.1,0.0,0.0,0.0,0.1,0.0,0.0,0.0,0.1
1446036128082522450,105,1446036128079483032,robocape,9.66307470989,8.20906221763,-20.6449811493,0.0,10.0,0.0,0.0,0.0,10.0,0.0,0.0,0.0,10.0,1.04169546038,-0.0762995652308,-0.294012984345,1.0,0.0,0.0,0.0,1.0,0.0,0.0,0.0,1.0,-8.2041394043,-0.603544921875,12.2122045898,0.1,0.0,0.0,0.0,0.1,0.0,0.0,0.0,0.1
1446036128116049533,106,1446036128112998008,robocape,12.1150499589,8.19074073173,-21.2075768477,0.0,10.0,0.0,0.0,0.0,10.0,0.0,0.0,0.0,10.0,1.36340532007,-0.0472711093489,-0.344746203111,1.0,0.0,0.0,0.0,1.0,0.0,0.0,0.0,1.0,-6.06059692383,-0.778381347656,8.87115234375,0.1,0.0,0.0,0.0,0.1,0.0,0.0,0.0,0.1
1446036128149077117,107,1446036128146060943,robocape,15.1330865823,8.65986261008,-21.5223096437,0.0,10.0,0.0,0.0,0.0,10.0,0.0,0.0,0.0,10.0,1.66101357188,0.221575002695,-0.2926814038,1.0,0.0,0.0,0.0,1.0,0.0,0.0,0.0,1.0,-1.54598510742,0.138911132813,12.201427002,0.1,0.0,0.0,0.0,0.1,0.0,0.0,0.0,0.1
1446036128182288575,108,1446036128179270029,robocape,18.4343362139,9.01900817014,-21.6823964975,0.0,10.0,0.0,0.0,0.0,10.0,0.0,0.0,0.0,10.0,1.81973797285,0.179630215526,-0.223039741294,1.0,0.0,0.0,0.0,1.0,0.0,0.0,0.0,1.0,0.343685302734,-0.118553466797,9.84113525391,0.1,0.0,0.0,0.0,0.1,0.0,0.0,0.0,0.1
1446036128215762908,109,1446036128212610960,robocape,22.0961900489,9.27483693958,-21.5727341613,0.0,10.0,0.0,0.0,0.0,10.0,0.0,0.0,0.0,10.0,2.01494768075,0.170841783929,-0.0968059056244,1.0,0.0,0.0,0.0,1.0,0.0,0.0,0.0,1.0,-5.57081542969,0.437091064453,10.3512744141,0.1,0.0,0.0,0.0,0.1,0.0,0.0,0.0,0.1
1446036128248741825,110,1446036128245721101,robocape,25.9542468763,9.1609306071,-21.0969146123,0.0,10.0,0.0,0.0,0.0,10.0,0.0,0.0,0.0,10.0,2.1137509572,0.0700411366691,0.138750692793,1.0,0.0,0.0,0.0,1.0,0.0,0.0,0.0,1.0,-2.35669921875,1.31845825195,10.1441052246,0.1,0.0,0.0,0.0,0.1,0.0,0.0,0.0,0.1
1446036128282193408,111,1446036128279182910,robocape,29.6132726455,9.26585744569,-20.0457901003,0.0,10.0,0.0,0.0,0.0,10.0,0.0,0.0,0.0,10.0,1.9823239574,0.325571443262,0.345145677274,1.0,0.0,0.0,0.0,1.0,0.0,0.0,0.0,1.0,-0.724493408203,1.88607788086,10.3117565918,0.1,0.0,0.0,0.0,0.1,0.0,0.0,0.0,0.1
1446036128315478659,112,1446036128312453985,robocape,32.764947266,9.55901220681,-18.3121802757,0.0,10.0,0.0,0.0,0.0,10.0,0.0,0.0,0.0,10.0,1.65621988192,0.617720214844,0.592020710325,1.0,0.0,0.0,0.0,1.0,0.0,0.0,0.0,1.0,-1.06578369141,2.45848754883,13.4695898438,0.1,0.0,0.0,0.0,0.1,0.0,0.0,0.0,0.1
1446036128348787117,113,1446036128345747947,robocape,35.2383563503,8.98555020429,-16.6436084305,0.0,10.0,0.0,0.0,0.0,10.0,0.0,0.0,0.0,10.0,1.28963575787,0.249937668304,0.81213097442,1.0,0.0,0.0,0.0,1.0,0.0,0.0,0.0,1.0,-5.92408081055,3.30632446289,11.4793286133,0.1,0.0,0.0,0.0,0.1,0.0,0.0,0.0,0.1
1446036128382034617,114,1446036128378952980,robocape,37.0391113645,8.70273948862,-14.3880115422,0.0,10.0,0.0,0.0,0.0,10.0,0.0,0.0,0.0,10.0,0.868190515366,0.581767540128,0.981774335858,1.0,0.0,0.0,0.0,1.0,0.0,0.0,0.0,1.0,2.32676147461,3.33626220703,11.2086914063,0.1,0.0,0.0,0.0,0.1,0.0,0.0,0.0,0.1
1446036128415892284,115,1446036128412626028,robocape,38.2893046619,8.44512899286,-12.2125565263,0.0,10.0,0.0,0.0,0.0,10.0,0.0,0.0,0.0,10.0,0.577240166275,0.592952816706,0.938631126198,1.0,0.0,0.0,0.0,1.0,0.0,0.0,0.0,1.0,0.565224609375,2.26808349609,10.6710095215,0.1,0.0,0.0,0.0,0.1,0.0,0.0,0.0,0.1
1446036128448942200,116,1446036128445835113,robocape,39.1666158906,8.41992817133,-9.86914920857,0.0,10.0,0.0,0.0,0.0,10.0,0.0,0.0,0.0,10.0,0.360192537433,0.760199333163,0.929043746274,1.0,0.0,0.0,0.0,1.0,0.0,0.0,0.0,1.0,-4.26552978516,2.07169189453,11.5619567871,0.1,0.0,0.0,0.0,0.1,0.0,0.0,0.0,0.1
1446036128482392450,117,1446036128479091882,robocape,39.7095179846,7.80484200986,-7.86183866744,0.0,10.0,0.0,0.0,0.0,10.0,0.0,0.0,0.0,10.0,0.200802346192,0.421178926396,0.991228557727,1.0,0.0,0.0,0.0,1.0,0.0,0.0,0.0,1.0,-6.20669311523,2.7171496582,12.0697009277,0.1,0.0,0.0,0.0,0.1,0.0,0.0,0.0,0.1
1446036128515746200,118,1446036128512523889,robocape,39.6016045662,8.16869580738,-5.02068666666,0.0,10.0,0.0,0.0,0.0,10.0,0.0,0.0,0.0,10.0,-0.234624492036,1.09189604693,1.0068080501,1.0,0.0,0.0,0.0,1.0,0.0,0.0,0.0,1.0,12.972623291,4.04039794922,13.8048925781,0.1,0.0,0.0,0.0,0.1,0.0,0.0,0.0,0.1
1446036128551533367,119,1446036128548492908,robocape,38.4964515541,8.21394812061,-1.79514050346,0.0,10.0,0.0,0.0,0.0,10.0,0.0,0.0,0.0,10.0,-0.857271554897,1.06393285549,1.2889699676,1.0,0.0,0.0,0.0,1.0,0.0,0.0,0.0,1.0,5.45705200195,3.73623046875,13.1702124023,0.1,0.0,0.0,0.0,0.1,0.0,0.0,0.0,0.1
1446036128582035992,120,1446036128578969955,robocape,36.1720259308,7.76965677405,1.47413468674,0.0,10.0,0.0,0.0,0.0,10.0,0.0,0.0,0.0,10.0,-1.55448712828,0.819188351308,1.49456600375,1.0,0.0,0.0,0.0,1.0,0.0,0.0,0.0,1.0,0.384400634766,3.82364868164,12.052935791,0.1,0.0,0.0,0.0,0.1,0.0,0.0,0.0,0.1
1446036128615515117,121,1446036128612462997,robocape,32.6295555612,7.42076632318,4.77722279841,0.0,10.0,0.0,0.0,0.0,10.0,0.0,0.0,0.0,10.0,-2.2114889692,0.78110514772,1.51200970889,1.0,0.0,0.0,0.0,1.0,0.0,0.0,0.0,1.0,-1.14481933594,2.35310668945,13.0396838379,0.1,0.0,0.0,0.0,0.1,0.0,0.0,0.0,0.1
1446036128649089242,122,1446036128646063089,robocape,28.0978721643,6.87869378729,7.35253103909,0.0,10.0,0.0,0.0,0.0,10.0,0.0,0.0,0.0,10.0,-2.66489214479,0.390153099697,1.2772520588,1.0,0.0,0.0,0.0,1.0,0.0,0.0,0.0,1.0,-2.64170654297,0.859812011719,7.22098388672,0.1,0.0,0.0,0.0,0.1,0.0,0.0,0.0,0.1
1446036128681860450,123,1446036128678811073,robocape,23.4483352756,6.12354391212,8.98372475242,0.0,10.0,0.0,0.0,0.0,10.0,0.0,0.0,0.0,10.0,-2.61855314182,-0.0191747598486,0.909735828371,1.0,0.0,0.0,0.0,1.0,0.0,0.0,0.0,1.0,-6.63540161133,-0.221539306641,8.27479248047,0.1,0.0,0.0,0.0,0.1,0.0,0.0,0.0,0.1
1446036128715570617,124,1446036128712562084,robocape,19.2422091372,6.14341829233,10.1620337656,0.0,10.0,0.0,0.0,0.0,10.0,0.0,0.0,0.0,10.0,-2.31415382922,0.213186045261,0.547146445957,1.0,0.0,0.0,0.0,1.0,0.0,0.0,0.0,1.0,-1.80225219727,-1.20229980469,9.43517944336,0.1,0.0,0.0,0.0,0.1,0.0,0.0,0.0,0.1
1446036128749118117,125,1446036128746083021,robocape,15.9213637013,6.35322379691,10.6085623462,0.0,10.0,0.0,0.0,0.0,10.0,0.0,0.0,0.0,10.0,-1.78391845619,0.164849671476,0.176700738327,1.0,0.0,0.0,0.0,1.0,0.0,0.0,0.0,1.0,0.234711914063,-2.24533081055,7.15871337891,0.1,0.0,0.0,0.0,0.1,0.0,0.0,0.0,0.1
1446036128781934825,126,1446036128778918981,robocape,13.6533407656,6.39288431272,10.4829422359,0.0,10.0,0.0,0.0,0.0,10.0,0.0,0.0,0.0,10.0,-1.18630510758,-0.000133158054504,-0.0728374558137,1.0,0.0,0.0,0.0,1.0,0.0,0.0,0.0,1.0,-0.940045166016,-2.28724365234,9.35973632813,0.1,0.0,0.0,0.0,0.1,0.0,0.0,0.0,0.1
1446036128815462075,127,1446036128812427043,robocape,12.5859854105,6.82836833936,9.96747116989,0.0,10.0,0.0,0.0,0.0,10.0,0.0,0.0,0.0,10.0,-0.524509576691,0.163384932876,-0.310391425049,1.0,0.0,0.0,0.0,1.0,0.0,0.0,0.0,1.0,-4.8702722168,-2.52195556641,10.1620678711,0.1,0.0,0.0,0.0,0.1,0.0,0.0,0.0,0.1
1446036128848989909,128,1446036128845819950,robocape,12.7399931021,7.10425576868,9.04381869246,0.0,10.0,0.0,0.0,0.0,10.0,0.0,0.0,0.0,10.0,0.148071756608,0.0414121549507,-0.494149540264,1.0,0.0,0.0,0.0,1.0,0.0,0.0,0.0,1.0,0.147293701172,-2.39022949219,8.56937988281,0.1,0.0,0.0,0.0,0.1,0.0,0.0,0.0,0.1
1446036128882018075,129,1446036128878918886,robocape,14.0052636977,7.80146403285,8.23890752578,0.0,10.0,0.0,0.0,0.0,10.0,0.0,0.0,0.0,10.0,0.736630357516,0.270843482861,-0.480567418705,1.0,0.0,0.0,0.0,1.0,0.0,0.0,0.0,1.0,1.85135009766,-1.3759387207,11.1931237793,0.1,0.0,0.0,0.0,0.1,0.0,0.0,0.0,0.1
1446036128915826742,130,1446036128912448883,robocape,15.9939629124,8.1637442357,7.68857957596,0.0,10.0,0.0,0.0,0.0,10.0,0.0,0.0,0.0,10.0,1.111603439,0.126899625942,-0.311856163648,1.0,0.0,0.0,0.0,1.0,0.0,0.0,0.0,1.0,2.9853918457,-0.326920166016,9.78844482422,0.1,0.0,0.0,0.0,0.1,0.0,0.0,0.0,0.1
1446036128951725492,131,1446036128948478937,robocape,18.0876132774,7.29376166988,7.27263123856,0.0,10.0,0.0,0.0,0.0,10.0,0.0,0.0,0.0,10.0,1.15954033862,-0.482964263686,-0.0605869147993,1.0,0.0,0.0,0.0,1.0,0.0,0.0,0.0,1.0,-1.7244140625,0.372425537109,6.11807739258,0.1,0.0,0.0,0.0,0.1,0.0,0.0,0.0,0.1
1446036128984100825,132,1446036128980751991,robocape,19.6805394936,7.63610901366,7.72262909628,0.0,10.0,0.0,0.0,0.0,10.0,0.0,0.0,0.0,10.0,0.848483123299,0.266049792899,0.178032318872,1.0,0.0,0.0,0.0,1.0,0.0,0.0,0.0,1.0,-10.8721911621,2.94228149414,13.6540063477,0.1,0.0,0.0,0.0,0.1,0.0,0.0,0.0,0.1
1446036129018391867,133,1446036129015064001,robocape,20.7783845461,8.29902935305,8.82094859983,0.0,10.0,0.0,0.0,0.0,10.0,0.0,0.0,0.0,10.0,0.542752230158,0.546081181521,0.431298938538,1.0,0.0,0.0,0.0,1.0,0.0,0.0,0.0,1.0,7.68681518555,0.991538085938,4.37809570313,0.1,0.0,0.0,0.0,0.1,0.0,0.0,0.0,0.1
1446036129052318492,134,1446036129049227952,robocape,20.9447113118,8.66135952268,10.0052966785,0.0,10.0,0.0,0.0,0.0,10.0,0.0,0.0,0.0,10.0,0.0296942461544,0.413588917289,0.51944957062,1.0,0.0,0.0,0.0,1.0,0.0,0.0,0.0,1.0,7.63172973633,2.13635742188,13.7126843262,0.1,0.0,0.0,0.0,0.1,0.0,0.0,0.0,0.1
1446036129084982034,135,1446036129081931114,robocape,20.4906400657,8.33886989223,11.0913672065,0.0,10.0,0.0,0.0,0.0,10.0,0.0,0.0,0.0,10.0,-0.301469835397,0.0519316412565,0.595615977796,1.0,0.0,0.0,0.0,1.0,0.0,0.0,0.0,1.0,6.72880737305,0.872984619141,9.39685913086,0.1,0.0,0.0,0.0,0.1,0.0,0.0,0.0,0.1
1446036129117083951,136,1446036129113807916,robocape,19.5308791029,7.85411486425,12.0675154162,0.0,10.0,0.0,0.0,0.0,10.0,0.0,0.0,0.0,10.0,-0.563125412497,-0.0591221761998,0.568851208841,1.0,0.0,0.0,0.0,1.0,0.0,0.0,0.0,1.0,1.54598510742,0.845441894531,9.32500854492,0.1,0.0,0.0,0.0,0.1,0.0,0.0,0.0,0.1
1446036129150014659,137,1446036129146893978,robocape,18.0722475786,7.88701778945,13.1816740655,0.0,10.0,0.0,0.0,0.0,10.0,0.0,0.0,0.0,10.0,-0.835300475903,0.207593406972,0.547279604011,1.0,0.0,0.0,0.0,1.0,0.0,0.0,0.0,1.0,2.34711914063,1.26337280273,12.0457507324,0.1,0.0,0.0,0.0,0.1,0.0,0.0,0.0,0.1
1446036129183575326,138,1446036129180402040,robocape,16.1946955901,7.24924958743,14.104902671,0.0,10.0,0.0,0.0,0.0,10.0,0.0,0.0,0.0,10.0,-1.04569020202,-0.177233370545,0.557399616154,1.0,0.0,0.0,0.0,1.0,0.0,0.0,0.0,1.0,5.96359863281,0.956810302734,6.61025390625,0.1,0.0,0.0,0.0,0.1,0.0,0.0,0.0,0.1
1446036129216823201,139,1446036129213664054,robocape,13.8119038171,7.18614699095,15.1095211836,0.0,10.0,0.0,0.0,0.0,10.0,0.0,0.0,0.0,10.0,-1.3126721013,0.104129598622,0.51412324844,1.0,0.0,0.0,0.0,1.0,0.0,0.0,0.0,1.0,-0.549656982422,0.888552246094,12.2672900391,0.1,0.0,0.0,0.0,0.1,0.0,0.0,0.0,0.1
1446036129249091326,140,1446036129246052026,robocape,11.0333047066,6.92101653509,15.9534785109,0.0,10.0,0.0,0.0,0.0,10.0,0.0,0.0,0.0,10.0,-1.5093465478,-0.0411458388417,0.458463181657,1.0,0.0,0.0,0.0,1.0,0.0,0.0,0.0,1.0,-3.27039916992,0.543669433594,6.49529296875,0.1,0.0,0.0,0.0,0.1,0.0,0.0,0.0,0.1
1446036129282296034,141,1446036129279269933,robocape,7.94956773476,6.62704157614,16.5592146694,0.0,10.0,0.0,0.0,0.0,10.0,0.0,0.0,0.0,10.0,-1.65209198223,-0.0994690667145,0.33702303595,1.0,0.0,0.0,0.0,1.0,0.0,0.0,0.0,1.0,-3.41529785156,-0.21076171875,12.1187988281,0.1,0.0,0.0,0.0,0.1,0.0,0.0,0.0,0.1
1446036129315943034,142,1446036129312836885,robocape,4.96621656368,6.29306209115,16.7129082316,0.0,10.0,0.0,0.0,0.0,10.0,0.0,0.0,0.0,10.0,-1.57086556898,-0.163651248985,0.101732753641,1.0,0.0,0.0,0.0,1.0,0.0,0.0,0.0,1.0,-3.67036743164,-0.869392089844,7.76585083008,0.1,0.0,0.0,0.0,0.1,0.0,0.0,0.0,0.1
1446036129349378159,143,1446036129346272945,robocape,2.39872113832,6.11583065472,16.4545288361,0.0,10.0,0.0,0.0,0.0,10.0,0.0,0.0,0.0,10.0,-1.32945001617,-0.0990695925509,-0.123038042362,1.0,0.0,0.0,0.0,1.0,0.0,0.0,0.0,1.0,-5.60554321289,-1.43581420898,10.0614770508,0.1,0.0,0.0,0.0,0.1,0.0,0.0,0.0,0.1
1446036129383845367,144,1446036129380680084,robocape,0.328494781726,6.48925947795,15.8128281322,0.0,10.0,0.0,0.0,0.0,10.0,0.0,0.0,0.0,10.0,-1.04742125673,0.190815492104,-0.331030923497,1.0,0.0,0.0,0.0,1.0,0.0,0.0,0.0,1.0,-6.44260253906,-1.74716674805,9.92735595703,0.1,0.0,0.0,0.0,0.1,0.0,0.0,0.0,0.1
1446036129415282867,145,1446036129412280082,robocape,-1.32090489772,6.80014118066,15.073769514,0.0,10.0,0.0,0.0,0.0,10.0,0.0,0.0,0.0,10.0,-0.82012045769,0.170042835602,-0.374307291211,1.0,0.0,0.0,0.0,1.0,0.0,0.0,0.0,1.0,-1.95553344727,-1.58430541992,11.0590026855,0.1,0.0,0.0,0.0,0.1,0.0,0.0,0.0,0.1
1446036129448972242,146,1446036129445880889,robocape,-2.62265557304,7.00403019836,14.3469922338,0.0,10.0,0.0,0.0,0.0,10.0,0.0,0.0,0.0,10.0,-0.638093397183,0.124103306798,-0.364586753232,1.0,0.0,0.0,0.0,1.0,0.0,0.0,0.0,1.0,1.21786743164,-0.621507568359,10.310559082,0.1,0.0,0.0,0.0,0.1,0.0,0.0,0.0,0.1
1446036129482168284,147,1446036129479069948,robocape,-3.82555974677,7.83462520743,13.5253585814,0.0,10.0,0.0,0.0,0.0,10.0,0.0,0.0,0.0,10.0,-0.578172272656,0.464588452164,-0.389886783588,1.0,0.0,0.0,0.0,1.0,0.0,0.0,0.0,1.0,5.16246459961,-1.26696533203,11.8553466797,0.1,0.0,0.0,0.0,0.1,0.0,0.0,0.0,0.1
1446036129515754909,148,1446036129512690067,robocape,-4.87164487785,8.25211027856,12.8255229252,0.0,10.0,0.0,0.0,0.0,10.0,0.0,0.0,0.0,10.0,-0.501340075207,0.252201355231,-0.333960400696,1.0,0.0,0.0,0.0,1.0,0.0,0.0,0.0,1.0,4.88703735352,-0.508941650391,8.59812011719,0.1,0.0,0.0,0.0,0.1,0.0,0.0,0.0,0.1
1446036129552372909,149,1446036129549228906,robocape,-6.1237363655,8.79898902368,12.1964019875,0.0,10.0,0.0,0.0,0.0,10.0,0.0,0.0,0.0,10.0,-0.614124947372,0.325038811044,-0.283493498039,1.0,0.0,0.0,0.0,1.0,0.0,0.0,0.0,1.0,5.98036376953,-0.283809814453,11.5679443359,0.1,0.0,0.0,0.0,0.1,0.0,0.0,0.0,0.1
1446036129584665992,150,1446036129581651926,robocape,-7.63434536321,8.75198898825,11.7528173092,0.0,10.0,0.0,0.0,0.0,10.0,0.0,0.0,0.0,10.0,-0.764859865071,0.0119842249054,-0.217447103005,1.0,0.0,0.0,0.0,1.0,0.0,0.0,0.0,1.0,-1.23702758789,-0.455053710938,8.88073242188,0.1,0.0,0.0,0.0,0.1,0.0,0.0,0.0,0.1
1446036129615725159,151,1446036129612719058,robocape,-9.60766695116,8.79708648629,11.3151826121,0.0,10.0,0.0,0.0,0.0,10.0,0.0,0.0,0.0,10.0,-1.01293332061,0.0685763980695,-0.203731823391,1.0,0.0,0.0,0.0,1.0,0.0,0.0,0.0,1.0,-1.20948486328,-0.28740234375,10.8530310059,0.1,0.0,0.0,0.0,0.1,0.0,0.0,0.0,0.1
1446036129649028201,152,1446036129646001100,robocape,-12.0761645407,9.66979422896,10.6856195365,0.0,10.0,0.0,0.0,0.0,10.0,0.0,0.0,0.0,10.0,-1.26580046611,0.527971686108,-0.210123410007,1.0,0.0,0.0,0.0,1.0,0.0,0.0,0.0,1.0,1.51125732422,-0.203576660156,13.7498071289,0.1,0.0,0.0,0.0,0.1,0.0,0.0,0.0,0.1
1446036129682462867,153,1446036129679425001,robocape,-14.8884980893,10.4240048163,10.0832274073,0.0,10.0,0.0,0.0,0.0,10.0,0.0,0.0,0.0,10.0,-1.45714859044,0.480167944541,-0.181627586343,1.0,0.0,0.0,0.0,1.0,0.0,0.0,0.0,1.0,3.92064697266,0.414338378906,7.03656738281,0.1,0.0,0.0,0.0,0.1,0.0,0.0,0.0,0.1
1446036129716225243,154,1446036129712887048,robocape,-18.05807969,10.6965142947,9.43805485747,0.0,10.0,0.0,0.0,0.0,10.0,0.0,0.0,0.0,10.0,-1.65302408861,0.258859257956,-0.246342400832,1.0,0.0,0.0,0.0,1.0,0.0,0.0,0.0,1.0,6.61983398438,-1.18194213867,11.2350366211,0.1,0.0,0.0,0.0,0.1,0.0,0.0,0.0,0.1
1446036129749109451,155,1446036129746043920,robocape,-21.5294856151,10.470921496,8.64934636699,0.0,10.0,0.0,0.0,0.0,10.0,0.0,0.0,0.0,10.0,-1.8166753376,0.0571248053822,-0.387756254716,1.0,0.0,0.0,0.0,1.0,0.0,0.0,0.0,1.0,3.19136352539,-1.01548828125,9.2387878418,0.1,0.0,0.0,0.0,0.1,0.0,0.0,0.0,0.1
1446036129782338493,156,1446036129779155015,robocape,-24.7967285135,11.0472867205,6.88479328342,0.0,10.0,0.0,0.0,0.0,10.0,0.0,0.0,0.0,10.0,-1.63318353849,0.672048701081,-0.681636081006,1.0,0.0,0.0,0.0,1.0,0.0,0.0,0.0,1.0,0.166453857422,-11.2086914063,14.6479394531,0.1,0.0,0.0,0.0,0.1,0.0,0.0,0.0,0.1
1446036129815810951,157,1446036129812649011,robocape,-24.887458724,11.5308271948,3.69383317841,0.0,10.0,0.0,0.0,0.0,10.0,0.0,0.0,0.0,10.0,0.268979270098,0.923051633821,-1.37805270606,1.0,0.0,0.0,0.0,1.0,0.0,0.0,0.0,1.0,3.76736572266,-2.69798950195,10.6566394043,0.1,0.0,0.0,0.0,0.1,0.0,0.0,0.0,0.1
1446036129848730743,158,1446036129845669984,robocape,-23.7785841568,11.6642667985,0.756659485953,0.0,10.0,0.0,0.0,0.0,10.0,0.0,0.0,0.0,10.0,0.9032110837,0.67790765548,-1.34636108909,1.0,0.0,0.0,0.0,1.0,0.0,0.0,0.0,1.0,5.86181030273,-3.67635498047,10.8733886719,0.1,0.0,0.0,0.0,0.1,0.0,0.0,0.0,0.1
1446036129881902618,159,1446036129878845930,robocape,-21.7732989745,11.7732964848,-1.76502546757,0.0,10.0,0.0,0.0,0.0,10.0,0.0,0.0,0.0,10.0,1.34050213469,0.540488543232,-1.17139140547,1.0,0.0,0.0,0.0,1.0,0.0,0.0,0.0,1.0,0.366437988281,-1.7280065918,9.56930053711,0.1,0.0,0.0,0.0,0.1,0.0,0.0,0.0,0.1
1446036129915447993,160,1446036129912214994,robocape,-19.389444289,11.9561071524,-3.99081684667,0.0,10.0,0.0,0.0,0.0,10.0,0.0,0.0,0.0,10.0,1.50561812228,0.478703205942,-1.0331733449,1.0,0.0,0.0,0.0,1.0,0.0,0.0,0.0,1.0,-0.829874267578,-1.55077514648,9.75611206055,0.1,0.0,0.0,0.0,0.1,0.0,0.0,0.0,0.1
1446036129948864326,161,1446036129945770978,robocape,-16.8985253801,12.2373672478,-5.97462641094,0.0,10.0,0.0,0.0,0.0,10.0,0.0,0.0,0.0,10.0,1.53145078485,0.448742643678,-0.917592153587,1.0,0.0,0.0,0.0,1.0,0.0,0.0,0.0,1.0,-1.66214355469,-1.17595458984,12.0158129883,0.1,0.0,0.0,0.0,0.1,0.0,0.0,0.0,0.1
1446036129981945534,162,1446036129978851079,robocape,-14.2053571829,12.2320596298,-7.64369143067,0.0,10.0,0.0,0.0,0.0,10.0,0.0,0.0,0.0,10.0,1.60202455374,0.219977106041,-0.821185722126,1.0,0.0,0.0,0.0,1.0,0.0,0.0,0.0,1.0,-2.72792724609,-0.625100097656,9.43398193359,0.1,0.0,0.0,0.0,0.1,0.0,0.0,0.0,0.1
1446036130015635826,163,1446036130012361049,robocape,-11.544765873,12.4757166481,-9.13745589386,0.0,10.0,0.0,0.0,0.0,10.0,0.0,0.0,0.0,10.0,1.56061239879,0.294945090726,-0.716789807395,1.0,0.0,0.0,0.0,1.0,0.0,0.0,0.0,1.0,0.623902587891,-0.911304931641,11.0661877441,0.1,0.0,0.0,0.0,0.1,0.0,0.0,0.0,0.1
1446036130049201201,164,1446036130045927047,robocape,-8.7040375665,12.1144359158,-10.308770433,0.0,10.0,0.0,0.0,0.0,10.0,0.0,0.0,0.0,10.0,1.6188024686,-0.0816258874109,-0.62291337897,1.0,0.0,0.0,0.0,1.0,0.0,0.0,0.0,1.0,3.1841784668,-0.427510986328,8.33347045898,0.1,0.0,0.0,0.0,0.1,0.0,0.0,0.0,0.1
1446036130082495618,165,1446036130078995943,robocape,-5.72982741534,11.9466983541,-11.306909112,0.0,10.0,0.0,0.0,0.0,10.0,0.0,0.0,0.0,10.0,1.66527462963,-0.0189084437396,-0.521580099492,1.0,0.0,0.0,0.0,1.0,0.0,0.0,0.0,1.0,0.740061035156,-0.597557373047,9.18729492188,0.1,0.0,0.0,0.0,0.1,0.0,0.0,0.0,0.1
1446036130115766951,166,1446036130112400054,robocape,-2.8498824817,11.4697939482,-12.1133483357,0.0,10.0,0.0,0.0,0.0,10.0,0.0,0.0,0.0,10.0,1.59323612214,-0.21198762277,-0.437024734882,1.0,0.0,0.0,0.0,1.0,0.0,0.0,0.0,1.0,-5.29778320313,-0.0431103515625,9.58486816406,0.1,0.0,0.0,0.0,0.1,0.0,0.0,0.0,0.1
1446036130149089201,167,1446036130145648002,robocape,0.0734499629134,10.971574914,-12.7871239267,0.0,10.0,0.0,0.0,0.0,10.0,0.0,0.0,0.0,10.0,1.60082613125,-0.243412923633,-0.36245622436,1.0,0.0,0.0,0.0,1.0,0.0,0.0,0.0,1.0,-7.68442016602,-0.256267089844,8.28676757813,0.1,0.0,0.0,0.0,0.1,0.0,0.0,0.0,0.1
1446036130182202951,168,1446036130179043054,robocape,2.93712014728,10.9649800361,-13.2935650978,0.0,10.0,0.0,0.0,0.0,10.0,0.0,0.0,0.0,10.0,1.55581870882,0.00412789968962,-0.277767701695,1.0,0.0,0.0,0.0,1.0,0.0,0.0,0.0,1.0,2.82851806641,0.185614013672,11.9032470703,0.1,0.0,0.0,0.0,0.1,0.0,0.0,0.0,0.1
1446036130215722326,169,1446036130212558984,robocape,5.77242858919,10.5235386281,-13.6849796879,0.0,10.0,0.0,0.0,0.0,10.0,0.0,0.0,0.0,10.0,1.53318183956,-0.231428698728,-0.203066033119,1.0,0.0,0.0,0.0,1.0,0.0,0.0,0.0,1.0,-3.0620324707,0.166453857422,5.83786010742,0.1,0.0,0.0,0.0,0.1,0.0,0.0,0.0,0.1
1446036130248921201,170,1446036130245799064,robocape,8.48673861853,10.6081152359,-13.8546898075,0.0,10.0,0.0,0.0,0.0,10.0,0.0,0.0,0.0,10.0,1.45595016795,0.051532167093,-0.119043300727,1.0,0.0,0.0,0.0,1.0,0.0,0.0,0.0,1.0,-1.54718261719,0.743653564453,13.2372729492,0.1,0.0,0.0,0.0,0.1,0.0,0.0,0.0,0.1
1446036130281988368,171,1446036130278949975,robocape,11.1799999986,10.9869891118,-13.8185973487,0.0,10.0,0.0,0.0,0.0,10.0,0.0,0.0,0.0,10.0,1.43451172117,0.220776054368,-0.0482032157304,1.0,0.0,0.0,0.0,1.0,0.0,0.0,0.0,1.0,0.314945068359,0.506546630859,7.53832397461,0.1,0.0,0.0,0.0,0.1,0.0,0.0,0.0,0.1
1446036130315633909,172,1446036130312604904,robocape,13.6831685598,11.7657636964,-13.5181541572,0.0,10.0,0.0,0.0,0.0,10.0,0.0,0.0,0.0,10.0,1.31759894932,0.457930549439,0.0254331884103,1.0,0.0,0.0,0.0,1.0,0.0,0.0,0.0,1.0,0.484991455078,1.2226574707,13.3258886719,0.1,0.0,0.0,0.0,0.1,0.0,0.0,0.0,0.1
1446036130349025201,173,1446036130345887899,robocape,16.093168623,12.1317996429,-13.0648233349,0.0,10.0,0.0,0.0,0.0,10.0,0.0,0.0,0.0,10.0,1.2564794023,0.271509273134,0.138617534739,1.0,0.0,0.0,0.0,1.0,0.0,0.0,0.0,1.0,6.41745483398,0.649050292969,8.64242797852,0.1,0.0,0.0,0.0,0.1,0.0,0.0,0.0,0.1
1446036130382028201,174,1446036130378998041,robocape,18.2188662784,12.4233952872,-12.4652557515,0.0,10.0,0.0,0.0,0.0,10.0,0.0,0.0,0.0,10.0,1.09469236608,0.262987157645,0.212653413043,1.0,0.0,0.0,0.0,1.0,0.0,0.0,0.0,1.0,-2.60099121094,0.456251220703,11.4841186523,0.1,0.0,0.0,0.0,0.1,0.0,0.0,0.0,0.1
1446036130415636910,175,1446036130412333965,robocape,20.1470386691,12.1086489501,-11.8192409442,0.0,10.0,0.0,0.0,0.0,10.0,0.0,0.0,0.0,10.0,0.984570655002,-0.0245010820287,0.336357245677,1.0,0.0,0.0,0.0,1.0,0.0,0.0,0.0,1.0,0.102985839844,1.34360595703,10.7404650879,0.1,0.0,0.0,0.0,0.1,0.0,0.0,0.0,0.1
1446036130450373826,176,1446036130446855068,robocape,21.7580821627,11.9412379993,-11.1472904594,0.0,10.0,0.0,0.0,0.0,10.0,0.0,0.0,0.0,10.0,0.820253615744,0.0631169178349,0.323840388554,1.0,0.0,0.0,0.0,1.0,0.0,0.0,0.0,1.0,4.49305664063,0.753233642578,10.0351318359,0.1,0.0,0.0,0.0,0.1,0.0,0.0,0.0,0.1
1446036130482852201,177,1446036130479476928,robocape,23.1935586259,11.2502015742,-10.3240598791,0.0,10.0,0.0,0.0,0.0,10.0,0.0,0.0,0.0,10.0,0.708400849961,-0.156061239879,0.506400081279,1.0,0.0,0.0,0.0,1.0,0.0,0.0,0.0,1.0,-4.07871826172,1.86093017578,6.44260253906,0.1,0.0,0.0,0.0,0.1,0.0,0.0,0.0,0.1
1446036130516090951,178,1446036130512846946,robocape,24.0810842936,11.4543672325,-9.14008182409,0.0,10.0,0.0,0.0,0.0,10.0,0.0,0.0,0.0,10.0,0.384826777516,0.358062008561,0.494415856373,1.0,0.0,0.0,0.0,1.0,0.0,0.0,0.0,1.0,-2.91713378906,1.9124230957,15.2047814941,0.1,0.0,0.0,0.0,0.1,0.0,0.0,0.0,0.1
1446036130552703410,179,1446036130549561023,robocape,24.7845079267,11.9578711556,-7.53132677526,0.0,10.0,0.0,0.0,0.0,10.0,0.0,0.0,0.0,10.0,0.237021337017,0.597613348614,0.625976014223,1.0,0.0,0.0,0.0,1.0,0.0,0.0,0.0,1.0,-2.55548583984,3.07520507813,10.7692053223,0.1,0.0,0.0,0.0,0.1,0.0,0.0,0.0,0.1
1446036130611361826,180,1446036130579566955,robocape,24.1408767624,12.0003250098,-5.88874305857,0.0,10.0,0.0,0.0,0.0,10.0,0.0,0.0,0.0,10.0,-0.515721145094,0.368581494867,0.756737223746,1.0,0.0,0.0,0.0,1.0,0.0,0.0,0.0,1.0,-5.98036376953,4.47150146484,13.6025134277,0.1,0.0,0.0,0.0,0.1,0.0,0.0,0.0,0.1
1446036130633561160,181,1446036130630525112,robocape,21.9425475393,11.3387316559,-4.35297697358,0.0,10.0,0.0,0.0,0.0,10.0,0.0,0.0,0.0,10.0,-1.35475004652,-0.0299605622634,0.872851047273,1.0,0.0,0.0,0.0,1.0,0.0,0.0,0.0,1.0,-5.42352172852,0.954415283203,8.36580322266,0.1,0.0,0.0,0.0,0.1,0.0,0.0,0.0,0.1
1446036130655762243,182,1446036130652398109,robocape,19.5478015708,11.00881562,-2.96129299864,0.0,10.0,0.0,0.0,0.0,10.0,0.0,0.0,0.0,10.0,-1.42585644763,0.0753674588492,0.737828780006,1.0,0.0,0.0,0.0,1.0,0.0,0.0,0.0,1.0,-3.66437988281,0.756826171875,10.0566870117,0.1,0.0,0.0,0.0,0.1,0.0,0.0,0.0,0.1
1446036130683349701,183,1446036130680218935,robocape,16.9972026766,10.4406235708,-2.08797500773,0.0,10.0,0.0,0.0,0.0,10.0,0.0,0.0,0.0,10.0,-1.44489804942,-0.155928081824,0.525441683073,1.0,0.0,0.0,0.0,1.0,0.0,0.0,0.0,1.0,-4.77207641602,0.0490979003906,11.613449707,0.1,0.0,0.0,0.0,0.1,0.0,0.0,0.0,0.1
1446036130715526201,184,1446036130712392091,robocape,14.9456168383,10.9363653112,-1.37499653077,0.0,10.0,0.0,0.0,0.0,10.0,0.0,0.0,0.0,10.0,-1.14835506204,0.347143048092,0.282295075548,1.0,0.0,0.0,0.0,1.0,0.0,0.0,0.0,1.0,2.29442871094,-0.425115966797,7.88560180664,0.1,0.0,0.0,0.0,0.1,0.0,0.0,0.0,0.1
1446036130748846451,185,1446036130745805978,robocape,13.4507096355,10.8157222787,-1.14365867128,0.0,10.0,0.0,0.0,0.0,10.0,0.0,0.0,0.0,10.0,-0.806005703912,-0.0323574072445,0.130894367577,1.0,0.0,0.0,0.0,1.0,0.0,0.0,0.0,1.0,-1.56275024414,-1.31486572266,9.59444824219,0.1,0.0,0.0,0.0,0.1,0.0,0.0,0.0,0.1
1446036130782223160,186,1446036130779175996,robocape,12.6991638519,10.7332790683,-1.15816652146,0.0,10.0,0.0,0.0,0.0,10.0,0.0,0.0,0.0,10.0,-0.385892041952,-0.0386158358061,0.00133158054504,1.0,0.0,0.0,0.0,1.0,0.0,0.0,0.0,1.0,-1.96511352539,-1.21666992188,8.71427856445,0.1,0.0,0.0,0.0,0.1,0.0,0.0,0.0,0.1
1446036130815832785,187,1446036130812549114,robocape,12.6241127626,10.8570042164,-1.28837171332,0.0,10.0,0.0,0.0,0.0,10.0,0.0,0.0,0.0,10.0,-0.0145142279409,0.0585895439817,-0.0818922035199,1.0,0.0,0.0,0.0,1.0,0.0,0.0,0.0,1.0,-2.84648071289,-0.995130615234,13.4097143555,0.1,0.0,0.0,0.0,0.1,0.0,0.0,0.0,0.1
1446036130849198118,188,1446036130846111059,robocape,13.2272270383,10.9567226281,-1.49248651951,0.0,10.0,0.0,0.0,0.0,10.0,0.0,0.0,0.0,10.0,0.353268318599,0.0412789968962,-0.117445404072,1.0,0.0,0.0,0.0,1.0,0.0,0.0,0.0,1.0,3.73623046875,-0.262254638672,7.88919433594,0.1,0.0,0.0,0.0,0.1,0.0,0.0,0.0,0.1
1446036130882331326,189,1446036130879246950,robocape,14.4041841867,10.9318720708,-1.72431710593,0.0,10.0,0.0,0.0,0.0,10.0,0.0,0.0,0.0,10.0,0.662328163103,-0.0242347659197,-0.117312246018,1.0,0.0,0.0,0.0,1.0,0.0,0.0,0.0,1.0,-4.29307250977,-0.486188964844,12.9594506836,0.1,0.0,0.0,0.0,0.1,0.0,0.0,0.0,0.1
1446036130915508576,190,1446036130912211894,robocape,16.1763155067,11.1449451115,-1.77925020892,0.0,10.0,0.0,0.0,0.0,10.0,0.0,0.0,0.0,10.0,0.967792740135,0.123038042362,-0.0633832339439,1.0,0.0,0.0,0.0,1.0,0.0,0.0,0.0,1.0,2.86085083008,-0.267044677734,9.06874145508,0.1,0.0,0.0,0.0,0.1,0.0,0.0,0.0,0.1
1446036130950705201,191,1446036130947612047,robocape,18.3240885667,11.3284167777,-1.88532687735,0.0,10.0,0.0,0.0,0.0,10.0,0.0,0.0,0.0,10.0,1.18217720789,0.103330650295,-0.0893490545722,1.0,0.0,0.0,0.0,1.0,0.0,0.0,0.0,1.0,-1.9507434082,-0.144898681641,9.06514892578,0.1,0.0,0.0,0.0,0.1,0.0,0.0,0.0,0.1
1446036130981975826,192,1446036130978892087,robocape,20.7411106284,11.6106653168,-1.73611296093,0.0,10.0,0.0,0.0,0.0,10.0,0.0,0.0,0.0,10.0,1.3126721013,0.19867181732,0.0118510668509,1.0,0.0,0.0,0.0,1.0,0.0,0.0,0.0,1.0,0.761616210938,-0.0874182128906,9.32381103516,0.1,0.0,0.0,0.0,0.1,0.0,0.0,0.0,0.1
1446036131015727910,193,1446036131012501955,robocape,23.2613806672,11.6764258765,-1.50209621882,0.0,10.0,0.0,0.0,0.0,10.0,0.0,0.0,0.0,10.0,1.37192743555,0.114249610764,0.0864195773731,1.0,0.0,0.0,0.0,1.0,0.0,0.0,0.0,1.0,-1.41545654297,0.886157226563,9.45553710938,0.1,0.0,0.0,0.0,0.1,0.0,0.0,0.0,0.1
1446036131049824535,194,1446036131046807050,robocape,25.7916579802,11.6249102967,-1.00393663264,0.0,10.0,0.0,0.0,0.0,10.0,0.0,0.0,0.0,10.0,1.36420426839,0.12210593598,0.231561856782,1.0,0.0,0.0,0.0,1.0,0.0,0.0,0.0,1.0,2.73511230469,0.675395507813,9.09149414063,0.1,0.0,0.0,0.0,0.1,0.0,0.0,0.0,0.1
1446036131082348410,195,1446036131079165935,robocape,28.2321688115,11.7600254728,-0.215964756051,0.0,10.0,0.0,0.0,0.0,10.0,0.0,0.0,0.0,10.0,1.30361735359,0.292015613527,0.316250379447,1.0,0.0,0.0,0.0,1.0,0.0,0.0,0.0,1.0,1.20828735352,0.817899169922,8.47118408203,0.1,0.0,0.0,0.0,0.1,0.0,0.0,0.0,0.1
1446036131119429493,196,1446036131116177082,robocape,30.4190667292,12.027965574,0.90410133165,0.0,10.0,0.0,0.0,0.0,10.0,0.0,0.0,0.0,10.0,1.14422716235,0.452204753095,0.422510506941,1.0,0.0,0.0,0.0,1.0,0.0,0.0,0.0,1.0,4.12422363281,1.67172363281,11.5739318848,0.1,0.0,0.0,0.0,0.1,0.0,0.0,0.0,0.1
1446036131151158785,197,1446036131148123025,robocape,32.3544726491,11.9650725256,1.94154343862,0.0,10.0,0.0,0.0,0.0,10.0,0.0,0.0,0.0,10.0,1.02358596497,0.296676145435,0.465254242437,1.0,0.0,0.0,0.0,1.0,0.0,0.0,0.0,1.0,-0.0610729980469,1.35079101563,8.80409179688,0.1,0.0,0.0,0.0,0.1,0.0,0.0,0.0,0.1
1446036131182335077,198,1446036131179073095,robocape,34.0720492403,11.7598579666,2.97142150109,0.0,10.0,0.0,0.0,0.0,10.0,0.0,0.0,0.0,10.0,0.91532846666,0.246741874996,0.498277439954,1.0,0.0,0.0,0.0,1.0,0.0,0.0,0.0,1.0,-3.1805859375,1.82260986328,10.2913989258,0.1,0.0,0.0,0.0,0.1,0.0,0.0,0.0,0.1
1446036131215460827,199,1446036131212301969,robocape,35.4831480461,12.9060467489,5.27640362689,0.0,10.0,0.0,0.0,0.0,10.0,0.0,0.0,0.0,10.0,0.62411180146,1.2254535756,0.628506017259,1.0,0.0,0.0,0.0,1.0,0.0,0.0,0.0,1.0,6.35518432617,3.10274780273,15.1568811035,0.1,0.0,0.0,0.0,0.1,0.0,0.0,0.0,0.1
1446036131249130910,200,1446036131245826959,robocape,36.6609624406,13.6775508718,7.26079418316,0.0,10.0,0.0,0.0,0.0,10.0,0.0,0.0,0.0,10.0,0.518650622293,0.984836971111,0.588159126744,1.0,0.0,0.0,0.0,1.0,0.0,0.0,0.0,1.0,3.40571777344,0.514929199219,7.19344116211,0.1,0.0,0.0,0.0,0.1,0.0,0.0,0.0,0.1
1446036131282142577,201,1446036131278872013,robocape,37.1966538882,13.458835162,8.82742732828,0.0,10.0,0.0,0.0,0.0,10.0,0.0,0.0,0.0,10.0,0.186820750469,0.432364202974,0.717056123504,1.0,0.0,0.0,0.0,1.0,0.0,0.0,0.0,1.0,0.28740234375,1.6058605957,16.5519799805,0.1,0.0,0.0,0.0,0.1,0.0,0.0,0.0,0.1
1446036131315408827,202,1446036131312417030,robocape,37.6010840921,13.3044766107,10.2456782275,0.0,10.0,0.0,0.0,0.0,10.0,0.0,0.0,0.0,10.0,0.137552270303,0.419314713633,0.637294448856,1.0,0.0,0.0,0.0,1.0,0.0,0.0,0.0,1.0,-0.253872070313,1.1076965332,7.6604699707,0.1,0.0,0.0,0.0,0.1,0.0,0.0,0.0,0.1
1446036131351753243,203,1446036131348670005,robocape,37.9411058177,13.5285023133,12.1577231773,0.0,10.0,0.0,0.0,0.0,10.0,0.0,0.0,0.0,10.0,0.0539290120741,0.741424047478,0.718254545994,1.0,0.0,0.0,0.0,1.0,0.0,0.0,0.0,1.0,-0.512534179688,2.16629516602,15.2766320801,0.1,0.0,0.0,0.0,0.1,0.0,0.0,0.0,0.1
1446036131384032910,204,1446036131380779981,robocape,38.1449722543,13.0731167204,13.4878815904,0.0,10.0,0.0,0.0,0.0,10.0,0.0,0.0,0.0,10.0,0.0380832035881,0.274039276169,0.702142421399,1.0,0.0,0.0,0.0,1.0,0.0,0.0,0.0,1.0,7.77782592773,1.08494384766,7.72274047852,0.1,0.0,0.0,0.0,0.1,0.0,0.0,0.0,0.1
1446036131415542160,205,1446036131412215948,robocape,38.3657518146,13.0975613442,15.0637423662,0.0,10.0,0.0,0.0,0.0,10.0,0.0,0.0,0.0,10.0,0.0350205683345,0.560329093353,0.651808676797,1.0,0.0,0.0,0.0,1.0,0.0,0.0,0.0,1.0,-2.59739868164,0.805924072266,12.0134179688,0.1,0.0,0.0,0.0,0.1,0.0,0.0,0.0,0.1
1446036131449431702,206,1446036131446336984,robocape,38.4744443625,13.2150371399,17.035851911,0.0,10.0,0.0,0.0,0.0,10.0,0.0,0.0,0.0,10.0,-0.066579027252,0.731304035336,0.785099889355,1.0,0.0,0.0,0.0,1.0,0.0,0.0,0.0,1.0,-2.4944128418,2.44052490234,12.2181921387,0.1,0.0,0.0,0.0,0.1,0.0,0.0,0.0,0.1
1446036131482481118,207,1446036131479412078,robocape,38.1748700459,12.639170223,18.5517722664,0.0,10.0,0.0,0.0,0.0,10.0,0.0,0.0,0.0,10.0,-0.255663464648,0.284825078584,0.823582567107,1.0,0.0,0.0,0.0,1.0,0.0,0.0,0.0,1.0,-2.76984008789,1.36156860352,8.18617675781,0.1,0.0,0.0,0.0,0.1,0.0,0.0,0.0,0.1
1446036131515628368,208,1446036131512346982,robocape,37.0844835766,12.1469893634,20.6346637274,0.0,10.0,0.0,0.0,0.0,10.0,0.0,0.0,0.0,10.0,-0.754074062656,0.474708464307,1.02411859719,1.0,0.0,0.0,0.0,1.0,0.0,0.0,0.0,1.0,-3.74461303711,3.71467529297,14.2371936035,0.1,0.0,0.0,0.0,0.1,0.0,0.0,0.0,0.1
1446036131551887785,209,1446036131548821926,robocape,35.1665621483,11.9340043127,23.0770161472,0.0,10.0,0.0,0.0,0.0,10.0,0.0,0.0,0.0,10.0,-1.2447614935,0.663526585593,1.09109709861,1.0,0.0,0.0,0.0,1.0,0.0,0.0,0.0,1.0,3.83322875977,3.02969970703,11.383527832,0.1,0.0,0.0,0.0,0.1,0.0,0.0,0.0,0.1
1446036131583759702,210,1446036131580631017,robocape,32.1680341957,11.3560967198,25.4099310797,0.0,10.0,0.0,0.0,0.0,10.0,0.0,0.0,0.0,10.0,-1.82892587861,0.403868379311,1.15567875504,1.0,0.0,0.0,0.0,1.0,0.0,0.0,0.0,1.0,-0.0227526855469,1.8429675293,9.88424560547,0.1,0.0,0.0,0.0,0.1,0.0,0.0,0.0,0.1
1446036131617076910,211,1446036131613677978,robocape,28.356652628,10.945433955,27.6739388574,0.0,10.0,0.0,0.0,0.0,10.0,0.0,0.0,0.0,10.0,-2.24650953754,0.385359409734,1.09442604997,1.0,0.0,0.0,0.0,1.0,0.0,0.0,0.0,1.0,0.165256347656,2.13515991211,9.93813354492,0.1,0.0,0.0,0.0,0.1,0.0,0.0,0.0,0.1
1446036131650299785,212,1446036131647209882,robocape,23.7448921551,10.3864914297,29.6676481778,0.0,10.0,0.0,0.0,0.0,10.0,0.0,0.0,0.0,10.0,-2.63293421171,0.167512832566,1.02105596194,1.0,0.0,0.0,0.0,1.0,0.0,0.0,0.0,1.0,-0.155676269531,0.968785400391,8.8483996582,0.1,0.0,0.0,0.0,0.1,0.0,0.0,0.0,0.1
1446036131682493618,213,1446036131679435968,robocape,18.6686458706,10.1288638349,31.3219651043,0.0,10.0,0.0,0.0,0.0,10.0,0.0,0.0,0.0,10.0,-2.82694549712,0.16911072922,0.820653089908,1.0,0.0,0.0,0.0,1.0,0.0,0.0,0.0,1.0,-0.196391601563,0.0778381347656,8.71667358398,0.1,0.0,0.0,0.0,0.1,0.0,0.0,0.0,0.1
1446036131722673785,214,1446036131719516992,robocape,13.5904538279,9.7608304013,32.2919423853,0.0,10.0,0.0,0.0,0.0,10.0,0.0,0.0,0.0,10.0,-2.75397488325,-0.0539290120741,0.518783780347,1.0,0.0,0.0,0.0,1.0,0.0,0.0,0.0,1.0,-1.06458618164,-0.816701660156,8.22329956055,0.1,0.0,0.0,0.0,0.1,0.0,0.0,0.0,0.1
1446036131750621202,215,1446036131747484922,robocape,8.86952395711,9.59506957661,32.7328997864,0.0,10.0,0.0,0.0,0.0,10.0,0.0,0.0,0.0,10.0,-2.51176038211,-0.0399474163512,0.242480817252,1.0,0.0,0.0,0.0,1.0,0.0,0.0,0.0,1.0,0.502954101562,-1.69567382813,8.11193115234,0.1,0.0,0.0,0.0,0.1,0.0,0.0,0.0,0.1
1446036131784645952,216,1446036131781327962,robocape,4.78300658858,9.31531543333,32.7270288852,0.0,10.0,0.0,0.0,0.0,10.0,0.0,0.0,0.0,10.0,-2.13918414561,-0.140348589447,0.0296942461544,1.0,0.0,0.0,0.0,1.0,0.0,0.0,0.0,1.0,-1.79147460938,-1.149609375,8.57297241211,0.1,0.0,0.0,0.0,0.1,0.0,0.0,0.0,0.1
1446036131817913827,217,1446036131814533948,robocape,1.17206972154,9.4848603421,32.5015763103,0.0,10.0,0.0,0.0,0.0,10.0,0.0,0.0,0.0,10.0,-1.87353382687,0.0934769542618,-0.0881506320816,1.0,0.0,0.0,0.0,1.0,0.0,0.0,0.0,1.0,-3.22848632813,-1.99265625,9.71539672852,0.1,0.0,0.0,0.0,0.1,0.0,0.0,0.0,0.1
1446036131850075702,218,1446036131846853971,robocape,-1.83008592696,9.36419369188,32.0893314273,0.0,10.0,0.0,0.0,0.0,10.0,0.0,0.0,0.0,10.0,-1.54197027116,-0.0511326929295,-0.176700738327,1.0,0.0,0.0,0.0,1.0,0.0,0.0,0.0,1.0,-5.14090942383,-1.56275024414,10.556048584,0.1,0.0,0.0,0.0,0.1,0.0,0.0,0.0,0.1
1446036131890715077,219,1446036131887020111,robocape,-4.30888904764,9.20647196792,31.5263924826,0.0,10.0,0.0,0.0,0.0,10.0,0.0,0.0,0.0,10.0,-1.25847677312,-0.0568584892732,-0.257527677411,1.0,0.0,0.0,0.0,1.0,0.0,0.0,0.0,1.0,6.31446899414,-1.35677856445,9.58486816406,0.1,0.0,0.0,0.0,0.1,0.0,0.0,0.0,0.1
1446036131919585369,220,1446036131916311025,robocape,-6.3123608567,8.96463803804,30.8042445008,0.0,10.0,0.0,0.0,0.0,10.0,0.0,0.0,0.0,10.0,-0.998285934616,-0.0836232582285,-0.351270947781,1.0,0.0,0.0,0.0,1.0,0.0,0.0,0.0,1.0,-3.31949707031,-2.04534667969,9.47589477539,0.1,0.0,0.0,0.0,0.1,0.0,0.0,0.0,0.1
1446036131949817702,221,1446036131946661949,robocape,-7.87498954098,9.07136787427,29.8542135254,0.0,10.0,0.0,0.0,0.0,10.0,0.0,0.0,0.0,10.0,-0.749147214639,0.122638568198,-0.45353633364,1.0,0.0,0.0,0.0,1.0,0.0,0.0,0.0,1.0,-0.0047900390625,-2.28844116211,11.9224072266,0.1,0.0,0.0,0.0,0.1,0.0,0.0,0.0,0.1
1446036131985210744,222,1446036131981935024,robocape,-8.87733343882,9.03447190993,28.7287551762,0.0,10.0,0.0,0.0,0.0,10.0,0.0,0.0,0.0,10.0,-0.437291050991,0.0689758722331,-0.564590151097,1.0,0.0,0.0,0.0,1.0,0.0,0.0,0.0,1.0,0.494571533203,-2.07049438477,8.93941040039,0.1,0.0,0.0,0.0,0.1,0.0,0.0,0.0,0.1
1446036132021088827,223,1446036132015934944,robocape,-9.3320133911,9.15653166435,27.5772508668,0.0,10.0,0.0,0.0,0.0,10.0,0.0,0.0,0.0,10.0,-0.1463407019,0.159523349296,-0.568718050786,1.0,0.0,0.0,0.0,1.0,0.0,0.0,0.0,1.0,0.875379638672,-1.36156860352,10.939251709,0.1,0.0,0.0,0.0,0.1,0.0,0.0,0.0,0.1
1446036132053474994,224,1446036132049168109,robocape,-9.50233271161,9.46011896816,26.3847916855,0.0,10.0,0.0,0.0,0.0,10.0,0.0,0.0,0.0,10.0,0.00905474770627,0.259391890174,-0.575242795457,1.0,0.0,0.0,0.0,1.0,0.0,0.0,0.0,1.0,-4.15655639648,-1.90883056641,9.68665649414,0.1,0.0,0.0,0.0,0.1,0.0,0.0,0.0,0.1
1446036132086702535,225,1446036132083226919,robocape,-9.27074411778,9.30990721934,25.3095953616,0.0,10.0,0.0,0.0,0.0,10.0,0.0,0.0,0.0,10.0,0.213186045261,0.0129163312869,-0.56112804168,1.0,0.0,0.0,0.0,1.0,0.0,0.0,0.0,1.0,-0.36404296875,-1.6441809082,10.3716320801,0.1,0.0,0.0,0.0,0.1,0.0,0.0,0.0,0.1
1446036132120059244,226,1446036132116409063,robocape,-8.83829776239,9.45305288224,24.246209101,0.0,10.0,0.0,0.0,0.0,10.0,0.0,0.0,0.0,10.0,0.31664985361,0.160854929841,-0.529436424708,1.0,0.0,0.0,0.0,1.0,0.0,0.0,0.0,1.0,-5.18401977539,-1.25499023438,10.3991748047,0.1,0.0,0.0,0.0,0.1,0.0,0.0,0.0,0.1
1446036132152124577,227,1446036132148726940,robocape,-8.33488812464,9.7766772773,23.193958825,0.0,10.0,0.0,0.0,0.0,10.0,0.0,0.0,0.0,10.0,0.354333583035,0.249671352195,-0.50879692626,1.0,0.0,0.0,0.0,1.0,0.0,0.0,0.0,1.0,-0.28740234375,-1.67890869141,13.4157019043,0.1,0.0,0.0,0.0,0.1,0.0,0.0,0.0,0.1
1446036132185853785,228,1446036132182311058,robocape,-7.43879126998,9.97724565984,22.0522579355,0.0,10.0,0.0,0.0,0.0,10.0,0.0,0.0,0.0,10.0,0.57324542464,0.183491799106,-0.572712792422,1.0,0.0,0.0,0.0,1.0,0.0,0.0,0.0,1.0,-3.2536340332,-1.45856689453,6.60905639648,0.1,0.0,0.0,0.0,0.1,0.0,0.0,0.0,0.1
1446036132215398577,229,1446036132212282896,robocape,-6.5550411957,10.8826543263,20.9341625498,0.0,10.0,0.0,0.0,0.0,10.0,0.0,0.0,0.0,10.0,0.566853838023,0.542885388213,-0.50879692626,1.0,0.0,0.0,0.0,1.0,0.0,0.0,0.0,1.0,-6.61863647461,-1.24301513672,16.6334106445,0.1,0.0,0.0,0.0,0.1,0.0,0.0,0.0,0.1
1446036132249101244,230,1446036132245937108,robocape,-5.46051589466,10.8726010874,20.008561569,0.0,10.0,0.0,0.0,0.0,10.0,0.0,0.0,0.0,10.0,0.664858166138,0.0442084740953,-0.474708464307,1.0,0.0,0.0,0.0,1.0,0.0,0.0,0.0,1.0,-3.57935668945,-1.07416625977,6.56235351563,0.1,0.0,0.0,0.0,0.1,0.0,0.0,0.0,0.1
1446036132282138035,231,1446036132279125928,robocape,-4.45041779086,10.9711115811,19.1881437266,0.0,10.0,0.0,0.0,0.0,10.0,0.0,0.0,0.0,10.0,0.609198099356,0.0896153706812,-0.412257336744,1.0,0.0,0.0,0.0,1.0,0.0,0.0,0.0,1.0,-2.03576660156,-1.13284423828,12.5475073242,0.1,0.0,0.0,0.0,0.1,0.0,0.0,0.0,0.1
1446036132318646869,232,1446036132315048933,robocape,-3.58309643299,11.2613465035,18.5446486452,0.0,10.0,0.0,0.0,0.0,10.0,0.0,0.0,0.0,10.0,0.516520093421,0.179896531635,-0.309858792831,1.0,0.0,0.0,0.0,1.0,0.0,0.0,0.0,1.0,-0.629890136719,-0.477806396484,9.31902099609,0.1,0.0,0.0,0.0,0.1,0.0,0.0,0.0,0.1
1446036132351292035,233,1446036132348027944,robocape,-2.971819075,11.7439397158,17.9736663356,0.0,10.0,0.0,0.0,0.0,10.0,0.0,0.0,0.0,10.0,0.376304662028,0.277101911423,-0.264718212354,1.0,0.0,0.0,0.0,1.0,0.0,0.0,0.0,1.0,1.55317016602,-0.446671142578,12.6349255371,0.1,0.0,0.0,0.0,0.1,0.0,0.0,0.0,0.1
1446036132382202660,234,1446036132379025936,robocape,-2.67665833836,11.5977528178,17.5612559357,0.0,10.0,0.0,0.0,0.0,10.0,0.0,0.0,0.0,10.0,0.195476024012,-0.0591221761998,-0.203864981446,1.0,0.0,0.0,0.0,1.0,0.0,0.0,0.0,1.0,-2.47645019531,-0.216749267578,5.64745605469,0.1,0.0,0.0,0.0,0.1,0.0,0.0,0.0,0.1
1446036132416704910,235,1446036132413151979,robocape,-2.89128517638,11.7509469204,17.3845270201,0.0,10.0,0.0,0.0,0.0,10.0,0.0,0.0,0.0,10.0,-0.0984038022784,0.0961401153519,-0.068443240015,1.0,0.0,0.0,0.0,1.0,0.0,0.0,0.0,1.0,0.0227526855469,-0.102985839844,13.7090917969,0.1,0.0,0.0,0.0,0.1,0.0,0.0,0.0,0.1
1446036132450800660,236,1446036132447591066,robocape,-3.53246380874,12.5009420792,17.2136914209,0.0,10.0,0.0,0.0,0.0,10.0,0.0,0.0,0.0,10.0,-0.324373020772,0.413988391453,-0.0404800485692,1.0,0.0,0.0,0.0,1.0,0.0,0.0,0.0,1.0,1.22026245117,-0.223934326172,8.67476074219,0.1,0.0,0.0,0.0,0.1,0.0,0.0,0.0,0.1
1446036132484074077,237,1446036132480966091,robocape,-4.60480647156,13.427164121,16.779239948,0.0,10.0,0.0,0.0,0.0,10.0,0.0,0.0,0.0,10.0,-0.519849044783,0.518517464238,-0.161254404004,1.0,0.0,0.0,0.0,1.0,0.0,0.0,0.0,1.0,1.80584472656,-0.899329833984,13.4695898438,0.1,0.0,0.0,0.0,0.1,0.0,0.0,0.0,0.1
1446036132518669661,238,1446036132515459060,robocape,-5.67800738111,13.7390094772,16.2582577451,0.0,10.0,0.0,0.0,0.0,10.0,0.0,0.0,0.0,10.0,-0.506666397388,0.201734452574,-0.229697644019,1.0,0.0,0.0,0.0,1.0,0.0,0.0,0.0,1.0,2.28844116211,-1.24780517578,8.19934936523,0.1,0.0,0.0,0.0,0.1,0.0,0.0,0.0,0.1
1446036132551413619,239,1446036132548408031,robocape,-6.70004077494,13.8837218739,15.6261303291,0.0,10.0,0.0,0.0,0.0,10.0,0.0,0.0,0.0,10.0,-0.464987926328,0.123703832634,-0.294279300454,1.0,0.0,0.0,0.0,1.0,0.0,0.0,0.0,1.0,5.54686523438,-1.58191040039,11.9188146973,0.1,0.0,0.0,0.0,0.1,0.0,0.0,0.0,0.1
1446036132583612244,240,1446036132580533981,robocape,-7.52400239074,14.1792544042,14.8830787489,0.0,10.0,0.0,0.0,0.0,10.0,0.0,0.0,0.0,10.0,-0.346743573928,0.214251309697,-0.338887248713,1.0,0.0,0.0,0.0,1.0,0.0,0.0,0.0,1.0,-0.231119384766,-0.775986328125,8.39813598633,0.1,0.0,0.0,0.0,0.1,0.0,0.0,0.0,0.1
1446036132617319661,241,1446036132614212989,robocape,-8.22142904366,14.3382316716,14.1016564337,0.0,10.0,0.0,0.0,0.0,10.0,0.0,0.0,0.0,10.0,-0.273639802006,0.149403337153,-0.367249914322,1.0,0.0,0.0,0.0,1.0,0.0,0.0,0.0,1.0,0.176033935547,-0.934057617188,10.6949597168,0.1,0.0,0.0,0.0,0.1,0.0,0.0,0.0,0.1
1446036132649563411,242,1446036132646289110,robocape,-8.8535853883,14.7776593636,13.1515757912,0.0,10.0,0.0,0.0,0.0,10.0,0.0,0.0,0.0,10.0,-0.216514996623,0.313187744193,-0.427437354958,1.0,0.0,0.0,0.0,1.0,0.0,0.0,0.0,1.0,0.438288574219,-1.00351318359,9.43398193359,0.1,0.0,0.0,0.0,0.1,0.0,0.0,0.0,0.1
1446036132682164744,243,1446036132679141998,robocape,-9.31939167158,14.6618483187,12.354684713,0.0,10.0,0.0,0.0,0.0,10.0,0.0,0.0,0.0,10.0,-0.145808069682,0.0139815957229,-0.398142582967,1.0,0.0,0.0,0.0,1.0,0.0,0.0,0.0,1.0,-0.505349121094,-0.870589599609,11.1416308594,0.1,0.0,0.0,0.0,0.1,0.0,0.0,0.0,0.1
1446036132715617827,244,1446036132712440013,robocape,-9.62179830134,14.6872429119,11.5041031647,0.0,10.0,0.0,0.0,0.0,10.0,0.0,0.0,0.0,10.0,-0.0536626959651,0.0942759025888,-0.41332260118,1.0,0.0,0.0,0.0,1.0,0.0,0.0,0.0,1.0,3.99848510742,-1.58550292969,10.847043457,0.1,0.0,0.0,0.0,0.1,0.0,0.0,0.0,0.1
1446036132748463619,245,1446036132745533943,robocape,-9.78769722261,14.7429510334,10.7241093784,0.0,10.0,0.0,0.0,0.0,10.0,0.0,0.0,0.0,10.0,0.00852211548825,0.105860653331,-0.375372555647,1.0,0.0,0.0,0.0,1.0,0.0,0.0,0.0,1.0,1.96032348633,-0.902922363281,10.1812280273,0.1,0.0,0.0,0.0,0.1,0.0,0.0,0.0,0.1
1446036132783188536,246,1446036132780073881,robocape,-9.91706070725,14.8329629085,9.85094346227,0.0,10.0,0.0,0.0,0.0,10.0,0.0,0.0,0.0,10.0,0.0408795227327,0.132359106177,-0.419314713633,1.0,0.0,0.0,0.0,1.0,0.0,0.0,0.0,1.0,0.821491699219,-0.638272705078,9.72497680664,0.1,0.0,0.0,0.0,0.1,0.0,0.0,0.0,0.1
1446036132815438994,247,1446036132812376022,robocape,-9.92376477203,14.9724112692,8.99196457212,0.0,10.0,0.0,0.0,0.0,10.0,0.0,0.0,0.0,10.0,0.104129598622,0.157259662369,-0.407996279,1.0,0.0,0.0,0.0,1.0,0.0,0.0,0.0,1.0,2.37106933594,-0.681383056641,12.8612548828,0.1,0.0,0.0,0.0,0.1,0.0,0.0,0.0,0.1
1446036132848749536,248,1446036132845726966,robocape,-10.0988686892,15.1669708929,8.29649606266,0.0,10.0,0.0,0.0,0.0,10.0,0.0,0.0,0.0,10.0,-0.00732369299772,0.174969683618,-0.31957933081,1.0,0.0,0.0,0.0,1.0,0.0,0.0,0.0,1.0,0.238304443359,1.29211303711,7.60179199219,0.1,0.0,0.0,0.0,0.1,0.0,0.0,0.0,0.1
1446036132883821036,249,1446036132880739927,robocape,-11.2235925057,14.9928485984,8.71006102974,0.0,10.0,0.0,0.0,0.0,10.0,0.0,0.0,0.0,10.0,-0.664725008084,-0.105993811385,0.204264455609,1.0,0.0,0.0,0.0,1.0,0.0,0.0,0.0,1.0,1.39988891602,1.89685546875,10.7464526367,0.1,0.0,0.0,0.0,0.1,0.0,0.0,0.0,0.1
1446036132915738536,250,1446036132912657976,robocape,-13.9076262622,14.2690751959,9.29126741063,0.0,10.0,0.0,0.0,0.0,10.0,0.0,0.0,0.0,10.0,-1.51493918609,-0.405599434019,0.227567115147,1.0,0.0,0.0,0.0,1.0,0.0,0.0,0.0,1.0,-0.578397216797,0.991538085938,6.49409545898,0.1,0.0,0.0,0.0,0.1,0.0,0.0,0.0,0.1
1446036132948801202,251,1446036132945677995,robocape,-17.7015531861,14.2949931443,9.65846966122,0.0,10.0,0.0,0.0,0.0,10.0,0.0,0.0,0.0,10.0,-2.10243252256,0.00905474770627,0.223705531567,1.0,0.0,0.0,0.0,1.0,0.0,0.0,0.0,1.0,-1.28133544922,-0.0981958007813,11.455378418,0.1,0.0,0.0,0.0,0.1,0.0,0.0,0.0,0.1
1446036132982077411,252,1446036132978986024,robocape,-21.967920919,14.2118921335,9.35201683113,0.0,10.0,0.0,0.0,0.0,10.0,0.0,0.0,0.0,10.0,-2.2943132791,0.0667121853065,-0.111719607729,1.0,0.0,0.0,0.0,1.0,0.0,0.0,0.0,1.0,0.850231933594,-1.50526977539,6.45817016602,0.1,0.0,0.0,0.0,0.1,0.0,0.0,0.0,0.1
1446036133019669327,253,1446036133015429019,robocape,-25.9901094093,15.5246501941,7.93352854779,0.0,10.0,0.0,0.0,0.0,10.0,0.0,0.0,0.0,10.0,-2.05915615485,0.995489615472,-0.316383537501,1.0,0.0,0.0,0.0,1.0,0.0,0.0,0.0,1.0,19.5756921387,-7.3539074707,19.6194012451,0.1,0.0,0.0,0.0,0.1,0.0,0.0,0.0,0.1
1446036133048941077,254,1446036133045759916,robocape,-28.2650160523,16.0028060315,4.78406411465,0.0,10.0,0.0,0.0,0.0,10.0,0.0,0.0,0.0,10.0,-0.825979412088,0.991361715782,-1.27272468495,1.0,0.0,0.0,0.0,1.0,0.0,0.0,0.0,1.0,-1.00351318359,-10.8578210449,9.09269165039,0.1,0.0,0.0,0.0,0.1,0.0,0.0,0.0,0.1
1446036133082057661,255,1446036133079005956,robocape,-26.4956914629,16.3042645457,0.786149217677,0.0,10.0,0.0,0.0,0.0,10.0,0.0,0.0,0.0,10.0,1.55834871186,1.03437176739,-1.72426364777,1.0,0.0,0.0,0.0,1.0,0.0,0.0,0.0,1.0,0.929267578125,-3.23207885742,19.6194012451,0.1,0.0,0.0,0.0,0.1,0.0,0.0,0.0,0.1
1446036133115856286,256,1446036133112659931,robocape,-22.7624107477,15.7851190747,-1.61111386122,0.0,10.0,0.0,0.0,0.0,10.0,0.0,0.0,0.0,10.0,2.38086601453,0.198405501211,-1.21892883093,1.0,0.0,0.0,0.0,1.0,0.0,0.0,0.0,1.0,-2.39621704102,-0.911304931641,4.85111206055,0.1,0.0,0.0,0.0,0.1,0.0,0.0,0.0,0.1
1446036133148883369,257,1446036133145884037,robocape,-19.2180904785,15.7068338812,-3.03834430027,0.0,10.0,0.0,0.0,0.0,10.0,0.0,0.0,0.0,10.0,2.09976936147,0.184024431324,-0.687228719295,1.0,0.0,0.0,0.0,1.0,0.0,0.0,0.0,1.0,-1.1915222168,0.245489501953,8.85797973633,0.1,0.0,0.0,0.0,0.1,0.0,0.0,0.0,0.1
1446036133183300661,258,1446036133180128097,robocape,-16.1408453269,15.5141192798,-4.02806699782,0.0,10.0,0.0,0.0,0.0,10.0,0.0,0.0,0.0,10.0,1.77153475712,0.034088461953,-0.50466902657,1.0,0.0,0.0,0.0,1.0,0.0,0.0,0.0,1.0,4.84512451172,-0.203576660156,9.85670288086,0.1,0.0,0.0,0.0,0.1,0.0,0.0,0.0,0.1
1446036133215602786,259,1446036133212543010,robocape,-13.5600235546,15.3630823203,-4.9008313903,0.0,10.0,0.0,0.0,0.0,10.0,0.0,0.0,0.0,10.0,1.48085072414,0.0268979270098,-0.444614743989,1.0,0.0,0.0,0.0,1.0,0.0,0.0,0.0,1.0,0.142503662109,0.352067871094,8.63644042969,0.1,0.0,0.0,0.0,0.1,0.0,0.0,0.0,0.1
1446036133248823661,260,1446036133245815992,robocape,-11.3622198983,15.4384902879,-5.71127345813,0.0,10.0,0.0,0.0,0.0,10.0,0.0,0.0,0.0,10.0,1.26353677919,0.127032783997,-0.391085206078,1.0,0.0,0.0,0.0,1.0,0.0,0.0,0.0,1.0,0.05748046875,0.0790356445313,12.1595141602,0.1,0.0,0.0,0.0,0.1,0.0,0.0,0.0,0.1
1446036133281871244,261,1446036133278923988,robocape,-9.3684598464,15.6807975439,-6.51983410446,0.0,10.0,0.0,0.0,0.0,10.0,0.0,0.0,0.0,10.0,1.15421401644,0.204930245882,-0.380432561718,1.0,0.0,0.0,0.0,1.0,0.0,0.0,0.0,1.0,2.97820678711,0.0898132324219,9.32860107422,0.1,0.0,0.0,0.0,0.1,0.0,0.0,0.0,0.1
1446036133315487578,262,1446036133312290906,robocape,-7.34368283956,15.6226561779,-7.30682318497,0.0,10.0,0.0,0.0,0.0,10.0,0.0,0.0,0.0,10.0,1.16899456049,0.034088461953,-0.399474163512,1.0,0.0,0.0,0.0,1.0,0.0,0.0,0.0,1.0,-0.920885009766,-0.481398925781,9.0471862793,0.1,0.0,0.0,0.0,0.1,0.0,0.0,0.0,0.1
1446036133348887703,263,1446036133345807075,robocape,-5.1968346357,15.5028395142,-8.07026003484,0.0,10.0,0.0,0.0,0.0,10.0,0.0,0.0,0.0,10.0,1.22944831724,-0.0119842249054,-0.393348893005,1.0,0.0,0.0,0.0,1.0,0.0,0.0,0.0,1.0,-3.43565551758,-0.676593017578,11.4386132813,0.1,0.0,0.0,0.0,0.1,0.0,0.0,0.0,0.1
1446036133381814411,264,1446036133378834009,robocape,-2.85604262555,15.520635824,-8.82347282896,0.0,10.0,0.0,0.0,0.0,10.0,0.0,0.0,0.0,10.0,1.33011580644,0.0484695318394,-0.384826777516,1.0,0.0,0.0,0.0,1.0,0.0,0.0,0.0,1.0,-6.8629284668,-0.449066162109,8.09516601563,0.1,0.0,0.0,0.0,0.1,0.0,0.0,0.0,0.1
1446036133415818328,265,1446036133412494897,robocape,-0.414877015566,15.6819936789,-9.42253807765,0.0,10.0,0.0,0.0,0.0,10.0,0.0,0.0,0.0,10.0,1.36380479423,0.110254869129,-0.309326160613,1.0,0.0,0.0,0.0,1.0,0.0,0.0,0.0,1.0,-4.36252807617,-0.21076171875,11.8313964844,0.1,0.0,0.0,0.0,0.1,0.0,0.0,0.0,0.1
1446036133448710036,266,1446036133445627927,robocape,2.06927828934,15.8275219288,-9.81869352869,0.0,10.0,0.0,0.0,0.0,10.0,0.0,0.0,0.0,10.0,1.36167426536,0.0936101123163,-0.213186045261,1.0,0.0,0.0,0.0,1.0,0.0,0.0,0.0,1.0,-4.72417602539,-0.177231445313,8.67116821289,0.1,0.0,0.0,0.0,0.1,0.0,0.0,0.0,0.1
1446036133481857161,267,1446036133478821992,robocape,4.64167011335,15.8678898232,-10.0283899506,0.0,10.0,0.0,0.0,0.0,10.0,0.0,0.0,0.0,10.0,1.38577587322,0.0374174133156,-0.121440145708,1.0,0.0,0.0,0.0,1.0,0.0,0.0,0.0,1.0,-2.11360473633,0.282612304688,12.1750817871,0.1,0.0,0.0,0.0,0.1,0.0,0.0,0.0,0.1
1446036133515479536,268,1446036133512279033,robocape,7.16526936736,15.6738706822,-10.0173248392,0.0,10.0,0.0,0.0,0.0,10.0,0.0,0.0,0.0,10.0,1.33251265142,-0.0780306199393,0.000399474163512,1.0,0.0,0.0,0.0,1.0,0.0,0.0,0.0,1.0,-1.88368286133,0.135318603516,6.37913452148,0.1,0.0,0.0,0.0,0.1,0.0,0.0,0.0,0.1
1446036133551363036,269,1446036133547838926,robocape,9.54934060037,15.7306438502,-9.89880236071,0.0,10.0,0.0,0.0,0.0,10.0,0.0,0.0,0.0,10.0,1.25141939623,0.0656469208705,0.0350205683345,1.0,0.0,0.0,0.0,1.0,0.0,0.0,0.0,1.0,-0.781973876953,0.78556640625,10.8003405762,0.1,0.0,0.0,0.0,0.1,0.0,0.0,0.0,0.1
1446036133585325828,270,1446036133581757068,robocape,11.7717128876,15.8277044027,-9.55387169242,0.0,10.0,0.0,0.0,0.0,10.0,0.0,0.0,0.0,10.0,1.13983294655,0.111320133565,0.140348589447,1.0,0.0,0.0,0.0,1.0,0.0,0.0,0.0,1.0,5.03073852539,1.27654541016,10.2602636719,0.1,0.0,0.0,0.0,0.1,0.0,0.0,0.0,0.1
1446036133615339369,271,1446036133612335920,robocape,13.7271902793,15.7836340448,-9.11647586778,0.0,10.0,0.0,0.0,0.0,10.0,0.0,0.0,0.0,10.0,0.989763819128,0.0543284862376,0.199737081756,1.0,0.0,0.0,0.0,1.0,0.0,0.0,0.0,1.0,-1.01908081055,0.271834716797,9.21124511719,0.1,0.0,0.0,0.0,0.1,0.0,0.0,0.0,0.1
1446036133649312078,272,1446036133646141052,robocape,15.5215371243,15.7547067396,-8.41180265329,0.0,10.0,0.0,0.0,0.0,10.0,0.0,0.0,0.0,10.0,0.870321044238,0.102798018077,0.328101446298,1.0,0.0,0.0,0.0,1.0,0.0,0.0,0.0,1.0,2.33035400391,1.25499023438,12.814552002,0.1,0.0,0.0,0.0,0.1,0.0,0.0,0.0,0.1
1446036133685246036,273,1446036133681647062,robocape,16.9164147882,15.6404525905,-7.68773830224,0.0,10.0,0.0,0.0,0.0,10.0,0.0,0.0,0.0,10.0,0.658200263413,0.0695085044511,0.350471999454,1.0,0.0,0.0,0.0,1.0,0.0,0.0,0.0,1.0,-0.937650146484,0.650247802734,8.63404541016,0.1,0.0,0.0,0.0,0.1,0.0,0.0,0.0,0.1
1446036133715279536,274,1446036133712258100,robocape,18.0831879229,15.6695197084,-6.74901021913,0.0,10.0,0.0,0.0,0.0,10.0,0.0,0.0,0.0,10.0,0.509595874587,0.181361270234,0.431698412702,1.0,0.0,0.0,0.0,1.0,0.0,0.0,0.0,1.0,-0.59396484375,1.46814697266,12.068503418,0.1,0.0,0.0,0.0,0.1,0.0,0.0,0.0,0.1
1446036133748669953,275,1446036133745595932,robocape,18.8446007741,15.3575746003,-5.80291583278,0.0,10.0,0.0,0.0,0.0,10.0,0.0,0.0,0.0,10.0,0.289751926601,0.0138484376684,0.494549014428,1.0,0.0,0.0,0.0,1.0,0.0,0.0,0.0,1.0,-0.639470214844,1.29570556641,8.12270874023,0.1,0.0,0.0,0.0,0.1,0.0,0.0,0.0,0.1
1446036133784877703,276,1446036133781598091,robocape,18.9218180136,15.48361428,-4.28375093244,0.0,10.0,0.0,0.0,0.0,10.0,0.0,0.0,0.0,10.0,-0.155395449606,0.322775124118,0.698547153928,1.0,0.0,0.0,0.0,1.0,0.0,0.0,0.0,1.0,1.17834960938,2.54111572266,13.105546875,0.1,0.0,0.0,0.0,0.1,0.0,0.0,0.0,0.1
1446036133816569661,277,1446036133813385963,robocape,18.1526773528,15.3167374926,-2.76694642322,0.0,10.0,0.0,0.0,0.0,10.0,0.0,0.0,0.0,10.0,-0.613192840991,0.160988087895,0.753674588492,1.0,0.0,0.0,0.0,1.0,0.0,0.0,0.0,1.0,-1.74596923828,1.89685546875,9.83514770508,0.1,0.0,0.0,0.0,0.1,0.0,0.0,0.0,0.1
1446036133848592369,278,1446036133845612049,robocape,16.6546656048,15.2552212013,-1.13636762735,0.0,10.0,0.0,0.0,0.0,10.0,0.0,0.0,0.0,10.0,-1.01599595587,0.209723935844,0.797084114261,1.0,0.0,0.0,0.0,1.0,0.0,0.0,0.0,1.0,3.22010375977,1.73040161133,11.1703710938,0.1,0.0,0.0,0.0,0.1,0.0,0.0,0.0,0.1
1446036133882319661,279,1446036133879239082,robocape,14.5011418055,14.8932978003,0.174713454366,0.0,10.0,0.0,0.0,0.0,10.0,0.0,0.0,0.0,10.0,-1.31773210737,-0.0165115987585,0.69122346093,1.0,0.0,0.0,0.0,1.0,0.0,0.0,0.0,1.0,-4.08590332031,0.579594726562,8.36939575195,0.1,0.0,0.0,0.0,0.1,0.0,0.0,0.0,0.1
1446036133915588328,280,1446036133912200927,robocape,12.0297507551,14.1563736424,1.06159168428,0.0,10.0,0.0,0.0,0.0,10.0,0.0,0.0,0.0,10.0,-1.42172854794,-0.28589034302,0.526906421672,1.0,0.0,0.0,0.0,1.0,0.0,0.0,0.0,1.0,-5.57201293945,0.746048583984,11.915222168,0.1,0.0,0.0,0.0,0.1,0.0,0.0,0.0,0.1
1446036133949805536,281,1446036133946788072,robocape,9.7261923057,13.6601662631,1.63540967834,0.0,10.0,0.0,0.0,0.0,10.0,0.0,0.0,0.0,10.0,-1.28271153904,-0.206261826427,0.335425139295,1.0,0.0,0.0,0.0,1.0,0.0,0.0,0.0,1.0,-2.16988769531,-0.822689208984,8.12630126953,0.1,0.0,0.0,0.0,0.1,0.0,0.0,0.0,0.1
1446036133982002120,282,1446036133978920936,robocape,7.65706637592,13.4907797616,2.06305134552,0.0,10.0,0.0,0.0,0.0,10.0,0.0,0.0,0.0,10.0,-1.13583820492,-0.0543284862376,0.228632379583,1.0,0.0,0.0,0.0,1.0,0.0,0.0,0.0,1.0,-1.65376098633,-0.269439697266,7.67484008789,0.1,0.0,0.0,0.0,0.1,0.0,0.0,0.0,0.1
1446036134015723578,283,1446036134012325048,robocape,5.81623617323,13.8258166549,2.39448835888,0.0,10.0,0.0,0.0,0.0,10.0,0.0,0.0,0.0,10.0,-1.00201436014,0.201468136464,0.147672282445,1.0,0.0,0.0,0.0,1.0,0.0,0.0,0.0,1.0,-2.39022949219,-0.221539306641,12.2852526855,0.1,0.0,0.0,0.0,0.1,0.0,0.0,0.0,0.1
1446036134049450411,284,1446036134046062946,robocape,4.08910489952,13.937396453,2.64469892541,0.0,10.0,0.0,0.0,0.0,10.0,0.0,0.0,0.0,10.0,-0.933704278182,0.0772316716123,0.122771726253,1.0,0.0,0.0,0.0,1.0,0.0,0.0,0.0,1.0,-2.21778808594,-0.300574951172,8.64961303711,0.1,0.0,0.0,0.0,0.1,0.0,0.0,0.0,0.1
1446036134082125370,285,1446036134079040050,robocape,2.40230433561,14.1921584149,2.80737449947,0.0,10.0,0.0,0.0,0.0,10.0,0.0,0.0,0.0,10.0,-0.902412135373,0.148870704935,0.0766990393943,1.0,0.0,0.0,0.0,1.0,0.0,0.0,0.0,1.0,-0.0215551757813,-0.550854492188,10.5548510742,0.1,0.0,0.0,0.0,0.1,0.0,0.0,0.0,0.1
1446036134115289828,286,1446036134112268924,robocape,0.643821382824,14.3691199419,3.07666837278,0.0,10.0,0.0,0.0,0.0,10.0,0.0,0.0,0.0,10.0,-0.955409041066,0.108523814421,0.136487005867,1.0,0.0,0.0,0.0,1.0,0.0,0.0,0.0,1.0,2.81414794922,0.627495117188,9.06874145508,0.1,0.0,0.0,0.0,0.1,0.0,0.0,0.0,0.1
1446036134150432995,287,1446036134147358894,robocape,-1.6421960447,14.6113531433,3.55327829562,0.0,10.0,0.0,0.0,0.0,10.0,0.0,0.0,0.0,10.0,-1.26180572448,0.139949115284,0.246342400832,1.0,0.0,0.0,0.0,1.0,0.0,0.0,0.0,1.0,3.11592041016,0.811911621094,10.9428442383,0.1,0.0,0.0,0.0,0.1,0.0,0.0,0.0,0.1
1446036134182035245,288,1446036134179049968,robocape,-4.6268684199,14.4543914222,4.29488109049,0.0,10.0,0.0,0.0,0.0,10.0,0.0,0.0,0.0,10.0,-1.66660621017,-0.0862864193186,0.376038345919,1.0,0.0,0.0,0.0,1.0,0.0,0.0,0.0,1.0,0.993933105469,1.43461669922,6.98986450195,0.1,0.0,0.0,0.0,0.1,0.0,0.0,0.0,0.1
1446036134215369495,289,1446036134212291002,robocape,-8.43722094287,14.2505610753,5.01571921204,0.0,10.0,0.0,0.0,0.0,10.0,0.0,0.0,0.0,10.0,-2.1049625256,-0.123970148743,0.360725169651,1.0,0.0,0.0,0.0,1.0,0.0,0.0,0.0,1.0,3.12789550781,0.686173095703,10.0063916016,0.1,0.0,0.0,0.0,0.1,0.0,0.0,0.0,0.1
1446036134253473203,290,1446036134250238895,robocape,-12.8063953562,13.9445436475,5.43866803168,0.0,10.0,0.0,0.0,0.0,10.0,0.0,0.0,0.0,10.0,-2.37580600846,-0.164183881203,0.197340236775,1.0,0.0,0.0,0.0,1.0,0.0,0.0,0.0,1.0,4.4487487793,-0.470621337891,8.4651965332,0.1,0.0,0.0,0.0,0.1,0.0,0.0,0.0,0.1
1446036134281873203,291,1446036134278861999,robocape,-17.3718272453,13.593601536,5.28851195176,0.0,10.0,0.0,0.0,0.0,10.0,0.0,0.0,0.0,10.0,-2.43133291719,-0.1153148752,-0.0997353828235,1.0,0.0,0.0,0.0,1.0,0.0,0.0,0.0,1.0,-0.419128417969,-1.55676269531,9.20885009766,0.1,0.0,0.0,0.0,0.1,0.0,0.0,0.0,0.1
1446036134315524328,292,1446036134312333106,robocape,-21.3925652997,13.7455159901,4.41091941961,0.0,10.0,0.0,0.0,0.0,10.0,0.0,0.0,0.0,10.0,-2.08232565633,0.274705066442,-0.369380443194,1.0,0.0,0.0,0.0,1.0,0.0,0.0,0.0,1.0,4.28468994141,-2.17827026367,11.4661560059,0.1,0.0,0.0,0.0,0.1,0.0,0.0,0.0,0.1
1446036134349023828,293,1446036134345746994,robocape,-24.7739683182,14.2209272192,2.82580666678,0.0,10.0,0.0,0.0,0.0,10.0,0.0,0.0,0.0,10.0,-1.67273148068,0.602007564412,-0.61998390177,1.0,0.0,0.0,0.0,1.0,0.0,0.0,0.0,1.0,4.34696044922,-3.39254516602,11.5703393555,0.1,0.0,0.0,0.0,0.1,0.0,0.0,0.0,0.1
1446036134381825411,294,1446036134378850936,robocape,-27.0670159413,14.2712080749,0.986562757118,0.0,10.0,0.0,0.0,0.0,10.0,0.0,0.0,0.0,10.0,-1.05301389502,0.479102680105,-0.813862029128,1.0,0.0,0.0,0.0,1.0,0.0,0.0,0.0,1.0,-1.22145996094,-3.21291870117,12.9714257813,0.1,0.0,0.0,0.0,0.1,0.0,0.0,0.0,0.1
1446036134418919245,295,1446036134415535926,robocape,-28.4819862099,14.2607151562,-1.02679656062,0.0,10.0,0.0,0.0,0.0,10.0,0.0,0.0,0.0,10.0,-0.555402245336,0.510261664859,-0.899615816229,1.0,0.0,0.0,0.0,1.0,0.0,0.0,0.0,1.0,1.19631225586,-2.96263916016,9.77407470703,0.1,0.0,0.0,0.0,0.1,0.0,0.0,0.0,0.1
1446036134448870578,296,1446036134445643901,robocape,-28.9827492103,14.5254709791,-3.38798481388,0.0,10.0,0.0,0.0,0.0,10.0,0.0,0.0,0.0,10.0,-0.00972053797879,0.72757560981,-0.982173810021,1.0,0.0,0.0,0.0,1.0,0.0,0.0,0.0,1.0,1.87170776367,-3.11951293945,14.2336010742,0.1,0.0,0.0,0.0,0.1,0.0,0.0,0.0,0.1
1446036134481885828,297,1446036134478856086,robocape,-28.6907631491,14.4978231421,-5.64438129771,0.0,10.0,0.0,0.0,0.0,10.0,0.0,0.0,0.0,10.0,0.419314713633,0.556334351718,-1.01066963369,1.0,0.0,0.0,0.0,1.0,0.0,0.0,0.0,1.0,-0.140108642578,-2.20341796875,9.48068481445,0.1,0.0,0.0,0.0,0.1,0.0,0.0,0.0,0.1
1446036134515651036,298,1446036134512229919,robocape,-27.3310250203,14.5337743638,-7.96395248583,0.0,10.0,0.0,0.0,0.0,10.0,0.0,0.0,0.0,10.0,1.01479753337,0.570049631331,-1.02971123548,1.0,0.0,0.0,0.0,1.0,0.0,0.0,0.0,1.0,-0.135318603516,-2.12797485352,12.9965734863,0.1,0.0,0.0,0.0,0.1,0.0,0.0,0.0,0.1
1446036134551996828,299,1446036134548640966,robocape,-25.4881290206,14.7500628854,-10.1807450365,0.0,10.0,0.0,0.0,0.0,10.0,0.0,0.0,0.0,10.0,1.26100677615,0.599344403322,-0.955142724957,1.0,0.0,0.0,0.0,1.0,0.0,0.0,0.0,1.0,2.58662109375,-2.19024536133,12.0816760254,0.1,0.0,0.0,0.0,0.1,0.0,0.0,0.0,0.1
1446036134582220661,300,1446036134579026937,robocape,-23.074789635,14.6163718578,-12.0823907217,0.0,10.0,0.0,0.0,0.0,10.0,0.0,0.0,0.0,10.0,1.52892078181,0.322109333845,-0.902145819264,1.0,0.0,0.0,0.0,1.0,0.0,0.0,0.0,1.0,0.615520019531,-1.38791381836,10.4039648437,0.1,0.0,0.0,0.0,0.1,0.0,0.0,0.0,0.1
1446036134615349995,301,1446036134612273931,robocape,-20.4561334585,14.7784312471,-13.8482433279,0.0,10.0,0.0,0.0,0.0,10.0,0.0,0.0,0.0,10.0,1.61147877561,0.405466275965,-0.796418323988,1.0,0.0,0.0,0.0,1.0,0.0,0.0,0.0,1.0,-0.201181640625,-1.55676269531,9.30704589844,0.1,0.0,0.0,0.0,0.1,0.0,0.0,0.0,0.1
1446036134654334453,302,1446036134651124000,robocape,-17.560742057,14.4984905688,-15.2006283731,0.0,10.0,0.0,0.0,0.0,10.0,0.0,0.0,0.0,10.0,1.70295835905,0.0761664071763,-0.689758722331,1.0,0.0,0.0,0.0,1.0,0.0,0.0,0.0,1.0,-2.18904785156,-0.601149902344,8.74661132813,0.1,0.0,0.0,0.0,0.1,0.0,0.0,0.0,0.1
1446036134685128870,303,1446036134681807994,robocape,-14.7136155151,14.6905360432,-16.3727106495,0.0,10.0,0.0,0.0,0.0,10.0,0.0,0.0,0.0,10.0,1.64463513118,0.263386631809,-0.544083810703,1.0,0.0,0.0,0.0,1.0,0.0,0.0,0.0,1.0,5.12055175781,-0.441881103516,8.05924072266,0.1,0.0,0.0,0.0,0.1,0.0,0.0,0.0,0.1
1446036134718270245,304,1446036134714955091,robocape,-11.7728964999,14.2051977474,-17.2906827296,0.0,10.0,0.0,0.0,0.0,10.0,0.0,0.0,0.0,10.0,1.66061409772,-0.141680169992,-0.510661139023,1.0,0.0,0.0,0.0,1.0,0.0,0.0,0.0,1.0,-2.835703125,-0.417930908203,5.82588500977,0.1,0.0,0.0,0.0,0.1,0.0,0.0,0.0,0.1
1446036134748737620,305,1446036134745543956,robocape,-9.22926399383,14.3200240455,-17.7691490518,0.0,10.0,0.0,0.0,0.0,10.0,0.0,0.0,0.0,10.0,1.39030324708,0.111586449674,-0.236089230636,1.0,0.0,0.0,0.0,1.0,0.0,0.0,0.0,1.0,-2.28125610352,0.744851074219,14.2683288574,0.1,0.0,0.0,0.0,0.1,0.0,0.0,0.0,0.1
1446036134782067203,306,1446036134778995990,robocape,-7.33320888364,13.8827198637,-17.867695659,0.0,10.0,0.0,0.0,0.0,10.0,0.0,0.0,0.0,10.0,1.00334594069,-0.213052887206,-0.0894822126267,1.0,0.0,0.0,0.0,1.0,0.0,0.0,0.0,1.0,3.11951293945,1.20110229492,7.21140380859,0.1,0.0,0.0,0.0,0.1,0.0,0.0,0.0,0.1
1446036134815451620,307,1446036134812124013,robocape,-6.2956386795,14.116061987,-17.6655854142,0.0,10.0,0.0,0.0,0.0,10.0,0.0,0.0,0.0,10.0,0.51412324844,0.122239094035,0.10199906975,1.0,0.0,0.0,0.0,1.0,0.0,0.0,0.0,1.0,1.78428955078,1.47293701172,10.847043457,0.1,0.0,0.0,0.0,0.1,0.0,0.0,0.0,0.1
1446036134848521328,308,1446036134845535993,robocape,-6.09932205466,14.087398147,-17.3465884655,0.0,10.0,0.0,0.0,0.0,10.0,0.0,0.0,0.0,10.0,0.0588558600908,-0.0201068662301,0.145808069682,1.0,0.0,0.0,0.0,1.0,0.0,0.0,0.0,1.0,1.00710571289,1.55556518555,9.43517944336,0.1,0.0,0.0,0.0,0.1,0.0,0.0,0.0,0.1
1446036134882040495,309,1446036134879070997,robocape,-6.75211778472,14.4194700125,-16.9932972378,0.0,10.0,0.0,0.0,0.0,10.0,0.0,0.0,0.0,10.0,-0.392549944678,0.169776519493,0.179497057471,1.0,0.0,0.0,0.0,1.0,0.0,0.0,0.0,1.0,2.23934326172,1.01548828125,11.7535583496,0.1,0.0,0.0,0.0,0.1,0.0,0.0,0.0,0.1
1446036134915108370,310,1446036134912153959,robocape,-8.09284183866,14.3540870548,-16.6230719115,0.0,10.0,0.0,0.0,0.0,10.0,0.0,0.0,0.0,10.0,-0.756470907637,-0.0422111032778,0.165249145639,1.0,0.0,0.0,0.0,1.0,0.0,0.0,0.0,1.0,-1.12206665039,0.966390380859,8.91905273438,0.1,0.0,0.0,0.0,0.1,0.0,0.0,0.0,0.1
1446036134948500953,311,1446036134945549964,robocape,-9.91828430637,14.3022072924,-16.3455579154,0.0,10.0,0.0,0.0,0.0,10.0,0.0,0.0,0.0,10.0,-1.0021475182,-0.0286289817184,0.114649084928,1.0,0.0,0.0,0.0,1.0,0.0,0.0,0.0,1.0,0.397573242188,0.209564208984,10.688972168,0.1,0.0,0.0,0.0,0.1,0.0,0.0,0.0,0.1
1446036134982241537,312,1446036134979171037,robocape,-12.0923012732,13.7881494465,-16.0130525731,0.0,10.0,0.0,0.0,0.0,10.0,0.0,0.0,0.0,10.0,-1.19389511668,-0.276702437259,0.0949416928613,1.0,0.0,0.0,0.0,1.0,0.0,0.0,0.0,1.0,2.99976196289,0.396375732422,8.7753515625,0.1,0.0,0.0,0.0,0.1,0.0,0.0,0.0,0.1
1446036135015481037,313,1446036135012418031,robocape,-14.6389149707,13.7041891565,-15.8441289402,0.0,10.0,0.0,0.0,0.0,10.0,0.0,0.0,0.0,10.0,-1.38005007688,-0.031957933081,0.0446079482588,1.0,0.0,0.0,0.0,1.0,0.0,0.0,0.0,1.0,-0.0874182128906,-0.117355957031,10.6578369141,0.1,0.0,0.0,0.0,0.1,0.0,0.0,0.0,0.1
1446036135049353245,314,1446036135046113014,robocape,-17.4797086823,13.5455554407,-15.7102444452,0.0,10.0,0.0,0.0,0.0,10.0,0.0,0.0,0.0,10.0,-1.54236974532,-0.0607200728538,0.00825579937925,1.0,0.0,0.0,0.0,1.0,0.0,0.0,0.0,1.0,0.0347277832031,0.0179626464844,9.26633056641,0.1,0.0,0.0,0.0,0.1,0.0,0.0,0.0,0.1
1446036135082796287,315,1446036135079699039,robocape,-20.6867004407,13.7878799957,-15.8364266138,0.0,10.0,0.0,0.0,0.0,10.0,0.0,0.0,0.0,10.0,-1.72772575719,0.195875498175,-0.0655137628159,1.0,0.0,0.0,0.0,1.0,0.0,0.0,0.0,1.0,1.34360595703,-0.760418701172,11.0015222168,0.1,0.0,0.0,0.0,0.1,0.0,0.0,0.0,0.1
1446036135115775245,316,1446036135112658023,robocape,-24.0322562843,13.8768907626,-16.0973425853,0.0,10.0,0.0,0.0,0.0,10.0,0.0,0.0,0.0,10.0,-1.80815322211,0.160988087895,-0.159123875132,1.0,0.0,0.0,0.0,1.0,0.0,0.0,0.0,1.0,2.1040246582,-0.379610595703,8.34185302734,0.1,0.0,0.0,0.0,0.1,0.0,0.0,0.0,0.1
1446036135150027995,317,1446036135146917104,robocape,-27.3181329418,13.7469318928,-16.599275232,0.0,10.0,0.0,0.0,0.0,10.0,0.0,0.0,0.0,10.0,-1.7739316021,0.128364364542,-0.321709859682,1.0,0.0,0.0,0.0,1.0,0.0,0.0,0.0,1.0,-0.710123291016,-1.04303100586,7.93110717773,0.1,0.0,0.0,0.0,0.1,0.0,0.0,0.0,0.1
1446036135183468203,318,1446036135180341005,robocape,-30.4139777993,13.3301987149,-17.0984131248,0.0,10.0,0.0,0.0,0.0,10.0,0.0,0.0,0.0,10.0,-1.69816466909,0.0165115987585,-0.394946789659,1.0,0.0,0.0,0.0,1.0,0.0,0.0,0.0,1.0,5.11576171875,-1.23343505859,10.4339025879,0.1,0.0,0.0,0.0,0.1,0.0,0.0,0.0,0.1
1446036135215553287,319,1446036135212372064,robocape,-33.2474150993,13.3266799731,-18.0935631524,0.0,10.0,0.0,0.0,0.0,10.0,0.0,0.0,0.0,10.0,-1.53637763287,0.366983598213,-0.510261664859,1.0,0.0,0.0,0.0,1.0,0.0,0.0,0.0,1.0,2.88839355469,-1.62023071289,10.535690918,0.1,0.0,0.0,0.0,0.1,0.0,0.0,0.0,0.1
1446036135248418703,320,1446036135245476007,robocape,-35.4586029674,12.9827761099,-19.4397663729,0.0,10.0,0.0,0.0,0.0,10.0,0.0,0.0,0.0,10.0,-1.17538614711,0.33968619704,-0.749679846857,1.0,0.0,0.0,0.0,1.0,0.0,0.0,0.0,1.0,9.93573852539,-7.42216552734,13.2851733398,0.1,0.0,0.0,0.0,0.1,0.0,0.0,0.0,0.1
1446036135281944787,321,1446036135278974056,robocape,-35.4648647274,12.5965996731,-21.7864373392,0.0,10.0,0.0,0.0,0.0,10.0,0.0,0.0,0.0,10.0,0.159922823459,0.595882293905,-1.14981980064,1.0,0.0,0.0,0.0,1.0,0.0,0.0,0.0,1.0,0.234711914063,-5.06666381836,10.5081481934,0.1,0.0,0.0,0.0,0.1,0.0,0.0,0.0,0.1
1446036135315566120,322,1446036135312339067,robocape,-34.3953382223,12.7790544505,-24.0103405374,0.0,10.0,0.0,0.0,0.0,10.0,0.0,0.0,0.0,10.0,0.748081950203,0.772716190286,-0.917725311641,1.0,0.0,0.0,0.0,1.0,0.0,0.0,0.0,1.0,4.02483032227,-3.71108276367,14.0036791992,0.1,0.0,0.0,0.0,0.1,0.0,0.0,0.0,0.1
1446036135348360454,323,1446036135345437049,robocape,-33.1391585526,12.3619873324,-25.6284834655,0.0,10.0,0.0,0.0,0.0,10.0,0.0,0.0,0.0,10.0,0.795219901498,0.309725634776,-0.842091536683,1.0,0.0,0.0,0.0,1.0,0.0,0.0,0.0,1.0,3.24046142578,-1.16397949219,8.75259887695,0.1,0.0,0.0,0.0,0.1,0.0,0.0,0.0,0.1
1446036135385945912,324,1446036135381941080,robocape,-31.6381956181,12.183704008,-27.4600033656,0.0,10.0,0.0,0.0,0.0,10.0,0.0,0.0,0.0,10.0,0.941826919507,0.457531075276,-0.880707372489,1.0,0.0,0.0,0.0,1.0,0.0,0.0,0.0,1.0,2.28724365234,-1.72680908203,12.4780517578,0.1,0.0,0.0,0.0,0.1,0.0,0.0,0.0,0.1
1446036135415276829,325,1446036135412146091,robocape,-29.6476346373,11.8102147904,-29.2210833169,0.0,10.0,0.0,0.0,0.0,10.0,0.0,0.0,0.0,10.0,1.20095249357,0.316916169719,-0.908004773663,1.0,0.0,0.0,0.0,1.0,0.0,0.0,0.0,1.0,7.75148071289,-1.66573608398,8.91186767578,0.1,0.0,0.0,0.0,0.1,0.0,0.0,0.0,0.1
1446036135448747079,326,1446036135445647001,robocape,-27.0922710533,11.0484129468,-30.7937792605,0.0,10.0,0.0,0.0,0.0,10.0,0.0,0.0,0.0,10.0,1.48524493994,0.0458063707494,-0.919056892186,1.0,0.0,0.0,0.0,1.0,0.0,0.0,0.0,1.0,4.36372558594,-2.02139648438,9.75132202148,0.1,0.0,0.0,0.0,0.1,0.0,0.0,0.0,0.1
1446036135485410204,327,1446036135482362985,robocape,-24.1317788545,10.9491822931,-32.4593091534,0.0,10.0,0.0,0.0,0.0,10.0,0.0,0.0,0.0,10.0,1.69869730131,0.339952513149,-0.820919406017,1.0,0.0,0.0,0.0,1.0,0.0,0.0,0.0,1.0,2.51237548828,-0.932860107422,8.39813598633,0.1,0.0,0.0,0.0,0.1,0.0,0.0,0.0,0.1
1446036135519536287,328,1446036135516391992,robocape,-20.8880550816,11.7886896804,-34.2713145672,0.0,10.0,0.0,0.0,0.0,10.0,0.0,0.0,0.0,10.0,1.86035117947,0.791092001808,-0.738494570279,1.0,0.0,0.0,0.0,1.0,0.0,0.0,0.0,1.0,6.86652099609,-1.57233032227,14.1138500977,0.1,0.0,0.0,0.0,0.1,0.0,0.0,0.0,0.1
1446036135551550995,329,1446036135548341035,robocape,-17.3029481507,11.395435124,-35.511724907,0.0,10.0,0.0,0.0,0.0,10.0,0.0,0.0,0.0,10.0,1.99657186923,0.0295610880999,-0.698946628091,1.0,0.0,0.0,0.0,1.0,0.0,0.0,0.0,1.0,-4.41402099609,-0.560434570312,5.58398803711,0.1,0.0,0.0,0.0,0.1,0.0,0.0,0.0,0.1
1446036135582265245,330,1446036135579046964,robocape,-14.0709865503,11.237201761,-36.1287459812,0.0,10.0,0.0,0.0,0.0,10.0,0.0,0.0,0.0,10.0,1.7472999912,0.0203731823391,-0.357795692452,1.0,0.0,0.0,0.0,1.0,0.0,0.0,0.0,1.0,-2.44052490234,0.456251220703,12.72234375,0.1,0.0,0.0,0.0,0.1,0.0,0.0,0.0,0.1
1446036135615614037,331,1446036135612219095,robocape,-11.4541085624,11.0007164642,-36.3653450526,0.0,10.0,0.0,0.0,0.0,10.0,0.0,0.0,0.0,10.0,1.38684113766,-0.0788295682663,-0.180828638016,1.0,0.0,0.0,0.0,1.0,0.0,0.0,0.0,1.0,2.62015136719,1.1076965332,6.53960083008,0.1,0.0,0.0,0.0,0.1,0.0,0.0,0.0,0.1
1446036135648439829,332,1446036135645451068,robocape,-9.73726488091,11.0671648072,-36.3231755891,0.0,10.0,0.0,0.0,0.0,10.0,0.0,0.0,0.0,10.0,0.887498433269,0.0478037415669,-0.0154463343225,1.0,0.0,0.0,0.0,1.0,0.0,0.0,0.0,1.0,-1.34839599609,1.44180175781,11.7080529785,0.1,0.0,0.0,0.0,0.1,0.0,0.0,0.0,0.1
1446036135684026245,333,1446036135681032896,robocape,-9.01145068389,11.1860476176,-36.0209009469,0.0,10.0,0.0,0.0,0.0,10.0,0.0,0.0,0.0,10.0,0.343148306457,0.0528637476381,0.121040671544,1.0,0.0,0.0,0.0,1.0,0.0,0.0,0.0,1.0,-1.15080688477,0.840651855469,8.91426269531,0.1,0.0,0.0,0.0,0.1,0.0,0.0,0.0,0.1
1446036135715666745,334,1446036135712476015,robocape,-9.32192193167,10.7587816511,-35.4150659984,0.0,10.0,0.0,0.0,0.0,10.0,0.0,0.0,0.0,10.0,-0.227433957093,-0.259924522392,0.244078713906,1.0,0.0,0.0,0.0,1.0,0.0,0.0,0.0,1.0,-3.70629272461,1.44060424805,10.1836230469,0.1,0.0,0.0,0.0,0.1,0.0,0.0,0.0,0.1
1446036135748405662,335,1446036135745477914,robocape,-10.7156437926,11.039563682,-34.7131536986,0.0,10.0,0.0,0.0,0.0,10.0,0.0,0.0,0.0,10.0,-0.807470442512,0.0973385378424,0.342482516184,1.0,0.0,0.0,0.0,1.0,0.0,0.0,0.0,1.0,-2.58662109375,1.18313964844,10.3608544922,0.1,0.0,0.0,0.0,0.1,0.0,0.0,0.0,0.1
1446036135781925537,336,1446036135778945922,robocape,-13.1750868597,11.3634818856,-33.8848886117,0.0,10.0,0.0,0.0,0.0,10.0,0.0,0.0,0.0,10.0,-1.38537639906,0.0972053797879,0.406531540401,1.0,0.0,0.0,0.0,1.0,0.0,0.0,0.0,1.0,-0.422720947266,2.10881469727,10.5752087402,0.1,0.0,0.0,0.0,0.1,0.0,0.0,0.0,0.1
1446036135815305245,337,1446036135812158107,robocape,-16.5739174434,11.5334102563,-33.0832992741,0.0,10.0,0.0,0.0,0.0,10.0,0.0,0.0,0.0,10.0,-1.88951279341,0.0103863282513,0.356730428016,1.0,0.0,0.0,0.0,1.0,0.0,0.0,0.0,1.0,-3.41889038086,0.414338378906,7.57065673828,0.1,0.0,0.0,0.0,0.1,0.0,0.0,0.0,0.1
1446036135851468704,338,1446036135848391056,robocape,-20.6359668712,11.4192110793,-32.4530560346,0.0,10.0,0.0,0.0,0.0,10.0,0.0,0.0,0.0,10.0,-2.24557743115,-0.111586449674,0.192812862922,1.0,0.0,0.0,0.0,1.0,0.0,0.0,0.0,1.0,-3.1075378418,0.0467028808594,8.80528930664,0.1,0.0,0.0,0.0,0.1,0.0,0.0,0.0,0.1
1446036135881852870,339,1446036135878860950,robocape,-25.0115722918,11.5454429181,-32.2294796509,0.0,10.0,0.0,0.0,0.0,10.0,0.0,0.0,0.0,10.0,-2.41508763454,0.0960069572974,-0.00905474770627,1.0,0.0,0.0,0.0,1.0,0.0,0.0,0.0,1.0,-4.69184326172,-1.19870727539,8.32748291016,0.1,0.0,0.0,0.0,0.1,0.0,0.0,0.0,0.1
1446036135915994454,340,1446036135912410020,robocape,-29.0088622732,11.3509719105,-32.3847875163,0.0,10.0,0.0,0.0,0.0,10.0,0.0,0.0,0.0,10.0,-2.22160898134,0.049401638221,-0.287221923565,1.0,0.0,0.0,0.0,1.0,0.0,0.0,0.0,1.0,-4.16972900391,-2.4872277832,10.7021447754,0.1,0.0,0.0,0.0,0.1,0.0,0.0,0.0,0.1
1446036135949239787,341,1446036135945835113,robocape,-32.3362315193,11.3490327648,-33.0992876233,0.0,10.0,0.0,0.0,0.0,10.0,0.0,0.0,0.0,10.0,-1.85609012173,0.315185115011,-0.511992719568,1.0,0.0,0.0,0.0,1.0,0.0,0.0,0.0,1.0,-2.45968505859,-3.57217163086,10.8111181641,0.1,0.0,0.0,0.0,0.1,0.0,0.0,0.0,0.1
1446036135984422579,342,1446036135981334924,robocape,-34.8284653518,11.3258250792,-34.298185937,0.0,10.0,0.0,0.0,0.0,10.0,0.0,0.0,0.0,10.0,-1.39216745984,0.47390951598,-0.727708767864,1.0,0.0,0.0,0.0,1.0,0.0,0.0,0.0,1.0,-6.49050292969,-3.69192260742,11.455378418,0.1,0.0,0.0,0.0,0.1,0.0,0.0,0.0,0.1
1446036136015347787,343,1446036136012178897,robocape,-36.4134257798,11.1903639924,-35.7237512518,0.0,10.0,0.0,0.0,0.0,10.0,0.0,0.0,0.0,10.0,-0.890960542686,0.510661139023,-0.83876258532,1.0,0.0,0.0,0.0,1.0,0.0,0.0,0.0,1.0,-6.43541748047,-3.23327636719,12.4612866211,0.1,0.0,0.0,0.0,0.1,0.0,0.0,0.0,0.1
1446036136049058954,344,1446036136045480012,robocape,-36.9998076744,10.9750090329,-37.3845392124,0.0,10.0,0.0,0.0,0.0,10.0,0.0,0.0,0.0,10.0,-0.325571443262,0.550475397319,-0.939163758416,1.0,0.0,0.0,0.0,1.0,0.0,0.0,0.0,1.0,-5.84265014648,-3.72665039063,10.3584594727,0.1,0.0,0.0,0.0,0.1,0.0,0.0,0.0,0.1
1446036136082263079,345,1446036136079037904,robocape,-36.7585509873,11.2071841026,-39.3862568966,0.0,10.0,0.0,0.0,0.0,10.0,0.0,0.0,0.0,10.0,0.159922823459,0.839961007811,-0.930508484874,1.0,0.0,0.0,0.0,1.0,0.0,0.0,0.0,1.0,-3.21172119141,-2.7937902832,12.4493115234,0.1,0.0,0.0,0.0,0.1,0.0,0.0,0.0,0.1
1446036136116468204,346,1446036136113281965,robocape,-35.5573367099,10.730644913,-41.0885676297,0.0,10.0,0.0,0.0,0.0,10.0,0.0,0.0,0.0,10.0,0.68323397766,0.40533311791,-0.992027506055,1.0,0.0,0.0,0.0,1.0,0.0,0.0,0.0,1.0,-2.81055541992,-2.95186157227,11.2338391113,0.1,0.0,0.0,0.0,0.1,0.0,0.0,0.0,0.1
1446036136148462662,347,1446036136145484924,robocape,-33.6339765557,10.3414819505,-42.8065606007,0.0,10.0,0.0,0.0,0.0,10.0,0.0,0.0,0.0,10.0,1.08364024755,0.407330488728,-0.962865892118,1.0,0.0,0.0,0.0,1.0,0.0,0.0,0.0,1.0,-0.174836425781,-2.54231323242,11.7583483887,0.1,0.0,0.0,0.0,0.1,0.0,0.0,0.0,0.1
1446036136181929704,348,1446036136178847074,robocape,-31.2401491012,10.0638392834,-44.4713066551,0.0,10.0,0.0,0.0,0.0,10.0,0.0,0.0,0.0,10.0,1.33677370917,0.400539427948,-0.913197937788,1.0,0.0,0.0,0.0,1.0,0.0,0.0,0.0,1.0,6.03664672852,-2.6441015625,11.0685827637,0.1,0.0,0.0,0.0,0.1,0.0,0.0,0.0,0.1
1446036136216075579,349,1446036136212997913,robocape,-28.4209500617,9.75467403136,-45.9367036172,0.0,10.0,0.0,0.0,0.0,10.0,0.0,0.0,0.0,10.0,1.55528607661,0.286422975238,-0.834102053413,1.0,0.0,0.0,0.0,1.0,0.0,0.0,0.0,1.0,0.639470214844,-1.5675402832,9.56810302734,0.1,0.0,0.0,0.0,0.1,0.0,0.0,0.0,0.1
1446036136249037662,350,1446036136245986938,robocape,-25.463373891,9.51869540034,-47.1479957992,0.0,10.0,0.0,0.0,0.0,10.0,0.0,0.0,0.0,10.0,1.61214456588,0.217713419114,-0.70746874358,1.0,0.0,0.0,0.0,1.0,0.0,0.0,0.0,1.0,0.525706787109,-1.34959350586,10.4806054688,0.1,0.0,0.0,0.0,0.1,0.0,0.0,0.0,0.1
1446036136281941412,351,1446036136278940916,robocape,-22.4420442081,9.22923440364,-48.0229996696,0.0,10.0,0.0,0.0,0.0,10.0,0.0,0.0,0.0,10.0,1.62506089717,0.0810932551929,-0.558864354753,1.0,0.0,0.0,0.0,1.0,0.0,0.0,0.0,1.0,4.50383422852,-0.118553466797,9.56930053711,0.1,0.0,0.0,0.0,0.1,0.0,0.0,0.0,0.1
1446036136315213412,352,1446036136312274932,robocape,-19.6713975131,9.26134240908,-48.8321771784,0.0,10.0,0.0,0.0,0.0,10.0,0.0,0.0,0.0,10.0,1.48511178188,0.208658671408,-0.49255164361,1.0,0.0,0.0,0.0,1.0,0.0,0.0,0.0,1.0,1.26696533203,-0.371228027344,8.65919311523,0.1,0.0,0.0,0.0,0.1,0.0,0.0,0.0,0.1
1446036136350259746,353,1446036136346909999,robocape,-17.0388367483,9.32639345739,-49.5055659022,0.0,10.0,0.0,0.0,0.0,10.0,0.0,0.0,0.0,10.0,1.40548326529,0.18535601187,-0.438888947645,1.0,0.0,0.0,0.0,1.0,0.0,0.0,0.0,1.0,1.84177001953,-0.253872070313,10.5081481934,0.1,0.0,0.0,0.0,0.1,0.0,0.0,0.0,0.1
1446036136382055079,354,1446036136379025936,robocape,-14.4421976467,9.20834565039,-49.9885435145,0.0,10.0,0.0,0.0,0.0,10.0,0.0,0.0,0.0,10.0,1.37752007384,0.0474042674034,-0.374839923429,1.0,0.0,0.0,0.0,1.0,0.0,0.0,0.0,1.0,0.638272705078,-0.222736816406,7.98858764648,0.1,0.0,0.0,0.0,0.1,0.0,0.0,0.0,0.1
1446036136415526287,355,1446036136412446022,robocape,-11.9920140744,9.0849587259,-50.3400403625,0.0,10.0,0.0,0.0,0.0,10.0,0.0,0.0,0.0,10.0,1.29442944783,0.015845808486,-0.314386166684,1.0,0.0,0.0,0.0,1.0,0.0,0.0,0.0,1.0,0.0443078613281,-0.219144287109,10.1045874023,0.1,0.0,0.0,0.0,0.1,0.0,0.0,0.0,0.1
1446036136448482954,356,1446036136445512056,robocape,-9.68090960115,8.95365249735,-50.4968956172,0.0,10.0,0.0,0.0,0.0,10.0,0.0,0.0,0.0,10.0,1.21120566377,-0.0199737081756,-0.209590777789,1.0,0.0,0.0,0.0,1.0,0.0,0.0,0.0,1.0,2.3339465332,0.0502954101563,8.48914672852,0.1,0.0,0.0,0.0,0.1,0.0,0.0,0.0,0.1
1446036136482934746,357,1446036136479274988,robocape,-7.68714136176,9.12411689368,-50.4648655758,0.0,10.0,0.0,0.0,0.0,10.0,0.0,0.0,0.0,10.0,1.03397229322,0.115048559091,-0.0838895743375,1.0,0.0,0.0,0.0,1.0,0.0,0.0,0.0,1.0,-2.4872277832,0.778381347656,11.2937145996,0.1,0.0,0.0,0.0,0.1,0.0,0.0,0.0,0.1
1446036136515364454,358,1446036136512330055,robocape,-6.15297191849,8.93768273003,-50.2200036337,0.0,10.0,0.0,0.0,0.0,10.0,0.0,0.0,0.0,10.0,0.779773567175,-0.0893490545722,0.0173105470855,1.0,0.0,0.0,0.0,1.0,0.0,0.0,0.0,1.0,-4.62717773438,0.847836914063,9.78006225586,0.1,0.0,0.0,0.0,0.1,0.0,0.0,0.0,0.1
1446036136551252454,359,1446036136547642946,robocape,-4.96751630138,8.0895561647,-49.8341873581,0.0,10.0,0.0,0.0,0.0,10.0,0.0,0.0,0.0,10.0,0.589623865344,-0.445680008425,0.0800279907569,1.0,0.0,0.0,0.0,1.0,0.0,0.0,0.0,1.0,-1.62023071289,0.543669433594,6.76593017578,0.1,0.0,0.0,0.0,0.1,0.0,0.0,0.0,0.1
1446036136582450371,360,1446036136579031944,robocape,-4.24835189476,8.2070225903,-49.4448831743,0.0,10.0,0.0,0.0,0.0,10.0,0.0,0.0,0.0,10.0,0.346743573928,0.0629837597804,0.116646455745,1.0,0.0,0.0,0.0,1.0,0.0,0.0,0.0,1.0,-0.535286865234,0.698148193359,10.3704345703,0.1,0.0,0.0,0.0,0.1,0.0,0.0,0.0,0.1
1446036136615473454,361,1446036136612421989,robocape,-3.9562880971,7.77995453472,-48.9272609941,0.0,10.0,0.0,0.0,0.0,10.0,0.0,0.0,0.0,10.0,0.114915401037,-0.229564485965,0.18389127327,1.0,0.0,0.0,0.0,1.0,0.0,0.0,0.0,1.0,1.27894042969,1.03225341797,10.9632019043,0.1,0.0,0.0,0.0,0.1,0.0,0.0,0.0,0.1
1446036136648486662,362,1446036136645509004,robocape,-3.93964540259,7.44468718905,-48.4906953917,0.0,10.0,0.0,0.0,0.0,10.0,0.0,0.0,0.0,10.0,-0.0222373951022,-0.17710021249,0.137951744466,1.0,0.0,0.0,0.0,1.0,0.0,0.0,0.0,1.0,-2.34472412109,0.331710205078,9.17172729492,0.1,0.0,0.0,0.0,0.1,0.0,0.0,0.0,0.1
1446036136681759162,363,1446036136678772926,robocape,-4.04775688544,7.45152333514,-48.1446999481,0.0,10.0,0.0,0.0,0.0,10.0,0.0,0.0,0.0,10.0,-0.0813595713019,0.00692421883421,0.0916127414987,1.0,0.0,0.0,0.0,1.0,0.0,0.0,0.0,1.0,-1.01908081055,0.198786621094,9.81239501953,0.1,0.0,0.0,0.0,0.1,0.0,0.0,0.0,0.1
1446036136715537871,364,1446036136712521076,robocape,-4.18527566695,6.84830429509,-47.7937708016,0.0,10.0,0.0,0.0,0.0,10.0,0.0,0.0,0.0,10.0,-0.0962732734064,-0.314652482793,0.0802943068659,1.0,0.0,0.0,0.0,1.0,0.0,0.0,0.0,1.0,-1.29211303711,0.214354248047,8.02690795898,0.1,0.0,0.0,0.0,0.1,0.0,0.0,0.0,0.1
1446036136748495954,365,1446036136745546102,robocape,-4.4060794397,7.14200883221,-47.5314395985,0.0,10.0,0.0,0.0,0.0,10.0,0.0,0.0,0.0,10.0,-0.135022267267,0.160322297623,0.0513990090385,1.0,0.0,0.0,0.0,1.0,0.0,0.0,0.0,1.0,2.46567260742,0.189206542969,13.1941625977,0.1,0.0,0.0,0.0,0.1,0.0,0.0,0.0,0.1
1446036136781905079,366,1446036136778919935,robocape,-4.5769248475,6.73882877932,-47.2399467815,0.0,10.0,0.0,0.0,0.0,10.0,0.0,0.0,0.0,10.0,-0.110388027184,-0.207593406972,0.04966795433,1.0,0.0,0.0,0.0,1.0,0.0,0.0,0.0,1.0,-0.767603759766,0.110170898438,7.86045410156,0.1,0.0,0.0,0.0,0.1,0.0,0.0,0.0,0.1
1446036136815266788,367,1446036136812289953,robocape,-4.80425912133,6.84619575647,-46.998393182,0.0,10.0,0.0,0.0,0.0,10.0,0.0,0.0,0.0,10.0,-0.137552270303,0.0624511275624,0.0360858327706,1.0,0.0,0.0,0.0,1.0,0.0,0.0,0.0,1.0,1.39749389648,0.250279541016,10.7416625977,0.1,0.0,0.0,0.0,0.1,0.0,0.0,0.0,0.1
1446036136848411829,368,1446036136845463037,robocape,-5.04789170038,6.56218975143,-46.7017989402,0.0,10.0,0.0,0.0,0.0,10.0,0.0,0.0,0.0,10.0,-0.149270179099,-0.146740176063,0.0572579634367,1.0,0.0,0.0,0.0,1.0,0.0,0.0,0.0,1.0,3.3374597168,0.449066162109,9.31782348633,0.1,0.0,0.0,0.0,0.1,0.0,0.0,0.0,0.1
1446036136882207829,369,1446036136879142999,robocape,-5.32677235385,6.24706489621,-46.4665326304,0.0,10.0,0.0,0.0,0.0,10.0,0.0,0.0,0.0,10.0,-0.164317039258,-0.160189139568,0.0185089695761,1.0,0.0,0.0,0.0,1.0,0.0,0.0,0.0,1.0,1.93876831055,-0.261057128906,10.5141357422,0.1,0.0,0.0,0.0,0.1,0.0,0.0,0.0,0.1
1446036136915458121,370,1446036136912416934,robocape,-5.87897985929,6.27661352593,-46.3771307277,0.0,10.0,0.0,0.0,0.0,10.0,0.0,0.0,0.0,10.0,-0.301203519288,0.0294279300454,-0.0580569117637,1.0,0.0,0.0,0.0,1.0,0.0,0.0,0.0,1.0,2.988984375,-0.510139160156,11.6972753906,0.1,0.0,0.0,0.0,0.1,0.0,0.0,0.0,0.1
1446036136948620829,371,1446036136945559978,robocape,-6.23259773599,6.87926490407,-46.0764319222,0.0,10.0,0.0,0.0,0.0,10.0,0.0,0.0,0.0,10.0,-0.209723935844,0.314386166684,0.10053433115,1.0,0.0,0.0,0.0,1.0,0.0,0.0,0.0,1.0,0.90052734375,0.696950683594,11.0937304688,0.1,0.0,0.0,0.0,0.1,0.0,0.0,0.0,0.1
1446036136982142496,372,1446036136979084014,robocape,-6.75088144739,7.15280294893,-45.7111249326,0.0,10.0,0.0,0.0,0.0,10.0,0.0,0.0,0.0,10.0,-0.301203519288,0.137152796139,0.12476909707,1.0,0.0,0.0,0.0,1.0,0.0,0.0,0.0,1.0,-1.06698120117,0.0993933105469,9.82676513672,0.1,0.0,0.0,0.0,0.1,0.0,0.0,0.0,0.1
1446036137015247288,373,1446036137012207031,robocape,-7.06178399062,7.58517113763,-45.8321594856,0.0,10.0,0.0,0.0,0.0,10.0,0.0,0.0,0.0,10.0,-0.165115987585,0.259391890174,-0.159390191241,1.0,0.0,0.0,0.0,1.0,0.0,0.0,0.0,1.0,-2.8321105957,-1.02267333984,11.935579834,0.1,0.0,0.0,0.0,0.1,0.0,0.0,0.0,0.1
1446036137051997454,374,1446036137048415899,robocape,-6.82329865597,7.93401430456,-46.0922380136,0.0,10.0,0.0,0.0,0.0,10.0,0.0,0.0,0.0,10.0,0.133291212558,0.228099747365,-0.245809768614,1.0,0.0,0.0,0.0,1.0,0.0,0.0,0.0,1.0,3.43565551758,-1.25858276367,8.75379638672,0.1,0.0,0.0,0.0,0.1,0.0,0.0,0.0,0.1
1446036137081901538,375,1446036137078859090,robocape,-5.93450501908,8.71026558323,-46.5153292971,0.0,10.0,0.0,0.0,0.0,10.0,0.0,0.0,0.0,10.0,0.489622166411,0.464854768273,-0.32490565299,1.0,0.0,0.0,0.0,1.0,0.0,0.0,0.0,1.0,-1.06578369141,-0.797541503906,12.8696374512,0.1,0.0,0.0,0.0,0.1,0.0,0.0,0.0,0.1
1446036137115181621,376,1446036137112145900,robocape,-4.41226807239,8.71948385601,-46.7797294048,0.0,10.0,0.0,0.0,0.0,10.0,0.0,0.0,0.0,10.0,0.816392032164,0.0475374254579,-0.267647689553,1.0,0.0,0.0,0.0,1.0,0.0,0.0,0.0,1.0,-2.09444458008,-0.484991455078,8.75020385742,0.1,0.0,0.0,0.0,0.1,0.0,0.0,0.0,0.1
1446036137149000829,377,1446036137145643949,robocape,-2.4017644059,8.39266315313,-46.9673684305,0.0,10.0,0.0,0.0,0.0,10.0,0.0,0.0,0.0,10.0,1.07099023238,-0.138883850848,-0.232493963164,1.0,0.0,0.0,0.0,1.0,0.0,0.0,0.0,1.0,-1.96271850586,-0.161663818359,9.74772949219,0.1,0.0,0.0,0.0,0.1,0.0,0.0,0.0,0.1
1446036137182397246,378,1446036137179069995,robocape,-0.105157237322,8.83915384385,-47.0897888892,0.0,10.0,0.0,0.0,0.0,10.0,0.0,0.0,0.0,10.0,1.22239094035,0.263253473754,-0.199337607592,1.0,0.0,0.0,0.0,1.0,0.0,0.0,0.0,1.0,-2.81893798828,-0.0371228027344,10.5823937988,0.1,0.0,0.0,0.0,0.1,0.0,0.0,0.0,0.1
1446036137215329996,379,1446036137212362051,robocape,2.66497076779,9.54038399972,-46.8315535137,0.0,10.0,0.0,0.0,0.0,10.0,0.0,0.0,0.0,10.0,1.4455638397,0.394547315495,-0.000798948327024,1.0,0.0,0.0,0.0,1.0,0.0,0.0,0.0,1.0,-3.79490844727,2.29921875,11.0494226074,0.1,0.0,0.0,0.0,0.1,0.0,0.0,0.0,0.1
1446036137248459996,380,1446036137245496988,robocape,4.73202257823,9.92119777359,-46.6042581368,0.0,10.0,0.0,0.0,0.0,10.0,0.0,0.0,0.0,10.0,1.08577077643,0.229963960128,-0.0276968753368,1.0,0.0,0.0,0.0,1.0,0.0,0.0,0.0,1.0,-1.32923583984,0.700543212891,9.70342163086,0.1,0.0,0.0,0.0,0.1,0.0,0.0,0.0,0.1
1446036137282072121,381,1446036137279047966,robocape,6.85544188975,9.80750128278,-46.333644857,0.0,10.0,0.0,0.0,0.0,10.0,0.0,0.0,0.0,10.0,1.1159976548,-0.0251668723012,0.0185089695761,1.0,0.0,0.0,0.0,1.0,0.0,0.0,0.0,1.0,1.20828735352,0.199984130859,8.78493164063,0.1,0.0,0.0,0.0,0.1,0.0,0.0,0.0,0.1
1446036137315116079,382,1446036137312138080,robocape,8.98069046465,10.1484646581,-45.8355473607,0.0,10.0,0.0,0.0,0.0,10.0,0.0,0.0,0.0,10.0,1.10095079464,0.230762908455,0.105061705004,1.0,0.0,0.0,0.0,1.0,0.0,0.0,0.0,1.0,2.74828491211,1.13404174805,9.99441650391,0.1,0.0,0.0,0.0,0.1,0.0,0.0,0.0,0.1
1446036137348417996,383,1446036137345454931,robocape,11.0562455145,10.3286333081,-45.2104244619,0.0,10.0,0.0,0.0,0.0,10.0,0.0,0.0,0.0,10.0,1.06513127798,0.164849671476,0.184557063542,1.0,0.0,0.0,0.0,1.0,0.0,0.0,0.0,1.0,1.20349731445,0.245489501953,8.3921484375,0.1,0.0,0.0,0.0,0.1,0.0,0.0,0.0,0.1
1446036137381910121,384,1446036137378956079,robocape,12.8767002911,10.6841600589,-44.4402713074,0.0,10.0,0.0,0.0,0.0,10.0,0.0,0.0,0.0,10.0,0.918257943859,0.278433491968,0.240882920598,1.0,0.0,0.0,0.0,1.0,0.0,0.0,0.0,1.0,0.44068359375,1.74117919922,12.6289379883,0.1,0.0,0.0,0.0,0.1,0.0,0.0,0.0,0.1
1446036137415080330,385,1446036137412115097,robocape,14.4681857483,10.9867501323,-43.5285470823,0.0,10.0,0.0,0.0,0.0,10.0,0.0,0.0,0.0,10.0,0.780306199393,0.27643612115,0.325571443262,1.0,0.0,0.0,0.0,1.0,0.0,0.0,0.0,1.0,-2.55189331055,1.27654541016,8.68793334961,0.1,0.0,0.0,0.0,0.1,0.0,0.0,0.0,0.1
1446036137448903038,386,1446036137445816993,robocape,15.761446859,11.749817267,-42.4515480621,0.0,10.0,0.0,0.0,0.0,10.0,0.0,0.0,0.0,10.0,0.603472303012,0.541553807668,0.342881990348,1.0,0.0,0.0,0.0,1.0,0.0,0.0,0.0,1.0,-4.69783081055,2.21060302734,14.2934765625,0.1,0.0,0.0,0.0,0.1,0.0,0.0,0.0,0.1
1446036137483055955,387,1446036137480043888,robocape,16.7672519837,12.0119105194,-41.3434510583,0.0,10.0,0.0,0.0,0.0,10.0,0.0,0.0,0.0,10.0,0.435693154337,0.299072990416,0.445946324534,1.0,0.0,0.0,0.0,1.0,0.0,0.0,0.0,1.0,-2.81534545898,1.28732299805,8.06642578125,0.1,0.0,0.0,0.0,0.1,0.0,0.0,0.0,0.1
1446036137515360496,388,1446036137512300014,robocape,17.5575364962,11.8478914086,-40.4347976333,0.0,10.0,0.0,0.0,0.0,10.0,0.0,0.0,0.0,10.0,0.343148306457,0.0625842856169,0.414654181725,1.0,0.0,0.0,0.0,1.0,0.0,0.0,0.0,1.0,0.82388671875,0.953217773438,10.4063598633,0.1,0.0,0.0,0.0,0.1,0.0,0.0,0.0,0.1
1446036137551401830,389,1446036137547657012,robocape,18.3746071113,12.0893342149,-39.4551620178,0.0,10.0,0.0,0.0,0.0,10.0,0.0,0.0,0.0,10.0,0.354999373308,0.283759814148,0.374440449265,1.0,0.0,0.0,0.0,1.0,0.0,0.0,0.0,1.0,-1.71603149414,1.98427368164,10.9476342773,0.1,0.0,0.0,0.0,0.1,0.0,0.0,0.0,0.1
1446036137583597580,390,1446036137580420970,robocape,19.2382118931,11.7899841961,-38.5867573344,0.0,10.0,0.0,0.0,0.0,10.0,0.0,0.0,0.0,10.0,0.389753625533,0.00239684498107,0.415053655889,1.0,0.0,0.0,0.0,1.0,0.0,0.0,0.0,1.0,-1.57951538086,0.892144775391,9.0400012207,0.1,0.0,0.0,0.0,0.1,0.0,0.0,0.0,0.1
1446036137615407746,391,1446036137612375974,robocape,20.0280676662,11.6679008382,-37.6868838595,0.0,10.0,0.0,0.0,0.0,10.0,0.0,0.0,0.0,10.0,0.351137789727,0.10199906975,0.399074689348,1.0,0.0,0.0,0.0,1.0,0.0,0.0,0.0,1.0,3.37458251953,1.04901855469,9.39326660156,0.1,0.0,0.0,0.0,0.1,0.0,0.0,0.0,0.1
1446036137648599371,392,1446036137645560979,robocape,20.9240863717,11.6883426087,-36.7208862207,0.0,10.0,0.0,0.0,0.0,10.0,0.0,0.0,0.0,10.0,0.404401011529,0.191081808213,0.399474163512,1.0,0.0,0.0,0.0,1.0,0.0,0.0,0.0,1.0,7.18026855469,1.44659179688,11.7811010742,0.1,0.0,0.0,0.0,0.1,0.0,0.0,0.0,0.1
1446036137682105871,393,1446036137679163932,robocape,21.8380916395,11.9560825675,-35.8024527791,0.0,10.0,0.0,0.0,0.0,10.0,0.0,0.0,0.0,10.0,0.427437354958,0.311856163648,0.314652482793,1.0,0.0,0.0,0.0,1.0,0.0,0.0,0.0,1.0,6.09412719727,0.598754882812,8.78253662109,0.1,0.0,0.0,0.0,0.1,0.0,0.0,0.0,0.1
1446036137715350705,394,1446036137712323904,robocape,22.9335499292,12.5653845255,-34.6315439379,0.0,10.0,0.0,0.0,0.0,10.0,0.0,0.0,0.0,10.0,0.495880594973,0.534629588833,0.35712990218,1.0,0.0,0.0,0.0,1.0,0.0,0.0,0.0,1.0,-2.00942138672,1.2992980957,12.8361071777,0.1,0.0,0.0,0.0,0.1,0.0,0.0,0.0,0.1
