%time,field.header.seq,field.header.stamp,field.header.frame_id,field.orientation.x,field.orientation.y,field.orientation.z,field.orientation.w,field.orientation_covariance0,field.orientation_covariance1,field.orientation_covariance2,field.orientation_covariance3,field.orientation_covariance4,field.orientation_covariance5,field.orientation_covariance6,field.orientation_covariance7,field.orientation_covariance8,field.angular_velocity.x,field.angular_velocity.y,field.angular_velocity.z,field.angular_velocity_covariance0,field.angular_velocity_covariance1,field.angular_velocity_covariance2,field.angular_velocity_covariance3,field.angular_velocity_covariance4,field.angular_velocity_covariance5,field.angular_velocity_covariance6,field.angular_velocity_covariance7,field.angular_velocity_covariance8,field.linear_acceleration.x,field.linear_acceleration.y,field.linear_acceleration.z,field.linear_acceleration_covariance0,field.linear_acceleration_covariance1,field.linear_acceleration_covariance2,field.linear_acceleration_covariance3,field.linear_acceleration_covariance4,field.linear_acceleration_covariance5,field.linear_acceleration_covariance6,field.linear_acceleration_covariance7,field.linear_acceleration_covariance8
1452008388441869737,1,1452008388437361955,robocape,12.4098586439,2.8331416008,-15.8154926165,0.0,10.0,0.0,0.0,0.0,10.0,0.0,0.0,0.0,10.0,0.00572579634367,0.0222373951022,0.00838895743375,1.0,0.0,0.0,0.0,1.0,0.0,0.0,0.0,1.0,0.0299377441406,-0.0646655273438,10.0075891113,0.1,0.0,0.0,0.0,0.1,0.0,0.0,0.0,0.1
1452008388467231695,2,1452008388464126110,robocape,12.3993025663,2.86299167493,-15.7621559325,0.0,10.0,0.0,0.0,0.0,10.0,0.0,0.0,0.0,10.0,0.00559263828917,0.0223705531567,0.00812264132474,1.0,0.0,0.0,0.0,1.0,0.0,0.0,0.0,1.0,0.0371228027344,-0.0802331542969,9.99202148437,0.1,0.0,0.0,0.0,0.1,0.0,0.0,0.0,0.1
1452008388500817154,3,1452008388497550964,robocape,12.3878171248,2.89276451551,-15.7087309637,0.0,10.0,0.0,0.0,0.0,10.0,0.0,0.0,0.0,10.0,0.00506000607115,0.0223705531567,0.00825579937925,1.0,0.0,0.0,0.0,1.0,0.0,0.0,0.0,1.0,0.0467028808594,-0.0790356445313,10.0111816406,0.1,0.0,0.0,0.0,0.1,0.0,0.0,0.0,0.1
1452008388543363529,4,1452008388532605886,robocape,12.3773795342,2.92255745354,-15.6556752691,0.0,10.0,0.0,0.0,0.0,10.0,0.0,0.0,0.0,10.0,0.00559263828917,0.0223705531567,0.00812264132474,1.0,0.0,0.0,0.0,1.0,0.0,0.0,0.0,1.0,0.0347277832031,-0.076640625,10.0016015625,0.1,0.0,0.0,0.0,0.1,0.0,0.0,0.0,0.1
1452008388567433112,5,1452008388564369916,robocape,12.3687098186,2.95271947297,-15.6034078355,0.0,10.0,0.0,0.0,0.0,10.0,0.0,0.0,0.0,10.0,0.00652474467069,0.0225037112112,0.00772316716123,1.0,0.0,0.0,0.0,1.0,0.0,0.0,0.0,1.0,0.028740234375,-0.076640625,10.0123791504,0.1,0.0,0.0,0.0,0.1,0.0,0.0,0.0,0.1
1452008388600471820,6,1452008388597415924,robocape,12.3581183494,2.98275384148,-15.5508177171,0.0,10.0,0.0,0.0,0.0,10.0,0.0,0.0,0.0,10.0,0.00545948023466,0.0225037112112,0.00798948327024,1.0,0.0,0.0,0.0,1.0,0.0,0.0,0.0,1.0,0.0311352539063,-0.0646655273438,10.0087866211,0.1,0.0,0.0,0.0,0.1,0.0,0.0,0.0,0.1
1452008388634215987,7,1452008388630610942,robocape,12.3478874961,3.01284651162,-15.4975748804,0.0,10.0,0.0,0.0,0.0,10.0,0.0,0.0,0.0,10.0,0.00559263828917,0.0226368692657,0.00838895743375,1.0,0.0,0.0,0.0,1.0,0.0,0.0,0.0,1.0,0.0490979003906,-0.0742456054688,9.98603393555,0.1,0.0,0.0,0.0,0.1,0.0,0.0,0.0,0.1
1452008388667404820,8,1452008388664351940,robocape,12.3371643562,3.04331852157,-15.4451538326,0.0,10.0,0.0,0.0,0.0,10.0,0.0,0.0,0.0,10.0,0.00532632218016,0.0227700273202,0.00798948327024,1.0,0.0,0.0,0.0,1.0,0.0,0.0,0.0,1.0,0.0467028808594,-0.0790356445313,9.99920654297,0.1,0.0,0.0,0.0,0.1,0.0,0.0,0.0,0.1
1452008388700582445,9,1452008388697432994,robocape,12.3257153906,3.072577457,-15.3933972276,0.0,10.0,0.0,0.0,0.0,10.0,0.0,0.0,0.0,10.0,0.00492684801665,0.0221042370477,0.00785632521573,1.0,0.0,0.0,0.0,1.0,0.0,0.0,0.0,1.0,0.0371228027344,-0.0682580566406,9.96447875977,0.1,0.0,0.0,0.0,0.1,0.0,0.0,0.0,0.1
1452008388734085070,10,1452008388730756044,robocape,12.3155621696,3.10185515475,-15.3420008437,0.0,10.0,0.0,0.0,0.0,10.0,0.0,0.0,0.0,10.0,0.00559263828917,0.0221042370477,0.00772316716123,1.0,0.0,0.0,0.0,1.0,0.0,0.0,0.0,1.0,0.0538879394531,-0.0634680175781,9.98363891602,0.1,0.0,0.0,0.0,0.1,0.0,0.0,0.0,0.1
1452008388767394237,11,1452008388764226913,robocape,12.3060104115,3.13198744735,-15.290023165,0.0,10.0,0.0,0.0,0.0,10.0,0.0,0.0,0.0,10.0,0.00585895439817,0.0226368692657,0.00798948327024,1.0,0.0,0.0,0.0,1.0,0.0,0.0,0.0,1.0,0.0467028808594,-0.0706530761719,10.0027990723,0.1,0.0,0.0,0.0,0.1,0.0,0.0,0.0,0.1
1452008388800579320,12,1452008388797509908,robocape,12.2959940928,3.1606042327,-15.238513136,0.0,10.0,0.0,0.0,0.0,10.0,0.0,0.0,0.0,10.0,0.00559263828917,0.0218379209386,0.00798948327024,1.0,0.0,0.0,0.0,1.0,0.0,0.0,0.0,1.0,0.0347277832031,-0.0706530761719,9.9980090332,0.1,0.0,0.0,0.0,0.1,0.0,0.0,0.0,0.1
1452008388835150279,13,1452008388831873893,robocape,12.2854633722,3.18965428627,-15.1880636533,0.0,10.0,0.0,0.0,0.0,10.0,0.0,0.0,0.0,10.0,0.00532632218016,0.0219710789932,0.00745685105222,1.0,0.0,0.0,0.0,1.0,0.0,0.0,0.0,1.0,0.0383203125,-0.0706530761719,9.99202148437,0.1,0.0,0.0,0.0,0.1,0.0,0.0,0.0,0.1
1452008388868157195,14,1452008388864468097,robocape,12.2758203098,3.21945318603,-15.1365385762,0.0,10.0,0.0,0.0,0.0,10.0,0.0,0.0,0.0,10.0,0.00572579634367,0.0225037112112,0.00798948327024,1.0,0.0,0.0,0.0,1.0,0.0,0.0,0.0,1.0,0.0323327636719,-0.0754431152344,9.98962646484,0.1,0.0,0.0,0.0,0.1,0.0,0.0,0.0,0.1
1452008388901989404,15,1452008388898905992,robocape,12.2660291014,3.24881773118,-15.0844701552,0.0,10.0,0.0,0.0,0.0,10.0,0.0,0.0,0.0,10.0,0.00559263828917,0.0223705531567,0.00838895743375,1.0,0.0,0.0,0.0,1.0,0.0,0.0,0.0,1.0,0.0371228027344,-0.0778381347656,10.0051940918,0.1,0.0,0.0,0.0,0.1,0.0,0.0,0.0,0.1
1452008388935977612,16,1452008388932550907,robocape,12.2555385699,3.27815729659,-15.0325443953,0.0,10.0,0.0,0.0,0.0,10.0,0.0,0.0,0.0,10.0,0.00519316412565,0.0223705531567,0.00838895743375,1.0,0.0,0.0,0.0,1.0,0.0,0.0,0.0,1.0,0.0347277832031,-0.0754431152344,10.0016015625,0.1,0.0,0.0,0.0,0.1,0.0,0.0,0.0,0.1
1452008388968132529,17,1452008388964885950,robocape,12.2445598923,3.30708025166,-14.9813549364,0.0,10.0,0.0,0.0,0.0,10.0,0.0,0.0,0.0,10.0,0.00492684801665,0.0221042370477,0.00812264132474,1.0,0.0,0.0,0.0,1.0,0.0,0.0,0.0,1.0,0.0371228027344,-0.0706530761719,10.0016015625,0.1,0.0,0.0,0.0,0.1,0.0,0.0,0.0,0.1
1452008389002265154,18,1452008388999237060,robocape,12.2348522611,3.3373660953,-14.9307388282,0.0,10.0,0.0,0.0,0.0,10.0,0.0,0.0,0.0,10.0,0.00559263828917,0.0227700273202,0.00772316716123,1.0,0.0,0.0,0.0,1.0,0.0,0.0,0.0,1.0,0.0395178222656,-0.067060546875,9.98004638672,0.1,0.0,0.0,0.0,0.1,0.0,0.0,0.0,0.1
1452008389036311820,19,1452008389032437086,robocape,12.2249760846,3.36702134932,-14.879874061,0.0,10.0,0.0,0.0,0.0,10.0,0.0,0.0,0.0,10.0,0.00545948023466,0.0225037112112,0.00798948327024,1.0,0.0,0.0,0.0,1.0,0.0,0.0,0.0,1.0,0.0323327636719,-0.0742456054688,9.99202148437,0.1,0.0,0.0,0.0,0.1,0.0,0.0,0.0,0.1
1452008389075015737,20,1452008389071854114,robocape,12.2164588202,3.39623542279,-14.828440889,0.0,10.0,0.0,0.0,0.0,10.0,0.0,0.0,0.0,10.0,0.00612527050718,0.0223705531567,0.00838895743375,1.0,0.0,0.0,0.0,1.0,0.0,0.0,0.0,1.0,0.0107775878906,-0.0598754882813,10.0231567383,0.1,0.0,0.0,0.0,0.1,0.0,0.0,0.0,0.1
1452008389102614321,21,1452008389099133014,robocape,12.2092740493,3.42456485048,-14.7767917583,0.0,10.0,0.0,0.0,0.0,10.0,0.0,0.0,0.0,10.0,0.0067910607797,0.0219710789932,0.00865527354276,1.0,0.0,0.0,0.0,1.0,0.0,0.0,0.0,1.0,0.0371228027344,-0.0742456054688,9.99561401367,0.1,0.0,0.0,0.0,0.1,0.0,0.0,0.0,0.1
1452008389137921029,22,1452008389134500026,robocape,12.1990927642,3.45348135589,-14.7256914754,0.0,10.0,0.0,0.0,0.0,10.0,0.0,0.0,0.0,10.0,0.00519316412565,0.0222373951022,0.00838895743375,1.0,0.0,0.0,0.0,1.0,0.0,0.0,0.0,1.0,0.047900390625,-0.0610729980469,9.96208374023,0.1,0.0,0.0,0.0,0.1,0.0,0.0,0.0,0.1
1452008389172194196,23,1452008389168534040,robocape,12.1886366917,3.48233206837,-14.675754627,0.0,10.0,0.0,0.0,0.0,10.0,0.0,0.0,0.0,10.0,0.00506000607115,0.0221042370477,0.00785632521573,1.0,0.0,0.0,0.0,1.0,0.0,0.0,0.0,1.0,0.0610729980469,-0.0646655273438,10.0087866211,0.1,0.0,0.0,0.0,0.1,0.0,0.0,0.0,0.1
1452008389204004654,24,1452008389198647022,robocape,12.1782436364,3.51067399767,-14.622469039,0.0,10.0,0.0,0.0,0.0,10.0,0.0,0.0,0.0,10.0,0.00492684801665,0.0222373951022,0.00972053797879,1.0,0.0,0.0,0.0,1.0,0.0,0.0,0.0,1.0,0.0275427246094,-0.086220703125,9.96328125,0.1,0.0,0.0,0.0,0.1,0.0,0.0,0.0,0.1
1452008389238805196,25,1452008389235038042,robocape,12.1685182269,3.54014718672,-14.5710991543,0.0,10.0,0.0,0.0,0.0,10.0,0.0,0.0,0.0,10.0,0.00532632218016,0.0226368692657,0.00865527354276,1.0,0.0,0.0,0.0,1.0,0.0,0.0,0.0,1.0,0.0251477050781,-0.0969982910156,10.024354248,0.1,0.0,0.0,0.0,0.1,0.0,0.0,0.0,0.1
1452008389272066404,26,1452008389268855094,robocape,12.1607879366,3.56899289883,-14.5207249079,0.0,10.0,0.0,0.0,0.0,10.0,0.0,0.0,0.0,10.0,0.00639158661619,0.0222373951022,0.00825579937925,1.0,0.0,0.0,0.0,1.0,0.0,0.0,0.0,1.0,0.0347277832031,-0.0646655273438,10.003996582,0.1,0.0,0.0,0.0,0.1,0.0,0.0,0.0,0.1
1452008389305527446,27,1452008389302289009,robocape,12.1520531324,3.59717404926,-14.4711386635,0.0,10.0,0.0,0.0,0.0,10.0,0.0,0.0,0.0,10.0,0.00585895439817,0.0218379209386,0.00798948327024,1.0,0.0,0.0,0.0,1.0,0.0,0.0,0.0,1.0,0.0203576660156,-0.0634680175781,9.98842895508,0.1,0.0,0.0,0.0,0.1,0.0,0.0,0.0,0.1
1452008389336294487,28,1452008389333275079,robocape,12.1424813131,3.62551633145,-14.4201113377,0.0,10.0,0.0,0.0,0.0,10.0,0.0,0.0,0.0,10.0,0.00532632218016,0.0221042370477,0.00878843159726,1.0,0.0,0.0,0.0,1.0,0.0,0.0,0.0,1.0,0.0455053710938,-0.0634680175781,9.97525634766,0.1,0.0,0.0,0.0,0.1,0.0,0.0,0.0,0.1
1452008389372364529,29,1452008389368717908,robocape,12.1323305027,3.65469362136,-14.370821114,0.0,10.0,0.0,0.0,0.0,10.0,0.0,0.0,0.0,10.0,0.00506000607115,0.0223705531567,0.00785632521573,1.0,0.0,0.0,0.0,1.0,0.0,0.0,0.0,1.0,0.0455053710938,-0.0646655273438,9.98962646484,0.1,0.0,0.0,0.0,0.1,0.0,0.0,0.0,0.1
1452008389404380154,30,1452008389400799989,robocape,12.1227484545,3.68353919475,-14.3214550848,0.0,10.0,0.0,0.0,0.0,10.0,0.0,0.0,0.0,10.0,0.00532632218016,0.0222373951022,0.00798948327024,1.0,0.0,0.0,0.0,1.0,0.0,0.0,0.0,1.0,0.0203576660156,-0.0778381347656,9.99441650391,0.1,0.0,0.0,0.0,0.1,0.0,0.0,0.0,0.1
1452008389438683654,31,1452008389434582948,robocape,12.1127256829,3.71335049039,-14.2720009936,0.0,10.0,0.0,0.0,0.0,10.0,0.0,0.0,0.0,10.0,0.00506000607115,0.0227700273202,0.00798948327024,1.0,0.0,0.0,0.0,1.0,0.0,0.0,0.0,1.0,0.0419128417969,-0.0778381347656,9.9980090332,0.1,0.0,0.0,0.0,0.1,0.0,0.0,0.0,0.1
1452008389471849196,32,1452008389468385934,robocape,12.1037770295,3.74307424256,-14.2224100243,0.0,10.0,0.0,0.0,0.0,10.0,0.0,0.0,0.0,10.0,0.00559263828917,0.0227700273202,0.00812264132474,1.0,0.0,0.0,0.0,1.0,0.0,0.0,0.0,1.0,0.0419128417969,-0.0682580566406,9.99681152344,0.1,0.0,0.0,0.0,0.1,0.0,0.0,0.0,0.1
1452008389505380154,33,1452008389501828908,robocape,12.0946652386,3.77112521042,-14.1725315769,0.0,10.0,0.0,0.0,0.0,10.0,0.0,0.0,0.0,10.0,0.00545948023466,0.0219710789932,0.00852211548825,1.0,0.0,0.0,0.0,1.0,0.0,0.0,0.0,1.0,0.0407153320313,-0.0694555664063,9.98962646484,0.1,0.0,0.0,0.0,0.1,0.0,0.0,0.0,0.1
1452008389537803071,34,1452008389534514904,robocape,12.0472325201,3.79394679566,-14.0975873665,0.0,10.0,0.0,0.0,0.0,10.0,0.0,0.0,0.0,10.0,-0.0159789665405,0.0219710789932,0.0225037112112,1.0,0.0,0.0,0.0,1.0,0.0,0.0,0.0,1.0,0.00838256835938,0.274229736328,9.98244140625,0.1,0.0,0.0,0.0,0.1,0.0,0.0,0.0,0.1
1452008389571291196,35,1452008389568028926,robocape,11.8314747848,3.79939432596,-13.8122157942,0.0,10.0,0.0,0.0,0.0,10.0,0.0,0.0,0.0,10.0,-0.114249610764,0.0352868844435,0.135288583376,1.0,0.0,0.0,0.0,1.0,0.0,0.0,0.0,1.0,0.0598754882813,-0.337697753906,10.0411193848,0.1,0.0,0.0,0.0,0.1,0.0,0.0,0.0,0.1
1452008389603720237,36,1452008389600495100,robocape,11.7300848175,3.85718385215,-13.5195438752,0.0,10.0,0.0,0.0,0.0,10.0,0.0,0.0,0.0,10.0,-0.0540621701286,0.0627174436714,0.132891738395,1.0,0.0,0.0,0.0,1.0,0.0,0.0,0.0,1.0,0.262254638672,-0.802331542969,10.1979931641,0.1,0.0,0.0,0.0,0.1,0.0,0.0,0.0,0.1
1452008389637130112,37,1452008389634095907,robocape,11.9705880207,3.97750228357,-13.3403796383,0.0,10.0,0.0,0.0,0.0,10.0,0.0,0.0,0.0,10.0,0.131959632013,0.083490100174,0.0648479725434,1.0,0.0,0.0,0.0,1.0,0.0,0.0,0.0,1.0,0.219144287109,-0.761616210938,10.1465002441,0.1,0.0,0.0,0.0,0.1,0.0,0.0,0.0,0.1
1452008389669595279,38,1452008389666399002,robocape,12.2363256232,4.07717692295,-13.1725106173,0.0,10.0,0.0,0.0,0.0,10.0,0.0,0.0,0.0,10.0,0.145941227736,0.0721716655411,0.0608532309083,1.0,0.0,0.0,0.0,1.0,0.0,0.0,0.0,1.0,-0.199984130859,0.101788330078,9.83514770508,0.1,0.0,0.0,0.0,0.1,0.0,0.0,0.0,0.1
1452008389702666612,39,1452008389699474096,robocape,12.5464752051,4.16559120901,-13.231421375,0.0,10.0,0.0,0.0,0.0,10.0,0.0,0.0,0.0,10.0,0.179896531635,0.0418116291142,-0.0560595409462,1.0,0.0,0.0,0.0,1.0,0.0,0.0,0.0,1.0,0.107775878906,0.44068359375,9.93334350586,0.1,0.0,0.0,0.0,0.1,0.0,0.0,0.0,0.1
1452008389736777446,40,1452008389733787059,robocape,12.6841814102,4.20863926801,-13.3669980671,0.0,10.0,0.0,0.0,0.0,10.0,0.0,0.0,0.0,10.0,0.0921453737167,0.00958737992429,-0.0896153706812,1.0,0.0,0.0,0.0,1.0,0.0,0.0,0.0,1.0,-0.0383203125,1.05859863281,9.68545898437,0.1,0.0,0.0,0.0,0.1,0.0,0.0,0.0,0.1
1452008389770010696,41,1452008389766911029,robocape,12.5209693916,4.19208048207,-13.4608188243,0.0,10.0,0.0,0.0,0.0,10.0,0.0,0.0,0.0,10.0,-0.0696416625056,-0.016644756813,-0.0589890181453,1.0,0.0,0.0,0.0,1.0,0.0,0.0,0.0,1.0,-0.267044677734,0.839454345703,9.75251953125,0.1,0.0,0.0,0.0,0.1,0.0,0.0,0.0,0.1
1452008389803283321,42,1452008389800265073,robocape,12.0557416411,4.0919381709,-13.5336620099,0.0,10.0,0.0,0.0,0.0,10.0,0.0,0.0,0.0,10.0,-0.231428698728,-0.0573911214912,-0.0364853069341,1.0,0.0,0.0,0.0,1.0,0.0,0.0,0.0,1.0,-0.389190673828,0.684975585938,9.78964233398,0.1,0.0,0.0,0.0,0.1,0.0,0.0,0.0,0.1
1452008389835869446,43,1452008389832808017,robocape,11.5100525964,3.9855403742,-13.6602921809,0.0,10.0,0.0,0.0,0.0,10.0,0.0,0.0,0.0,10.0,-0.272175063406,-0.0661795530885,-0.0637827081074,1.0,0.0,0.0,0.0,1.0,0.0,0.0,0.0,1.0,-0.3065625,-0.265847167969,10.0171691895,0.1,0.0,0.0,0.0,0.1,0.0,0.0,0.0,0.1
1452008389868877946,44,1452008389865622997,robocape,11.1053125373,3.8783175013,-13.7950957395,0.0,10.0,0.0,0.0,0.0,10.0,0.0,0.0,0.0,10.0,-0.197606552884,-0.066845343361,-0.0696416625056,1.0,0.0,0.0,0.0,1.0,0.0,0.0,0.0,1.0,0.276624755859,-0.343685302734,10.1345251465,0.1,0.0,0.0,0.0,0.1,0.0,0.0,0.0,0.1
1452008389902048779,45,1452008389898688077,robocape,10.7073710752,3.79215666354,-13.9002526121,0.0,10.0,0.0,0.0,0.0,10.0,0.0,0.0,0.0,10.0,-0.195609182066,-0.0527305895836,-0.0569916473277,1.0,0.0,0.0,0.0,1.0,0.0,0.0,0.0,1.0,0.380808105469,-0.481398925781,10.233918457,0.1,0.0,0.0,0.0,0.1,0.0,0.0,0.0,0.1
1452008389935470196,46,1452008389932419061,robocape,10.4035769537,3.73274767301,-13.9043266401,0.0,10.0,0.0,0.0,0.0,10.0,0.0,0.0,0.0,10.0,-0.15020228548,-0.0290284558819,-0.00785632521573,1.0,0.0,0.0,0.0,1.0,0.0,0.0,0.0,1.0,0.0934057617188,-0.889749755859,10.2363134766,0.1,0.0,0.0,0.0,0.1,0.0,0.0,0.0,0.1
1452008389968525154,47,1452008389965182065,robocape,10.0641945734,3.71700543655,-13.7146737253,0.0,10.0,0.0,0.0,0.0,10.0,0.0,0.0,0.0,10.0,-0.176967054436,0.0111852765783,0.0893490545722,1.0,0.0,0.0,0.0,1.0,0.0,0.0,0.0,1.0,0.4981640625,-1.23343505859,10.3596569824,0.1,0.0,0.0,0.0,0.1,0.0,0.0,0.0,0.1
1452008390001522488,48,1452008389998450994,robocape,10.0852169696,3.79162471248,-13.4388485337,0.0,10.0,0.0,0.0,0.0,10.0,0.0,0.0,0.0,10.0,0.0099868540878,0.065780078925,0.123970148743,1.0,0.0,0.0,0.0,1.0,0.0,0.0,0.0,1.0,0.530496826172,-1.89805297852,10.4147424316,0.1,0.0,0.0,0.0,0.1,0.0,0.0,0.0,0.1
1452008390034767946,49,1452008390031699895,robocape,10.558655015,3.98701137632,-13.2589227003,0.0,10.0,0.0,0.0,0.0,10.0,0.0,0.0,0.0,10.0,0.253266619667,0.120508039326,0.0595216503633,1.0,0.0,0.0,0.0,1.0,0.0,0.0,0.0,1.0,0.446671142578,-1.12565917969,10.2830163574,0.1,0.0,0.0,0.0,0.1,0.0,0.0,0.0,0.1
1452008390067444654,50,1452008390064265966,robocape,11.2942472592,4.20059421326,-13.183461169,0.0,10.0,0.0,0.0,0.0,10.0,0.0,0.0,0.0,10.0,0.397210476585,0.121040671544,0.000266316109008,1.0,0.0,0.0,0.0,1.0,0.0,0.0,0.0,1.0,0.0730480957031,-0.24908203125,10.0435144043,0.1,0.0,0.0,0.0,0.1,0.0,0.0,0.0,0.1
1452008390100613863,51,1452008390097588062,robocape,11.9322866472,4.36715628542,-13.1141305764,0.0,10.0,0.0,0.0,0.0,10.0,0.0,0.0,0.0,10.0,0.346876731983,0.0965395895154,0.000932106381528,1.0,0.0,0.0,0.0,1.0,0.0,0.0,0.0,1.0,-0.243094482422,0.70892578125,9.94172607422,0.1,0.0,0.0,0.0,0.1,0.0,0.0,0.0,0.1
1452008390134096279,52,1452008390131011962,robocape,12.3412603722,4.48059229927,-13.1199369075,0.0,10.0,0.0,0.0,0.0,10.0,0.0,0.0,0.0,10.0,0.229697644019,0.0611195470173,-0.0316916169719,1.0,0.0,0.0,0.0,1.0,0.0,0.0,0.0,1.0,-0.379610595703,0.853824462891,9.71180419922,0.1,0.0,0.0,0.0,0.1,0.0,0.0,0.0,0.1
1452008390167520279,53,1452008390164449930,robocape,12.4246650404,4.5210138388,-13.09207807,0.0,10.0,0.0,0.0,0.0,10.0,0.0,0.0,0.0,10.0,0.0555269087282,0.0268979270098,-0.00399474163512,1.0,0.0,0.0,0.0,1.0,0.0,0.0,0.0,1.0,-0.259859619141,0.947230224609,9.69623657227,0.1,0.0,0.0,0.0,0.1,0.0,0.0,0.0,0.1
1452008390200479613,54,1452008390197407960,robocape,12.215477069,4.50092519053,-13.0611483636,0.0,10.0,0.0,0.0,0.0,10.0,0.0,0.0,0.0,10.0,-0.100134856987,-0.00426105774413,0.0066579027252,1.0,0.0,0.0,0.0,1.0,0.0,0.0,0.0,1.0,-0.118553466797,0.893342285156,9.71779174805,0.1,0.0,0.0,0.0,0.1,0.0,0.0,0.0,0.1
1452008390234473946,55,1452008390231430053,robocape,11.7446809504,4.40646711085,-13.0716486772,0.0,10.0,0.0,0.0,0.0,10.0,0.0,0.0,0.0,10.0,-0.237420811181,-0.0474042674034,-0.00466053190764,1.0,0.0,0.0,0.0,1.0,0.0,0.0,0.0,1.0,-0.0658630371094,0.705333251953,9.75132202148,0.1,0.0,0.0,0.0,0.1,0.0,0.0,0.0,0.1
1452008390267328738,56,1452008390264143943,robocape,11.208017823,4.29122859668,-13.1230854661,0.0,10.0,0.0,0.0,0.0,10.0,0.0,0.0,0.0,10.0,-0.270843482861,-0.0624511275624,-0.0237021337017,1.0,0.0,0.0,0.0,1.0,0.0,0.0,0.0,1.0,-0.102985839844,-0.15328125,10.0135766602,0.1,0.0,0.0,0.0,0.1,0.0,0.0,0.0,0.1
1452008390300537988,57,1452008390297489881,robocape,10.7992652017,4.19553580246,-13.2065413563,0.0,10.0,0.0,0.0,0.0,10.0,0.0,0.0,0.0,10.0,-0.202000768683,-0.0552605926191,-0.0438089999318,1.0,0.0,0.0,0.0,1.0,0.0,0.0,0.0,1.0,0.129331054688,-0.669407958984,10.1465002441,0.1,0.0,0.0,0.0,0.1,0.0,0.0,0.0,0.1
1452008390333767946,58,1452008390330735921,robocape,10.465811547,4.13289630322,-13.2803887769,0.0,10.0,0.0,0.0,0.0,10.0,0.0,0.0,0.0,10.0,-0.162852300658,-0.0370179391521,-0.0430100516048,1.0,0.0,0.0,0.0,1.0,0.0,0.0,0.0,1.0,0.487386474609,-0.829874267578,10.2387084961,0.1,0.0,0.0,0.0,0.1,0.0,0.0,0.0,0.1
1452008390369988488,59,1452008390366832017,robocape,10.3093409396,4.11352869149,-13.3059280189,0.0,10.0,0.0,0.0,0.0,10.0,0.0,0.0,0.0,10.0,-0.0715058752686,-0.00985369603329,-0.0233026595382,1.0,0.0,0.0,0.0,1.0,0.0,0.0,0.0,1.0,0.223934326172,-0.992735595703,10.2506835938,0.1,0.0,0.0,0.0,0.1,0.0,0.0,0.0,0.1
1452008390401674488,60,1452008390398602008,robocape,10.3103895334,4.14417430425,-13.2744736865,0.0,10.0,0.0,0.0,0.0,10.0,0.0,0.0,0.0,10.0,0.00932106381528,0.0214384467751,0.00066579027252,1.0,0.0,0.0,0.0,1.0,0.0,0.0,0.0,1.0,0.405955810547,-0.959205322266,10.2446960449,0.1,0.0,0.0,0.0,0.1,0.0,0.0,0.0,0.1
1452008390434295446,61,1452008390431313991,robocape,10.471109086,4.2202217754,-13.2028912417,0.0,10.0,0.0,0.0,0.0,10.0,0.0,0.0,0.0,10.0,0.0921453737167,0.048869006003,0.0162452826495,1.0,0.0,0.0,0.0,1.0,0.0,0.0,0.0,1.0,0.190404052734,-0.743653564453,10.1955981445,0.1,0.0,0.0,0.0,0.1,0.0,0.0,0.0,0.1
1452008390467228946,62,1452008390464240074,robocape,10.7234339535,4.3248032842,-13.1199273894,0.0,10.0,0.0,0.0,0.0,10.0,0.0,0.0,0.0,10.0,0.140348589447,0.0649811305979,0.0186421276306,1.0,0.0,0.0,0.0,1.0,0.0,0.0,0.0,1.0,0.171243896484,-0.360450439453,10.0770446777,0.1,0.0,0.0,0.0,0.1,0.0,0.0,0.0,0.1
1452008390500549071,63,1452008390497565031,robocape,10.9581523653,4.42186128099,-13.0403782772,0.0,10.0,0.0,0.0,0.0,10.0,0.0,0.0,0.0,10.0,0.131426999795,0.0609863889628,0.01744370514,1.0,0.0,0.0,0.0,1.0,0.0,0.0,0.0,1.0,0.0538879394531,-0.105380859375,10.0027990723,0.1,0.0,0.0,0.0,0.1,0.0,0.0,0.0,0.1
1452008390533854238,64,1452008390530867099,robocape,11.1228546441,4.49771025725,-12.9698003446,0.0,10.0,0.0,0.0,0.0,10.0,0.0,0.0,0.0,10.0,0.0949416928613,0.0492684801665,0.0151800182135,1.0,0.0,0.0,0.0,1.0,0.0,0.0,0.0,1.0,-0.0706530761719,0.122145996094,9.95250366211,0.1,0.0,0.0,0.0,0.1,0.0,0.0,0.0,0.1
1452008390567244571,65,1452008390564213991,robocape,11.1830852459,4.54564911758,-12.9136073419,0.0,10.0,0.0,0.0,0.0,10.0,0.0,0.0,0.0,10.0,0.0403468905147,0.0334226716805,0.0111852765783,1.0,0.0,0.0,0.0,1.0,0.0,0.0,0.0,1.0,-0.0802331542969,0.223934326172,9.90819580078,0.1,0.0,0.0,0.0,0.1,0.0,0.0,0.0,0.1
1452008390600342405,66,1452008390597337961,robocape,11.1288779064,4.56179535987,-12.8734476973,0.0,10.0,0.0,0.0,0.0,10.0,0.0,0.0,0.0,10.0,-0.0195742340121,0.015313176268,0.00692421883421,1.0,0.0,0.0,0.0,1.0,0.0,0.0,0.0,1.0,-0.0826281738281,0.166453857422,9.93454101563,0.1,0.0,0.0,0.0,0.1,0.0,0.0,0.0,0.1
1452008390633696780,67,1452008390630687952,robocape,10.9829691804,4.55447368386,-12.8440716332,0.0,10.0,0.0,0.0,0.0,10.0,0.0,0.0,0.0,10.0,-0.0677774497425,0.00199737081756,0.00439421579863,1.0,0.0,0.0,0.0,1.0,0.0,0.0,0.0,1.0,-0.0371228027344,0.00598754882813,9.98962646484,0.1,0.0,0.0,0.0,0.1,0.0,0.0,0.0,0.1
1452008390667033363,68,1452008390664045095,robocape,10.790000105,4.52991334063,-12.8220655337,0.0,10.0,0.0,0.0,0.0,10.0,0.0,0.0,0.0,10.0,-0.0925448478803,-0.00772316716123,0.00266316109008,1.0,0.0,0.0,0.0,1.0,0.0,0.0,0.0,1.0,0.0778381347656,-0.174836425781,10.0495019531,0.1,0.0,0.0,0.0,0.1,0.0,0.0,0.0,0.1
1452008390700484946,69,1452008390697386026,robocape,10.6206954058,4.51089500797,-12.8033606393,0.0,10.0,0.0,0.0,0.0,10.0,0.0,0.0,0.0,10.0,-0.0800279907569,-0.00519316412565,0.000266316109008,1.0,0.0,0.0,0.0,1.0,0.0,0.0,0.0,1.0,0.154478759766,-0.433498535156,9.96567626953,0.1,0.0,0.0,0.0,0.1,0.0,0.0,0.0,0.1
1452008390733976238,70,1452008390730895042,robocape,10.5229156302,4.51313893247,-12.7719288618,0.0,10.0,0.0,0.0,0.0,10.0,0.0,0.0,0.0,10.0,-0.0428768935503,0.00705737688871,0.00439421579863,1.0,0.0,0.0,0.0,1.0,0.0,0.0,0.0,1.0,0.182021484375,-0.597557373047,10.132130127,0.1,0.0,0.0,0.0,0.1,0.0,0.0,0.0,0.1
1452008390767279113,71,1452008390764177083,robocape,10.5196138341,4.54309719176,-12.7284137948,0.0,10.0,0.0,0.0,0.0,10.0,0.0,0.0,0.0,10.0,0.00652474467069,0.0226368692657,0.00745685105222,1.0,0.0,0.0,0.0,1.0,0.0,0.0,0.0,1.0,0.219144287109,-0.599952392578,10.1393151855,0.1,0.0,0.0,0.0,0.1,0.0,0.0,0.0,0.1
1452008390800595780,72,1452008390797420024,robocape,10.5981370006,4.6030673534,-12.6773089727,0.0,10.0,0.0,0.0,0.0,10.0,0.0,0.0,0.0,10.0,0.0495347962755,0.0390153099697,0.00798948327024,1.0,0.0,0.0,0.0,1.0,0.0,0.0,0.0,1.0,-0.150886230469,-0.583187255859,10.1668579102,0.1,0.0,0.0,0.0,0.1,0.0,0.0,0.0,0.1
1452008390834016363,73,1452008390830699920,robocape,10.6994941602,4.65907738029,-12.6228067327,0.0,10.0,0.0,0.0,0.0,10.0,0.0,0.0,0.0,10.0,0.0615190211808,0.0374174133156,0.0099868540878,1.0,0.0,0.0,0.0,1.0,0.0,0.0,0.0,1.0,0.245489501953,-0.229921875,10.1249450684,0.1,0.0,0.0,0.0,0.1,0.0,0.0,0.0,0.1
1452008390867806738,74,1452008390864124059,robocape,10.7759943951,4.71096837893,-12.5744348893,0.0,10.0,0.0,0.0,0.0,10.0,0.0,0.0,0.0,10.0,0.0487358479485,0.0347542522255,0.00732369299772,1.0,0.0,0.0,0.0,1.0,0.0,0.0,0.0,1.0,-0.028740234375,-0.209564208984,10.0938098145,0.1,0.0,0.0,0.0,0.1,0.0,0.0,0.0,0.1
1452008390900717280,75,1452008390897352933,robocape,10.8195081638,4.75174049936,-12.515017363,0.0,10.0,0.0,0.0,0.0,10.0,0.0,0.0,0.0,10.0,0.0307595105904,0.0300937203179,0.0143810698864,1.0,0.0,0.0,0.0,1.0,0.0,0.0,0.0,1.0,0.0946032714844,-0.0730480957031,10.0351318359,0.1,0.0,0.0,0.0,0.1,0.0,0.0,0.0,0.1
1452008390933974905,76,1452008390930809020,robocape,10.8110669467,4.77894127163,-12.4737577694,0.0,10.0,0.0,0.0,0.0,10.0,0.0,0.0,0.0,10.0,0.00412789968962,0.0213052887206,0.0066579027252,1.0,0.0,0.0,0.0,1.0,0.0,0.0,0.0,1.0,0.0419128417969,-0.120948486328,10.0099841309,0.1,0.0,0.0,0.0,0.1,0.0,0.0,0.0,0.1
1452008390967412113,77,1452008390964059114,robocape,10.7723662721,4.79651330033,-12.431739375,0.0,10.0,0.0,0.0,0.0,10.0,0.0,0.0,0.0,10.0,-0.0119842249054,0.016378440704,0.00825579937925,1.0,0.0,0.0,0.0,1.0,0.0,0.0,0.0,1.0,0.0107775878906,-0.167651367188,10.0447119141,0.1,0.0,0.0,0.0,0.1,0.0,0.0,0.0,0.1
1452008391000563946,78,1452008390997471094,robocape,10.7031010861,4.80926565991,-12.3952167263,0.0,10.0,0.0,0.0,0.0,10.0,0.0,0.0,0.0,10.0,-0.0279631914458,0.0133158054504,0.00612527050718,1.0,0.0,0.0,0.0,1.0,0.0,0.0,0.0,1.0,0.1149609375,-0.132923583984,10.0471069336,0.1,0.0,0.0,0.0,0.1,0.0,0.0,0.0,0.1
1452008391033858238,79,1452008391030816078,robocape,10.6275235728,4.81229436071,-12.3477055238,0.0,10.0,0.0,0.0,0.0,10.0,0.0,0.0,0.0,10.0,-0.031957933081,0.00932106381528,0.0129163312869,1.0,0.0,0.0,0.0,1.0,0.0,0.0,0.0,1.0,-0.0275427246094,-0.124541015625,9.90939331055,0.1,0.0,0.0,0.0,0.1,0.0,0.0,0.0,0.1
1452008391067375321,80,1452008391064202070,robocape,10.5097718657,4.80730909871,-12.3202467365,0.0,10.0,0.0,0.0,0.0,10.0,0.0,0.0,0.0,10.0,-0.0533963798561,0.0031957933081,0.00359526747161,1.0,0.0,0.0,0.0,1.0,0.0,0.0,0.0,1.0,0.0874182128906,-0.154478759766,9.93094848633,0.1,0.0,0.0,0.0,0.1,0.0,0.0,0.0,0.1
1452008391101007988,81,1452008391097910881,robocape,10.3647831236,4.8091862459,-12.3144010806,0.0,10.0,0.0,0.0,0.0,10.0,0.0,0.0,0.0,10.0,-0.066845343361,0.00466053190764,-0.00812264132474,1.0,0.0,0.0,0.0,1.0,0.0,0.0,0.0,1.0,0.222736816406,-0.373623046875,10.249486084,0.1,0.0,0.0,0.0,0.1,0.0,0.0,0.0,0.1
1452008391134083696,82,1452008391131001949,robocape,10.3133916837,4.82405849165,-12.2732205338,0.0,10.0,0.0,0.0,0.0,10.0,0.0,0.0,0.0,10.0,-0.0191747598486,0.0147805440499,0.00852211548825,1.0,0.0,0.0,0.0,1.0,0.0,0.0,0.0,1.0,-0.09580078125,-0.586779785156,10.2039807129,0.1,0.0,0.0,0.0,0.1,0.0,0.0,0.0,0.1
1452008391168589405,83,1452008391165560007,robocape,10.3355086503,4.86357683775,-12.2344450709,0.0,10.0,0.0,0.0,0.0,10.0,0.0,0.0,0.0,10.0,0.0198405501211,0.0274305592278,0.00452737385313,1.0,0.0,0.0,0.0,1.0,0.0,0.0,0.0,1.0,0.263452148438,-0.513731689453,10.1680554199,0.1,0.0,0.0,0.0,0.1,0.0,0.0,0.0,0.1
1452008391202017113,84,1452008391198987007,robocape,10.4243835532,4.91820041727,-12.1752576153,0.0,10.0,0.0,0.0,0.0,10.0,0.0,0.0,0.0,10.0,0.0541953281831,0.0372842552611,0.0133158054504,1.0,0.0,0.0,0.0,1.0,0.0,0.0,0.0,1.0,0.0395178222656,-0.546064453125,10.0866247559,0.1,0.0,0.0,0.0,0.1,0.0,0.0,0.0,0.1
1452008391235667488,85,1452008391232542037,robocape,10.5435729083,4.98221353338,-12.1154415718,0.0,10.0,0.0,0.0,0.0,10.0,0.0,0.0,0.0,10.0,0.0703074527781,0.0423442613323,0.0125168571234,1.0,0.0,0.0,0.0,1.0,0.0,0.0,0.0,1.0,0.182021484375,-0.204774169922,10.0447119141,0.1,0.0,0.0,0.0,0.1,0.0,0.0,0.0,0.1
1452008391268545863,86,1452008391265366077,robocape,10.5950187733,5.02233932823,-11.9778621843,0.0,10.0,0.0,0.0,0.0,10.0,0.0,0.0,0.0,10.0,0.0304931944814,0.0372842552611,0.0556600667827,1.0,0.0,0.0,0.0,1.0,0.0,0.0,0.0,1.0,-0.0646655273438,0.0634680175781,9.99202148437,0.1,0.0,0.0,0.0,0.1,0.0,0.0,0.0,0.1
1452008391302407780,87,1452008391298959970,robocape,10.4077006368,5.03896877969,-11.7151166029,0.0,10.0,0.0,0.0,0.0,10.0,0.0,0.0,0.0,10.0,-0.102398543914,0.0363521488796,0.124502780961,1.0,0.0,0.0,0.0,1.0,0.0,0.0,0.0,1.0,0.170046386719,-0.320932617188,9.98483642578,0.1,0.0,0.0,0.0,0.1,0.0,0.0,0.0,0.1
1452008391334276988,88,1452008391331233978,robocape,10.3961850338,5.09578841452,-11.5184100087,0.0,10.0,0.0,0.0,0.0,10.0,0.0,0.0,0.0,10.0,-0.00612527050718,0.0511326929295,0.085620629046,1.0,0.0,0.0,0.0,1.0,0.0,0.0,0.0,1.0,0.275427246094,-0.719703369141,10.1584753418,0.1,0.0,0.0,0.0,0.1,0.0,0.0,0.0,0.1
1452008391369062655,89,1452008391365859031,robocape,10.5565751398,5.18471990852,-11.3579482936,0.0,10.0,0.0,0.0,0.0,10.0,0.0,0.0,0.0,10.0,0.0866858934821,0.0648479725434,0.0628506017259,1.0,0.0,0.0,0.0,1.0,0.0,0.0,0.0,1.0,0.208366699219,-0.710123291016,10.132130127,0.1,0.0,0.0,0.0,0.1,0.0,0.0,0.0,0.1
1452008391402076280,90,1452008391399008035,robocape,10.8227988397,5.29532680574,-11.2358476021,0.0,10.0,0.0,0.0,0.0,10.0,0.0,0.0,0.0,10.0,0.1448759633,0.0729706138682,0.0400805744057,1.0,0.0,0.0,0.0,1.0,0.0,0.0,0.0,1.0,0.0562829589844,-0.118553466797,10.0255517578,0.1,0.0,0.0,0.0,0.1,0.0,0.0,0.0,0.1
1452008391440942780,91,1452008391436902999,robocape,11.1093836228,5.39812026877,-11.1709778438,0.0,10.0,0.0,0.0,0.0,10.0,0.0,0.0,0.0,10.0,0.158990717078,0.0637827081074,0.0107858024148,1.0,0.0,0.0,0.0,1.0,0.0,0.0,0.0,1.0,-0.0167651367188,-0.0598754882813,9.96208374023,0.1,0.0,0.0,0.0,0.1,0.0,0.0,0.0,0.1
1452008391468543322,92,1452008391465001106,robocape,11.309118863,5.47484832664,-11.1199374112,0.0,10.0,0.0,0.0,0.0,10.0,0.0,0.0,0.0,10.0,0.113983294655,0.0490021640575,0.00652474467069,1.0,0.0,0.0,0.0,1.0,0.0,0.0,0.0,1.0,0.00119750976563,0.1149609375,9.94771362305,0.1,0.0,0.0,0.0,0.1,0.0,0.0,0.0,0.1
1452008391501523363,93,1452008391498440027,robocape,11.5617340748,5.54267621437,-11.1825112065,0.0,10.0,0.0,0.0,0.0,10.0,0.0,0.0,0.0,10.0,0.148604388826,0.0331563555715,-0.051798483202,1.0,0.0,0.0,0.0,1.0,0.0,0.0,0.0,1.0,-0.0275427246094,0.0347277832031,9.81958007812,0.1,0.0,0.0,0.0,0.1,0.0,0.0,0.0,0.1
1452008391537411155,94,1452008391532134056,robocape,11.5919788719,5.55940677011,-11.2549353445,0.0,10.0,0.0,0.0,0.0,10.0,0.0,0.0,0.0,10.0,0.0314253008629,0.00532632218016,-0.0503337446025,1.0,0.0,0.0,0.0,1.0,0.0,0.0,0.0,1.0,-0.379610595703,0.567619628906,9.7752722168,0.1,0.0,0.0,0.0,0.1,0.0,0.0,0.0,0.1
1452008391571743238,95,1452008391568656921,robocape,11.4450818157,5.53383444294,-11.3845853154,0.0,10.0,0.0,0.0,0.0,10.0,0.0,0.0,0.0,10.0,-0.0593884923088,-0.0226368692657,-0.0744353524677,1.0,0.0,0.0,0.0,1.0,0.0,0.0,0.0,1.0,-0.0347277832031,0.505349121094,9.83155517578,0.1,0.0,0.0,0.0,0.1,0.0,0.0,0.0,0.1
1452008391604710780,96,1452008391601577997,robocape,11.0868644621,5.45990433717,-11.4588750592,0.0,10.0,0.0,0.0,0.0,10.0,0.0,0.0,0.0,10.0,-0.174836525564,-0.0422111032778,-0.0396811002422,1.0,0.0,0.0,0.0,1.0,0.0,0.0,0.0,1.0,-0.177231445313,0.0754431152344,9.93334350586,0.1,0.0,0.0,0.0,0.1,0.0,0.0,0.0,0.1
1452008391637935363,97,1452008391634826898,robocape,10.675146362,5.36437037613,-11.501102775,0.0,10.0,0.0,0.0,0.0,10.0,0.0,0.0,0.0,10.0,-0.205329720045,-0.050200586548,-0.0209058145571,1.0,0.0,0.0,0.0,1.0,0.0,0.0,0.0,1.0,0.0131726074219,-0.120948486328,10.0459094238,0.1,0.0,0.0,0.0,0.1,0.0,0.0,0.0,0.1
1452008391670881863,98,1452008391667623043,robocape,10.2597341787,5.27809718376,-11.5408297737,0.0,10.0,0.0,0.0,0.0,10.0,0.0,0.0,0.0,10.0,-0.207726565026,-0.0451405804768,-0.0209058145571,1.0,0.0,0.0,0.0,1.0,0.0,0.0,0.0,1.0,0.413140869141,-0.55564453125,10.1393151855,0.1,0.0,0.0,0.0,0.1,0.0,0.0,0.0,0.1
1452008391704446738,99,1452008391700143098,robocape,9.98082267575,5.23668579168,-11.5263090589,0.0,10.0,0.0,0.0,0.0,10.0,0.0,0.0,0.0,10.0,-0.138617534739,-0.0167779148675,0.00199737081756,1.0,0.0,0.0,0.0,1.0,0.0,0.0,0.0,1.0,0.162861328125,-0.850231933594,10.3991748047,0.1,0.0,0.0,0.0,0.1,0.0,0.0,0.0,0.1
1452008391737804155,100,1452008391734462022,robocape,9.73025395163,5.25813732671,-11.3658201763,0.0,10.0,0.0,0.0,0.0,10.0,0.0,0.0,0.0,10.0,-0.131426999795,0.0284958236638,0.0719053494321,1.0,0.0,0.0,0.0,1.0,0.0,0.0,0.0,1.0,0.465831298828,-1.50407226563,10.366842041,0.1,0.0,0.0,0.0,0.1,0.0,0.0,0.0,0.1
1452008391772007072,101,1452008391768541097,robocape,9.88931431897,5.35885688276,-11.189334997,0.0,10.0,0.0,0.0,0.0,10.0,0.0,0.0,0.0,10.0,0.0841558904465,0.0716390333231,0.0711064011051,1.0,0.0,0.0,0.0,1.0,0.0,0.0,0.0,1.0,0.477806396484,-1.45736938477,10.362052002,0.1,0.0,0.0,0.0,0.1,0.0,0.0,0.0,0.1
1452008391805066447,102,1452008391801546096,robocape,10.3279992023,5.51887846051,-10.983786961,0.0,10.0,0.0,0.0,0.0,10.0,0.0,0.0,0.0,10.0,0.230629750401,0.105993811385,0.0789627263208,1.0,0.0,0.0,0.0,1.0,0.0,0.0,0.0,1.0,0.214354248047,-0.688568115234,10.2003881836,0.1,0.0,0.0,0.0,0.1,0.0,0.0,0.0,0.1
1452008391838003613,103,1452008391834439992,robocape,10.7317445604,5.67871490061,-10.6872374371,0.0,10.0,0.0,0.0,0.0,10.0,0.0,0.0,0.0,10.0,0.207327090863,0.115181717146,0.125568045397,1.0,0.0,0.0,0.0,1.0,0.0,0.0,0.0,1.0,0.0969982910156,-0.246687011719,10.0363293457,0.1,0.0,0.0,0.0,0.1,0.0,0.0,0.0,0.1
1452008391870909530,104,1452008391867535114,robocape,11.0230765451,5.81964335924,-10.3250988879,0.0,10.0,0.0,0.0,0.0,10.0,0.0,0.0,0.0,10.0,0.144077014973,0.112518556056,0.161387562059,1.0,0.0,0.0,0.0,1.0,0.0,0.0,0.0,1.0,-0.00239501953125,-0.0754431152344,9.97645385742,0.1,0.0,0.0,0.0,0.1,0.0,0.0,0.0,0.1
1452008391904358947,105,1452008391901170969,robocape,11.3785366962,5.95653143342,-10.0610346982,0.0,10.0,0.0,0.0,0.0,10.0,0.0,0.0,0.0,10.0,0.183758115215,0.10199906975,0.110388027184,1.0,0.0,0.0,0.0,1.0,0.0,0.0,0.0,1.0,0.0443078613281,-0.185614013672,9.97645385742,0.1,0.0,0.0,0.0,0.1,0.0,0.0,0.0,0.1
1452008391937434447,106,1452008391934259891,robocape,11.7203630904,6.0659111178,-9.86229805184,0.0,10.0,0.0,0.0,0.0,10.0,0.0,0.0,0.0,10.0,0.180562321907,0.0820253615744,0.0792290424299,1.0,0.0,0.0,0.0,1.0,0.0,0.0,0.0,1.0,0.0119750976563,0.519719238281,9.9249609375,0.1,0.0,0.0,0.0,0.1,0.0,0.0,0.0,0.1
1452008391970043030,107,1452008391966639041,robocape,11.8578334813,6.13427819208,-9.65519697242,0.0,10.0,0.0,0.0,0.0,10.0,0.0,0.0,0.0,10.0,0.0717721913776,0.0617853372898,0.0888164223541,1.0,0.0,0.0,0.0,1.0,0.0,0.0,0.0,1.0,-0.347277832031,0.380808105469,9.81479003906,0.1,0.0,0.0,0.0,0.1,0.0,0.0,0.0,0.1
1452008392004041072,108,1452008392000971078,robocape,11.7918667953,6.15927041902,-9.47279520944,0.0,10.0,0.0,0.0,0.0,10.0,0.0,0.0,0.0,10.0,-0.0347542522255,0.0364853069341,0.0820253615744,1.0,0.0,0.0,0.0,1.0,0.0,0.0,0.0,1.0,-0.0359252929688,0.387993164063,9.82796264648,0.1,0.0,0.0,0.0,0.1,0.0,0.0,0.0,0.1
1452008392036424280,109,1452008392033303976,robocape,11.7370072557,6.18753389683,-9.38288922627,0.0,10.0,0.0,0.0,0.0,10.0,0.0,0.0,0.0,10.0,-0.0233026595382,0.0284958236638,0.0342216200075,1.0,0.0,0.0,0.0,1.0,0.0,0.0,0.0,1.0,0.164058837891,-0.0598754882813,9.99082397461,0.1,0.0,0.0,0.0,0.1,0.0,0.0,0.0,0.1
1452008392069312489,110,1452008392066243886,robocape,11.7299155992,6.21524977353,-9.31328965349,0.0,10.0,0.0,0.0,0.0,10.0,0.0,0.0,0.0,10.0,0.0031957933081,0.0262321367373,0.0237021337017,1.0,0.0,0.0,0.0,1.0,0.0,0.0,0.0,1.0,-0.0323327636719,-0.377215576172,10.0435144043,0.1,0.0,0.0,0.0,0.1,0.0,0.0,0.0,0.1
1452008392103522572,111,1452008392100472927,robocape,11.7111678624,6.24599068395,-9.23423135466,0.0,10.0,0.0,0.0,0.0,10.0,0.0,0.0,0.0,10.0,-0.00359526747161,0.0287621397729,0.0283626656093,1.0,0.0,0.0,0.0,1.0,0.0,0.0,0.0,1.0,-0.135318603516,0.131726074219,9.95849121094,0.1,0.0,0.0,0.0,0.1,0.0,0.0,0.0,0.1
1452008392136838864,112,1452008392133806943,robocape,11.6663786624,6.271602639,-9.14709577536,0.0,10.0,0.0,0.0,0.0,10.0,0.0,0.0,0.0,10.0,-0.017976337358,0.0268979270098,0.033289513626,1.0,0.0,0.0,0.0,1.0,0.0,0.0,0.0,1.0,-0.205971679688,-0.0431103515625,9.94292358398,0.1,0.0,0.0,0.0,0.1,0.0,0.0,0.0,0.1
1452008392170169780,113,1452008392167172908,robocape,11.6015703906,6.31656354494,-9.07464650538,0.0,10.0,0.0,0.0,0.0,10.0,0.0,0.0,0.0,10.0,-0.0276968753368,0.0352868844435,0.0238352917562,1.0,0.0,0.0,0.0,1.0,0.0,0.0,0.0,1.0,-1.20349731445,-0.457448730469,10.0890197754,0.1,0.0,0.0,0.0,0.1,0.0,0.0,0.0,0.1
1452008392202562030,114,1452008392199455022,robocape,11.5858861951,6.33549824096,-9.01439160095,0.0,10.0,0.0,0.0,0.0,10.0,0.0,0.0,0.0,10.0,-0.00106526443603,0.0207726565026,0.0202400242846,1.0,0.0,0.0,0.0,1.0,0.0,0.0,0.0,1.0,-1.94236083984,-0.495769042969,10.100994873,0.1,0.0,0.0,0.0,0.1,0.0,0.0,0.0,0.1
1452008392236313239,115,1452008392233263969,robocape,11.5493984878,6.35502576929,-8.90332922315,0.0,10.0,0.0,0.0,0.0,10.0,0.0,0.0,0.0,10.0,-0.015313176268,0.0262321367373,0.0464721610219,1.0,0.0,0.0,0.0,1.0,0.0,0.0,0.0,1.0,-1.92439819336,-0.367635498047,10.3045715332,0.1,0.0,0.0,0.0,0.1,0.0,0.0,0.0,0.1
1452008392268253822,116,1452008392265249013,robocape,11.4647840561,6.35536218046,-8.7850420545,0.0,10.0,0.0,0.0,0.0,10.0,0.0,0.0,0.0,10.0,-0.0414121549507,0.016911072922,0.0525974315291,1.0,0.0,0.0,0.0,1.0,0.0,0.0,0.0,1.0,-2.51477050781,-0.693358154297,10.0734521484,0.1,0.0,0.0,0.0,0.1,0.0,0.0,0.0,0.1
1452008392301846322,117,1452008392298748970,robocape,11.4631241968,6.27536616895,-8.60946878772,0.0,10.0,0.0,0.0,0.0,10.0,0.0,0.0,0.0,10.0,-0.00133158054504,-0.0185089695761,0.0904143190082,1.0,0.0,0.0,0.0,1.0,0.0,0.0,0.0,1.0,-0.995130615234,-0.529299316406,9.95370117188,0.1,0.0,0.0,0.0,0.1,0.0,0.0,0.0,0.1
1452008392335135072,118,1452008392332061052,robocape,11.5488836338,6.74661297371,-7.99306361287,0.0,10.0,0.0,0.0,0.0,10.0,0.0,0.0,0.0,10.0,0.0183758115215,0.310790899212,0.257660835465,1.0,0.0,0.0,0.0,1.0,0.0,0.0,0.0,1.0,0.872984619141,-0.573607177734,8.29754516602,0.1,0.0,0.0,0.0,0.1,0.0,0.0,0.0,0.1
1452008392369772864,119,1452008392366712093,robocape,10.9134380651,7.07179800751,-8.25126639542,0.0,10.0,0.0,0.0,0.0,10.0,0.0,0.0,0.0,10.0,-0.307595105904,0.145674911627,-0.17177389031,1.0,0.0,0.0,0.0,1.0,0.0,0.0,0.0,1.0,-0.380808105469,-3.01053955078,10.2231408691,0.1,0.0,0.0,0.0,0.1,0.0,0.0,0.0,0.1
1452008392402792614,120,1452008392399720907,robocape,10.7689284991,7.07813070041,-7.76853504718,0.0,10.0,0.0,0.0,0.0,10.0,0.0,0.0,0.0,10.0,-0.0994690667145,0.0545948023466,0.240217130325,1.0,0.0,0.0,0.0,1.0,0.0,0.0,0.0,1.0,-2.78061767578,0.276624755859,10.9859545898,0.1,0.0,0.0,0.0,0.1,0.0,0.0,0.0,0.1
1452008392434980072,121,1452008392431699037,robocape,10.5461752449,7.05243116461,-7.45200124143,0.0,10.0,0.0,0.0,0.0,10.0,0.0,0.0,0.0,10.0,-0.129695945087,0.0214384467751,0.158724400969,1.0,0.0,0.0,0.0,1.0,0.0,0.0,0.0,1.0,-4.3337878418,-0.647852783203,9.22801025391,0.1,0.0,0.0,0.0,0.1,0.0,0.0,0.0,0.1
1452008392467479197,122,1452008392464242935,robocape,9.95133791108,7.01019628871,-6.93980198862,0.0,10.0,0.0,0.0,0.0,10.0,0.0,0.0,0.0,10.0,-0.339819355094,0.0283626656093,0.262587683482,1.0,0.0,0.0,0.0,1.0,0.0,0.0,0.0,1.0,-4.68825073242,0.179626464844,9.63875610352,0.1,0.0,0.0,0.0,0.1,0.0,0.0,0.0,0.1
1452008392501433197,123,1452008392497529029,robocape,8.76671263971,6.89146552377,-6.5143111351,0.0,10.0,0.0,0.0,0.0,10.0,0.0,0.0,0.0,10.0,-0.645417090181,-0.0241016078652,0.226901324875,1.0,0.0,0.0,0.0,1.0,0.0,0.0,0.0,1.0,-3.17459838867,0.179626464844,9.98363891602,0.1,0.0,0.0,0.0,0.1,0.0,0.0,0.0,0.1
1452008392534147489,124,1452008392531099081,robocape,7.86437910353,6.71170933367,-6.5826655402,0.0,10.0,0.0,0.0,0.0,10.0,0.0,0.0,0.0,10.0,-0.464322136055,-0.0953411670248,-0.0249005561922,1.0,0.0,0.0,0.0,1.0,0.0,0.0,0.0,1.0,1.37713623047,1.73998168945,12.6959985352,0.1,0.0,0.0,0.0,0.1,0.0,0.0,0.0,0.1
1452008392567696739,125,1452008392564165115,robocape,5.74425268966,6.65200674711,-6.33770216127,0.0,10.0,0.0,0.0,0.0,10.0,0.0,0.0,0.0,10.0,-1.12491924445,-0.0157126504315,0.129962261196,1.0,0.0,0.0,0.0,1.0,0.0,0.0,0.0,1.0,-0.556842041016,0.215551757813,9.77287719727,0.1,0.0,0.0,0.0,0.1,0.0,0.0,0.0,0.1
1452008392600426197,126,1452008392597414016,robocape,3.16898672119,5.67336016276,-5.43761011172,0.0,10.0,0.0,0.0,0.0,10.0,0.0,0.0,0.0,10.0,-1.40042325922,-0.476439519015,0.509063242369,1.0,0.0,0.0,0.0,1.0,0.0,0.0,0.0,1.0,-1.02866088867,0.439486083984,7.76345581055,0.1,0.0,0.0,0.0,0.1,0.0,0.0,0.0,0.1
1452008392633773864,127,1452008392630774021,robocape,-0.681357138586,5.24808985407,-5.2886978615,0.0,10.0,0.0,0.0,0.0,10.0,0.0,0.0,0.0,10.0,-2.02426874457,-0.220509738259,0.0818922035199,1.0,0.0,0.0,0.0,1.0,0.0,0.0,0.0,1.0,-2.55548583984,0.293389892578,7.8137512207,0.1,0.0,0.0,0.0,0.1,0.0,0.0,0.0,0.1
1452008392667582989,128,1452008392664253950,robocape,-5.50830513675,4.05857924843,-4.39007429721,0.0,10.0,0.0,0.0,0.0,10.0,0.0,0.0,0.0,10.0,-2.56928466165,-0.646216038508,0.433296309356,1.0,0.0,0.0,0.0,1.0,0.0,0.0,0.0,1.0,-0.482596435547,0.621507568359,7.00303710938,0.1,0.0,0.0,0.0,0.1,0.0,0.0,0.0,0.1
1452008392701265239,129,1452008392698160886,robocape,-12.701334075,2.80752082129,-2.44164681286,0.0,10.0,0.0,0.0,0.0,10.0,0.0,0.0,0.0,10.0,-3.85505883594,-0.804807281422,0.899482658174,1.0,0.0,0.0,0.0,1.0,0.0,0.0,0.0,1.0,2.04893920898,1.48970214844,5.9743762207,0.1,0.0,0.0,0.0,0.1,0.0,0.0,0.0,0.1
1452008392734250614,130,1452008392731173992,robocape,-20.7853315071,1.41569966488,-1.13417547182,0.0,10.0,0.0,0.0,0.0,10.0,0.0,0.0,0.0,10.0,-4.36332312999,-0.890827384632,0.440353686245,1.0,0.0,0.0,0.0,1.0,0.0,0.0,0.0,1.0,-0.209564208984,0.635877685547,3.96375732422,0.1,0.0,0.0,0.0,0.1,0.0,0.0,0.0,0.1
1452008392767708406,131,1452008392764384984,robocape,-27.2146024105,-0.578231815718,-6.98759250037,0.0,10.0,0.0,0.0,0.0,10.0,0.0,0.0,0.0,10.0,-3.53081897323,0.309059844504,-3.27954972438,1.0,0.0,0.0,0.0,1.0,0.0,0.0,0.0,1.0,10.8638085938,-19.62,19.6194012451,0.1,0.0,0.0,0.0,0.1,0.0,0.0,0.0,0.1
1452008392800842197,132,1452008392797799110,robocape,-24.9101198211,-3.53639625263,-10.5209862153,0.0,10.0,0.0,0.0,0.0,10.0,0.0,0.0,0.0,10.0,1.1382350499,-0.578971220983,-2.34398123343,1.0,0.0,0.0,0.0,1.0,0.0,0.0,0.0,1.0,10.9153015137,-9.9668737793,10.7548352051,0.1,0.0,0.0,0.0,0.1,0.0,0.0,0.0,0.1
1452008392834026572,133,1452008392830985069,robocape,-23.977538903,-2.49823190446,-13.0563101264,0.0,10.0,0.0,0.0,0.0,10.0,0.0,0.0,0.0,10.0,0.389087835261,1.04449177953,-0.997753302398,1.0,0.0,0.0,0.0,1.0,0.0,0.0,0.0,1.0,4.45952636719,-7.8520715332,7.64729736328,0.1,0.0,0.0,0.0,0.1,0.0,0.0,0.0,0.1
1452008392867938239,134,1452008392864715099,robocape,-22.6023886784,-0.880836931221,-13.2814462816,0.0,10.0,0.0,0.0,0.0,10.0,0.0,0.0,0.0,10.0,0.723847184284,0.823982041271,0.230762908455,1.0,0.0,0.0,0.0,1.0,0.0,0.0,0.0,1.0,3.69671264648,-6.07616455078,8.04247558594,0.1,0.0,0.0,0.0,0.1,0.0,0.0,0.0,0.1
1452008392900601614,135,1452008392897602081,robocape,-21.8258058677,-0.44160990853,-14.51667228,0.0,10.0,0.0,0.0,0.0,10.0,0.0,0.0,0.0,10.0,0.374973081483,0.46032739442,-0.527572211945,1.0,0.0,0.0,0.0,1.0,0.0,0.0,0.0,1.0,-2.72553222656,-0.461041259766,11.9307897949,0.1,0.0,0.0,0.0,0.1,0.0,0.0,0.0,0.1
1452008392933816906,136,1452008392930826902,robocape,-22.2360611227,-0.687462029086,-15.6124243478,0.0,10.0,0.0,0.0,0.0,10.0,0.0,0.0,0.0,10.0,-0.270976640916,0.101599595587,-0.615456527917,1.0,0.0,0.0,0.0,1.0,0.0,0.0,0.0,1.0,-0.164058837891,-2.75067993164,11.0853479004,0.1,0.0,0.0,0.0,0.1,0.0,0.0,0.0,0.1
1452008392967391156,137,1452008392964169025,robocape,-22.5763662127,-0.934783105954,-16.5649129333,0.0,10.0,0.0,0.0,0.0,10.0,0.0,0.0,0.0,10.0,-0.235423440363,0.0759000910673,-0.547146445957,1.0,0.0,0.0,0.0,1.0,0.0,0.0,0.0,1.0,0.929267578125,-4.68825073242,8.25443481445,0.1,0.0,0.0,0.0,0.1,0.0,0.0,0.0,0.1
1452008393000684989,138,1452008392997699022,robocape,-23.2918675854,-1.13066046813,-17.9823351707,0.0,10.0,0.0,0.0,0.0,10.0,0.0,0.0,0.0,10.0,-0.457397917221,0.20279971701,-0.776710931922,1.0,0.0,0.0,0.0,1.0,0.0,0.0,0.0,1.0,4.75052124023,-5.79115722656,10.2782263184,0.1,0.0,0.0,0.0,0.1,0.0,0.0,0.0,0.1
1452008393034237197,139,1452008393031184911,robocape,-23.547361889,-1.11143021889,-19.3690365688,0.0,10.0,0.0,0.0,0.0,10.0,0.0,0.0,0.0,10.0,-0.210256568062,0.30599720925,-0.712928223814,1.0,0.0,0.0,0.0,1.0,0.0,0.0,0.0,1.0,3.12071044922,-5.64386352539,10.4195324707,0.1,0.0,0.0,0.0,0.1,0.0,0.0,0.0,0.1
1452008393071320239,140,1452008393067926883,robocape,-23.7550486188,-1.52863329676,-20.9922247838,0.0,10.0,0.0,0.0,0.0,10.0,0.0,0.0,0.0,10.0,-0.200136555919,0.150335443535,-0.929310062383,1.0,0.0,0.0,0.0,1.0,0.0,0.0,0.0,1.0,1.86332519531,-6.41026977539,10.4015698242,0.1,0.0,0.0,0.0,0.1,0.0,0.0,0.0,0.1
1452008393104273822,141,1452008393101138114,robocape,-23.5974614847,-1.65052282697,-22.5961406091,0.0,10.0,0.0,0.0,0.0,10.0,0.0,0.0,0.0,10.0,-0.00612527050718,0.288020871892,-0.856605764624,1.0,0.0,0.0,0.0,1.0,0.0,0.0,0.0,1.0,3.42847045898,-5.20317993164,10.7308850098,0.1,0.0,0.0,0.0,0.1,0.0,0.0,0.0,0.1
1452008393137437406,142,1452008393134372949,robocape,-23.528083816,-1.77321698398,-23.4988501305,0.0,10.0,0.0,0.0,0.0,10.0,0.0,0.0,0.0,10.0,-0.033023197517,0.137685428357,-0.513723774276,1.0,0.0,0.0,0.0,1.0,0.0,0.0,0.0,1.0,0.178428955078,-3.85598144531,9.32620605469,0.1,0.0,0.0,0.0,0.1,0.0,0.0,0.0,0.1
1452008393170137614,143,1452008393166889905,robocape,-22.9871653797,-1.9691937678,-23.6539999388,0.0,10.0,0.0,0.0,0.0,10.0,0.0,0.0,0.0,10.0,0.252600829394,-0.0585895439817,-0.143943856919,1.0,0.0,0.0,0.0,1.0,0.0,0.0,0.0,1.0,3.29674438477,-5.15288452148,11.1428283691,0.1,0.0,0.0,0.0,0.1,0.0,0.0,0.0,0.1
1452008393203085322,144,1452008393200027942,robocape,-22.5159234783,-2.33023938869,-25.2478826155,0.0,10.0,0.0,0.0,0.0,10.0,0.0,0.0,0.0,10.0,0.152332814353,0.156860188206,-0.91266530557,1.0,0.0,0.0,0.0,1.0,0.0,0.0,0.0,1.0,1.59987304688,-4.22601196289,9.90460327148,0.1,0.0,0.0,0.0,0.1,0.0,0.0,0.0,0.1
1452008393237391406,145,1452008393234355926,robocape,-21.5531274964,-2.34420875634,-26.6392891836,0.0,10.0,0.0,0.0,0.0,10.0,0.0,0.0,0.0,10.0,0.427304196903,0.273240327842,-0.735165618916,1.0,0.0,0.0,0.0,1.0,0.0,0.0,0.0,1.0,1.32564331055,-8.26401489258,9.47709228516,0.1,0.0,0.0,0.0,0.1,0.0,0.0,0.0,0.1
1452008393270192823,146,1452008393267182111,robocape,-21.1508794997,-2.33685398329,-28.1950988041,0.0,10.0,0.0,0.0,0.0,10.0,0.0,0.0,0.0,10.0,0.113051188274,0.309858792831,-0.841425746411,1.0,0.0,0.0,0.0,1.0,0.0,0.0,0.0,1.0,-2.32556396484,-7.95625488281,10.9991271973,0.1,0.0,0.0,0.0,0.1,0.0,0.0,0.0,0.1
1452008393303059739,147,1452008393300065040,robocape,-21.0548821185,-2.44097697018,-28.5117007752,0.0,10.0,0.0,0.0,0.0,10.0,0.0,0.0,0.0,10.0,0.00119842249054,0.0146473859954,-0.231029224564,1.0,0.0,0.0,0.0,1.0,0.0,0.0,0.0,1.0,-2.20341796875,-4.42360107422,9.86029541016,0.1,0.0,0.0,0.0,0.1,0.0,0.0,0.0,0.1
1452008393336925906,148,1452008393333910942,robocape,-21.4084532463,-2.50204424316,-30.2143619812,0.0,10.0,0.0,0.0,0.0,10.0,0.0,0.0,0.0,10.0,-0.312388795866,0.306796157577,-0.965795369317,1.0,0.0,0.0,0.0,1.0,0.0,0.0,0.0,1.0,0.553249511719,-6.75994262695,8.69990844727,0.1,0.0,0.0,0.0,0.1,0.0,0.0,0.0,0.1
1452008393371247489,149,1452008393368155956,robocape,-21.8595019724,-2.61087472712,-31.880802292,0.0,10.0,0.0,0.0,0.0,10.0,0.0,0.0,0.0,10.0,-0.372309920393,0.284825078584,-0.971654323715,1.0,0.0,0.0,0.0,1.0,0.0,0.0,0.0,1.0,-0.536484375,-6.12645996094,10.1021923828,0.1,0.0,0.0,0.0,0.1,0.0,0.0,0.0,0.1
1452008393403902281,150,1452008393400816917,robocape,-21.4206578604,-2.44227527394,-32.6767301396,0.0,10.0,0.0,0.0,0.0,10.0,0.0,0.0,0.0,10.0,0.157659136533,0.245543452505,-0.435559996282,1.0,0.0,0.0,0.0,1.0,0.0,0.0,0.0,1.0,0.550854492188,-6.09771972656,10.1536853027,0.1,0.0,0.0,0.0,0.1,0.0,0.0,0.0,0.1
1452008393435152698,151,1452008393432068109,robocape,-21.1794353141,-2.42937171216,-34.0213480022,0.0,10.0,0.0,0.0,0.0,10.0,0.0,0.0,0.0,10.0,0.0201068662301,0.276968753368,-0.774180928886,1.0,0.0,0.0,0.0,1.0,0.0,0.0,0.0,1.0,4.42240356445,-3.65479980469,8.28916259766,0.1,0.0,0.0,0.0,0.1,0.0,0.0,0.0,0.1
1452008393468090281,152,1452008393464670896,robocape,-21.3051011571,-2.4996825183,-35.5906794088,0.0,10.0,0.0,0.0,0.0,10.0,0.0,0.0,0.0,10.0,-0.196274972339,0.282827707766,-0.935967965108,1.0,0.0,0.0,0.0,1.0,0.0,0.0,0.0,1.0,-2.02019897461,-4.35055297852,10.8278833008,0.1,0.0,0.0,0.0,0.1,0.0,0.0,0.0,0.1
1452008393501323739,153,1452008393498230934,robocape,-21.0437864537,-2.42057757502,-37.8478101724,0.0,10.0,0.0,0.0,0.0,10.0,0.0,0.0,0.0,10.0,-0.0267647689553,0.492152169447,-1.28617364845,1.0,0.0,0.0,0.0,1.0,0.0,0.0,0.0,1.0,3.03209472656,-4.19367919922,11.8984570313,0.1,0.0,0.0,0.0,0.1,0.0,0.0,0.0,0.1
1452008393534883698,154,1452008393531817913,robocape,-20.8626931498,-2.26633741576,-40.3225921511,0.0,10.0,0.0,0.0,0.0,10.0,0.0,0.0,0.0,10.0,-0.0864195773731,0.572845950476,-1.42479118319,1.0,0.0,0.0,0.0,1.0,0.0,0.0,0.0,1.0,-0.664617919922,-3.07760009766,9.21723266602,0.1,0.0,0.0,0.0,0.1,0.0,0.0,0.0,0.1
1452008393567966698,155,1452008393564734935,robocape,-20.2576253099,-2.30784921482,-42.6627403564,0.0,10.0,0.0,0.0,0.0,10.0,0.0,0.0,0.0,10.0,0.145674911627,0.445413692316,-1.40921169082,1.0,0.0,0.0,0.0,1.0,0.0,0.0,0.0,1.0,0.889749755859,-3.78652587891,9.29866333008,0.1,0.0,0.0,0.0,0.1,0.0,0.0,0.0,0.1
1452008393600838281,156,1452008393597752094,robocape,-20.9410466134,-2.37659607049,-44.5595496655,0.0,10.0,0.0,0.0,0.0,10.0,0.0,0.0,0.0,10.0,-0.540355385177,0.355798321635,-1.24276412269,1.0,0.0,0.0,0.0,1.0,0.0,0.0,0.0,1.0,0.828676757813,-4.19367919922,9.8447277832,0.1,0.0,0.0,0.0,0.1,0.0,0.0,0.0,0.1
1452008393634242906,157,1452008393631155014,robocape,-20.7667104123,-2.74468309753,-47.2517782703,0.0,10.0,0.0,0.0,0.0,10.0,0.0,0.0,0.0,10.0,-0.141147537774,0.374307291211,-1.76847212187,1.0,0.0,0.0,0.0,1.0,0.0,0.0,0.0,1.0,3.1039453125,-2.99976196289,11.1847412109,0.1,0.0,0.0,0.0,0.1,0.0,0.0,0.0,0.1
1452008393667818906,158,1452008393664684057,robocape,-21.4469133027,-3.10283936272,-48.81354024,0.0,10.0,0.0,0.0,0.0,10.0,0.0,0.0,0.0,10.0,-0.550608555374,0.163518090931,-1.17685088571,1.0,0.0,0.0,0.0,1.0,0.0,0.0,0.0,1.0,2.98658935547,-2.30640380859,8.87234985352,0.1,0.0,0.0,0.0,0.1,0.0,0.0,0.0,0.1
1452008393700636656,159,1452008393697535991,robocape,-21.3620325903,-2.9644778313,-51.5264942515,0.0,10.0,0.0,0.0,0.0,10.0,0.0,0.0,0.0,10.0,-0.226635008766,0.651675518742,-1.75995000638,1.0,0.0,0.0,0.0,1.0,0.0,0.0,0.0,1.0,0.110170898438,-4.6020300293,9.3082434082,0.1,0.0,0.0,0.0,0.1,0.0,0.0,0.0,0.1
1452008393735237573,160,1452008393732156038,robocape,-20.7352675962,-2.49070390733,-54.4949729133,0.0,10.0,0.0,0.0,0.0,10.0,0.0,0.0,0.0,10.0,0.0529969056926,0.869255779802,-1.88152331014,1.0,0.0,0.0,0.0,1.0,0.0,0.0,0.0,1.0,1.43222167969,-4.60921508789,10.3812121582,0.1,0.0,0.0,0.0,0.1,0.0,0.0,0.0,0.1
1452008393767521448,161,1452008393764388084,robocape,-20.3605187455,-2.92420306249,-56.8078777346,0.0,10.0,0.0,0.0,0.0,10.0,0.0,0.0,0.0,10.0,-0.0525974315291,0.288020871892,-1.75102841673,1.0,0.0,0.0,0.0,1.0,0.0,0.0,0.0,1.0,4.16972900391,-0.797541503906,8.67835327148,0.1,0.0,0.0,0.0,0.1,0.0,0.0,0.0,0.1
1452008393800655406,162,1452008393797578096,robocape,-20.9901750751,-2.53943189508,-58.9466371487,0.0,10.0,0.0,0.0,0.0,10.0,0.0,0.0,0.0,10.0,-0.593485448924,0.669119223882,-1.56713714346,1.0,0.0,0.0,0.0,1.0,0.0,0.0,0.0,1.0,1.2298425293,-3.80568603516,9.04958129883,0.1,0.0,0.0,0.0,0.1,0.0,0.0,0.0,0.1
1452008393834142114,163,1452008393830732107,robocape,-20.8385704879,-2.91675964492,-60.356093484,0.0,10.0,0.0,0.0,0.0,10.0,0.0,0.0,0.0,10.0,-0.123703832634,0.150069127426,-1.25514782175,1.0,0.0,0.0,0.0,1.0,0.0,0.0,0.0,1.0,3.41170532227,-3.08837768555,11.8110388184,0.1,0.0,0.0,0.0,0.1,0.0,0.0,0.0,0.1
1452008393867668656,164,1452008393864481925,robocape,-20.320405875,-4.40296749094,-61.7446229391,0.0,10.0,0.0,0.0,0.0,10.0,0.0,0.0,0.0,10.0,0.0464721610219,-0.406132066237,-1.50388706757,1.0,0.0,0.0,0.0,1.0,0.0,0.0,0.0,1.0,1.69687133789,-3.26441162109,9.40883422852,0.1,0.0,0.0,0.0,0.1,0.0,0.0,0.0,0.1
1452008393901030489,165,1452008393898008108,robocape,-20.9751739755,-4.30043946778,-63.2665538513,0.0,10.0,0.0,0.0,0.0,10.0,0.0,0.0,0.0,10.0,-0.613059682936,0.404933643747,-1.34396424411,1.0,0.0,0.0,0.0,1.0,0.0,0.0,0.0,1.0,2.65128662109,-1.94954589844,9.34297119141,0.1,0.0,0.0,0.0,0.1,0.0,0.0,0.0,0.1
1452008393934384698,166,1452008393931029081,robocape,-21.5174016017,-4.75594084871,-64.8374680995,0.0,10.0,0.0,0.0,0.0,10.0,0.0,0.0,0.0,10.0,-0.582699646509,0.159789665405,-1.54676396112,1.0,0.0,0.0,0.0,1.0,0.0,0.0,0.0,1.0,5.4031640625,-2.7590625,9.70102661133,0.1,0.0,0.0,0.0,0.1,0.0,0.0,0.0,0.1
1452008393967557115,167,1452008393964369058,robocape,-20.9373611805,-5.38283844541,-67.0995561314,0.0,10.0,0.0,0.0,0.0,10.0,0.0,0.0,0.0,10.0,-0.0703074527781,0.223838689621,-2.05702562598,1.0,0.0,0.0,0.0,1.0,0.0,0.0,0.0,1.0,5.87019287109,-3.05604492188,9.99202148437,0.1,0.0,0.0,0.0,0.1,0.0,0.0,0.0,0.1
1452008394000760198,168,1452008393997741937,robocape,-21.020862577,-5.64497774463,-68.5216112973,0.0,10.0,0.0,0.0,0.0,10.0,0.0,0.0,0.0,10.0,-0.347808838364,0.22024342215,-1.47139650227,1.0,0.0,0.0,0.0,1.0,0.0,0.0,0.0,1.0,5.57440795898,-1.64298339844,9.64713867188,0.1,0.0,0.0,0.0,0.1,0.0,0.0,0.0,0.1
1452008394034147031,169,1452008394031097888,robocape,-20.7070964655,-5.46017932203,-70.5275318067,0.0,10.0,0.0,0.0,0.0,10.0,0.0,0.0,0.0,10.0,-0.206261826427,0.567253312187,-1.81294691207,1.0,0.0,0.0,0.0,1.0,0.0,0.0,0.0,1.0,0.554447021484,-5.32891845703,10.7332800293,0.1,0.0,0.0,0.0,0.1,0.0,0.0,0.0,0.1
1452008394067384281,170,1452008394064243078,robocape,-21.6128000587,-5.47445408993,-68.8672504576,0.0,10.0,0.0,0.0,0.0,10.0,0.0,0.0,0.0,10.0,-0.400139953784,-0.316383537501,0.776844089976,1.0,0.0,0.0,0.0,1.0,0.0,0.0,0.0,1.0,0.24908203125,-7.39103027344,6.56953857422,0.1,0.0,0.0,0.0,0.1,0.0,0.0,0.0,0.1
1452008394100633906,171,1452008394097616910,robocape,-21.2507167084,-5.05932178232,-70.2690525685,0.0,10.0,0.0,0.0,0.0,10.0,0.0,0.0,0.0,10.0,-0.0964064314609,0.558997512808,-1.29602734449,1.0,0.0,0.0,0.0,1.0,0.0,0.0,0.0,1.0,2.67643432617,-1.5747253418,11.8493591309,0.1,0.0,0.0,0.0,0.1,0.0,0.0,0.0,0.1
1452008394133718448,172,1452008394130712985,robocape,-21.2137232171,-5.00990535801,-70.7696679068,0.0,10.0,0.0,0.0,0.0,10.0,0.0,0.0,0.0,10.0,-0.166048093966,0.18535601187,-0.765525655343,1.0,0.0,0.0,0.0,1.0,0.0,0.0,0.0,1.0,1.13044921875,-4.15176635742,8.56219482422,0.1,0.0,0.0,0.0,0.1,0.0,0.0,0.0,0.1
1452008394167376198,173,1452008394164243936,robocape,-21.1367962988,-4.86010751729,-71.5734900035,0.0,10.0,0.0,0.0,0.0,10.0,0.0,0.0,0.0,10.0,-0.182293376616,0.303999838433,-0.98124170364,1.0,0.0,0.0,0.0,1.0,0.0,0.0,0.0,1.0,4.42839111328,-3.87873413086,9.77048217773,0.1,0.0,0.0,0.0,0.1,0.0,0.0,0.0,0.1
1452008394200547281,174,1452008394197448015,robocape,-20.9768842398,-5.19350062533,-72.5387325487,0.0,10.0,0.0,0.0,0.0,10.0,0.0,0.0,0.0,10.0,-0.170309151711,0.107458549985,-1.24715833848,1.0,0.0,0.0,0.0,1.0,0.0,0.0,0.0,1.0,5.81989746094,-3.87873413086,10.7524401855,0.1,0.0,0.0,0.0,0.1,0.0,0.0,0.0,0.1
1452008394234197740,175,1452008394231065988,robocape,-21.2399576892,-4.6736729893,-73.3328536639,0.0,10.0,0.0,0.0,0.0,10.0,0.0,0.0,0.0,10.0,-0.369913075412,0.489355850302,-0.951414299431,1.0,0.0,0.0,0.0,1.0,0.0,0.0,0.0,1.0,4.08710083008,-7.41498046875,9.01006347656,0.1,0.0,0.0,0.0,0.1,0.0,0.0,0.0,0.1
1452008394267382781,176,1452008394264170885,robocape,-20.541069101,-4.32534123397,-73.9577272719,0.0,10.0,0.0,0.0,0.0,10.0,0.0,0.0,0.0,10.0,0.183358641052,0.363255172687,-0.798682010915,1.0,0.0,0.0,0.0,1.0,0.0,0.0,0.0,1.0,3.88591918945,-2.81774047852,10.0686621094,0.1,0.0,0.0,0.0,0.1,0.0,0.0,0.0,0.1
1452008394300769865,177,1452008394297537088,robocape,-20.9476193135,-4.35605179496,-73.8138010554,0.0,10.0,0.0,0.0,0.0,10.0,0.0,0.0,0.0,10.0,-0.334226716805,0.0167779148675,-0.38788941277,1.0,0.0,0.0,0.0,1.0,0.0,0.0,0.0,1.0,4.23798706055,-0.650247802734,7.50000366211,0.1,0.0,0.0,0.0,0.1,0.0,0.0,0.0,0.1
1452008394334236073,178,1452008394330708026,robocape,-21.0735560515,-4.73439153468,-74.2986495954,0.0,10.0,0.0,0.0,0.0,10.0,0.0,0.0,0.0,10.0,-0.269511902316,-0.00945422186978,-0.958871150483,1.0,0.0,0.0,0.0,1.0,0.0,0.0,0.0,1.0,1.79386962891,-4.89422241211,11.03625,0.1,0.0,0.0,0.0,0.1,0.0,0.0,0.0,0.1
1452008394369719615,179,1452008394366595029,robocape,-20.8090020492,-4.83041443638,-74.7281187097,0.0,10.0,0.0,0.0,0.0,10.0,0.0,0.0,0.0,10.0,-0.0460726868584,0.110254869129,-0.819587825472,1.0,0.0,0.0,0.0,1.0,0.0,0.0,0.0,1.0,3.60689941406,-6.51924316406,7.45210327148,0.1,0.0,0.0,0.0,0.1,0.0,0.0,0.0,0.1
1452008394400834031,180,1452008394397666931,robocape,-19.8233768156,-4.34234526649,-74.1158076231,0.0,10.0,0.0,0.0,0.0,10.0,0.0,0.0,0.0,10.0,0.498144281899,0.149802811317,0.227300799038,1.0,0.0,0.0,0.0,1.0,0.0,0.0,0.0,1.0,3.22968383789,-5.19000732422,12.088861084,0.1,0.0,0.0,0.0,0.1,0.0,0.0,0.0,0.1
1452008394433961281,181,1452008394430825948,robocape,-19.8372042241,-4.04422918776,-74.8963638374,0.0,10.0,0.0,0.0,0.0,10.0,0.0,0.0,0.0,10.0,-0.220509738259,0.373907817047,-1.02025701361,1.0,0.0,0.0,0.0,1.0,0.0,0.0,0.0,1.0,3.58055419922,-2.87641845703,9.1932824707,0.1,0.0,0.0,0.0,0.1,0.0,0.0,0.0,0.1
1452008394467486865,182,1452008394464313030,robocape,-19.6281968578,-3.47713125815,-75.879886187,0.0,10.0,0.0,0.0,0.0,10.0,0.0,0.0,0.0,10.0,-0.114915401037,0.553804348682,-1.12278871558,1.0,0.0,0.0,0.0,1.0,0.0,0.0,0.0,1.0,4.44755126953,-3.00934204102,11.5296240234,0.1,0.0,0.0,0.0,0.1,0.0,0.0,0.0,0.1
1452008394500516365,183,1452008394497430086,robocape,-19.0172920421,-3.33972981702,-76.2366377106,0.0,10.0,0.0,0.0,0.0,10.0,0.0,0.0,0.0,10.0,0.1744370514,0.204397613664,-0.704406108326,1.0,0.0,0.0,0.0,1.0,0.0,0.0,0.0,1.0,2.90755371094,-4.65591796875,9.45074707031,0.1,0.0,0.0,0.0,0.1,0.0,0.0,0.0,0.1
1452008394533937031,184,1452008394530901908,robocape,-19.2317695768,-2.7388950943,-76.245599344,0.0,10.0,0.0,0.0,0.0,10.0,0.0,0.0,0.0,10.0,-0.228632379583,0.363521488796,-0.377103610355,1.0,0.0,0.0,0.0,1.0,0.0,0.0,0.0,1.0,4.85350708008,-4.67388061523,9.18849243164,0.1,0.0,0.0,0.0,0.1,0.0,0.0,0.0,0.1
1452008394567459740,185,1452008394564426898,robocape,-18.8607755716,-2.60626213513,-76.2885955188,0.0,10.0,0.0,0.0,0.0,10.0,0.0,0.0,0.0,10.0,0.082424835738,0.139017008902,-0.470980038781,1.0,0.0,0.0,0.0,1.0,0.0,0.0,0.0,1.0,1.67771118164,-4.51461181641,11.2649743652,0.1,0.0,0.0,0.0,0.1,0.0,0.0,0.0,0.1
1452008394601059615,186,1452008394597964048,robocape,-19.0030098438,-2.47943086045,-76.3895909729,0.0,10.0,0.0,0.0,0.0,10.0,0.0,0.0,0.0,10.0,-0.201601294519,0.153398078789,-0.560329093353,1.0,0.0,0.0,0.0,1.0,0.0,0.0,0.0,1.0,1.79506713867,-4.88464233398,10.407557373,0.1,0.0,0.0,0.0,0.1,0.0,0.0,0.0,0.1
1452008394634004781,187,1452008394630899906,robocape,-19.3806353337,-2.20005710097,-76.5862708274,0.0,10.0,0.0,0.0,0.0,10.0,0.0,0.0,0.0,10.0,-0.33822145844,0.253932409939,-0.623446011188,1.0,0.0,0.0,0.0,1.0,0.0,0.0,0.0,1.0,3.18777099609,-6.96950683594,9.62558349609,0.1,0.0,0.0,0.0,0.1,0.0,0.0,0.0,0.1
1452008394669815948,188,1452008394666615009,robocape,-18.8855387096,-2.13170988979,-76.6417683883,0.0,10.0,0.0,0.0,0.0,10.0,0.0,0.0,0.0,10.0,0.148870704935,0.113317504383,-0.492817959719,1.0,0.0,0.0,0.0,1.0,0.0,0.0,0.0,1.0,0.144898681641,-5.78876220703,9.09867919922,0.1,0.0,0.0,0.0,0.1,0.0,0.0,0.0,0.1
1452008394701819073,189,1452008394698777914,robocape,-18.4809410947,-1.75115969793,-76.7377850679,0.0,10.0,0.0,0.0,0.0,10.0,0.0,0.0,0.0,10.0,0.103064334186,0.274971382551,-0.462191607183,1.0,0.0,0.0,0.0,1.0,0.0,0.0,0.0,1.0,2.37705688477,-5.2846105957,10.9536218262,0.1,0.0,0.0,0.0,0.1,0.0,0.0,0.0,0.1
1452008394741968823,190,1452008394738867998,robocape,-18.4841046571,-1.65067469286,-76.9118466969,0.0,10.0,0.0,0.0,0.0,10.0,0.0,0.0,0.0,10.0,-0.126100677615,0.158724400969,-0.623446011188,1.0,0.0,0.0,0.0,1.0,0.0,0.0,0.0,1.0,1.26217529297,-6.91322387695,8.12989379883,0.1,0.0,0.0,0.0,0.1,0.0,0.0,0.0,0.1
1452008394768416698,191,1452008394765345096,robocape,-17.9439092686,-0.945797232135,-76.8357432495,0.0,10.0,0.0,0.0,0.0,10.0,0.0,0.0,0.0,10.0,0.199337607592,0.398142582967,-0.242347659197,1.0,0.0,0.0,0.0,1.0,0.0,0.0,0.0,1.0,0.741258544922,-3.67276245117,10.8542285156,0.1,0.0,0.0,0.0,0.1,0.0,0.0,0.0,0.1
1452008394802889532,192,1452008394799335956,robocape,-18.1572503563,-0.870876828191,-76.6630101285,0.0,10.0,0.0,0.0,0.0,10.0,0.0,0.0,0.0,10.0,-0.204663929773,0.0757669330128,-0.351936738054,1.0,0.0,0.0,0.0,1.0,0.0,0.0,0.0,1.0,2.4944128418,-7.22457641602,9.38248901367,0.1,0.0,0.0,0.0,0.1,0.0,0.0,0.0,0.1
1452008394835566573,193,1452008394832448005,robocape,-18.5280333587,-0.680557295862,-76.7273815355,0.0,10.0,0.0,0.0,0.0,10.0,0.0,0.0,0.0,10.0,-0.307994580068,0.186021802142,-0.531833269689,1.0,0.0,0.0,0.0,1.0,0.0,0.0,0.0,1.0,1.17355957031,-3.69791015625,9.05556884766,0.1,0.0,0.0,0.0,0.1,0.0,0.0,0.0,0.1
1452008394869451657,194,1452008394866178035,robocape,-18.7026242696,-0.647472001572,-76.732635449,0.0,10.0,0.0,0.0,0.0,10.0,0.0,0.0,0.0,10.0,-0.200136555919,0.0965395895154,-0.505734291006,1.0,0.0,0.0,0.0,1.0,0.0,0.0,0.0,1.0,1.31486572266,-5.52052001953,8.42567871094,0.1,0.0,0.0,0.0,0.1,0.0,0.0,0.0,0.1
1452008394907479865,195,1452008394904367923,robocape,-18.398878428,-0.391675455979,-76.8236327476,0.0,10.0,0.0,0.0,0.0,10.0,0.0,0.0,0.0,10.0,0.0553937506736,0.220909212422,-0.493883224155,1.0,0.0,0.0,0.0,1.0,0.0,0.0,0.0,1.0,2.1842578125,-4.99361572266,10.4566552734,0.1,0.0,0.0,0.0,0.1,0.0,0.0,0.0,0.1
1452008394938098615,196,1452008394934844017,robocape,-18.2890360848,-0.508795782634,-76.9063088162,0.0,10.0,0.0,0.0,0.0,10.0,0.0,0.0,0.0,10.0,-0.0508663768205,0.0374174133156,-0.584697017327,1.0,0.0,0.0,0.0,1.0,0.0,0.0,0.0,1.0,-1.62382324219,-4.97924560547,9.94891113281,0.1,0.0,0.0,0.0,0.1,0.0,0.0,0.0,0.1
1452008394971491240,197,1452008394968456029,robocape,-18.4650535901,-0.409558506314,-77.4531544436,0.0,10.0,0.0,0.0,0.0,10.0,0.0,0.0,0.0,10.0,-0.238486075617,0.248606087759,-0.948351664177,1.0,0.0,0.0,0.0,1.0,0.0,0.0,0.0,1.0,1.88488037109,-6.99345703125,9.5070300293,0.1,0.0,0.0,0.0,0.1,0.0,0.0,0.0,0.1
1452008395004333240,198,1452008395000488042,robocape,-18.2812094518,-0.0670831647999,-77.4835306302,0.0,10.0,0.0,0.0,0.0,10.0,0.0,0.0,0.0,10.0,-0.00359526747161,0.254198726048,-0.44701158897,1.0,0.0,0.0,0.0,1.0,0.0,0.0,0.0,1.0,-2.35789672852,-3.39254516602,9.87945556641,0.1,0.0,0.0,0.0,0.1,0.0,0.0,0.0,0.1
1452008395039212282,199,1452008395035330057,robocape,-17.8542425,-0.0149628320429,-77.7683199335,0.0,10.0,0.0,0.0,0.0,10.0,0.0,0.0,0.0,10.0,0.110521185238,0.165115987585,-0.709732430506,1.0,0.0,0.0,0.0,1.0,0.0,0.0,0.0,1.0,-2.39980957031,-5.69655395508,10.075847168,0.1,0.0,0.0,0.0,0.1,0.0,0.0,0.0,0.1
1452008395070384323,200,1452008395065967082,robocape,-18.1295797577,0.288632851712,-78.0923723408,0.0,10.0,0.0,0.0,0.0,10.0,0.0,0.0,0.0,10.0,-0.268047163716,0.30479878676,-0.741823521642,1.0,0.0,0.0,0.0,1.0,0.0,0.0,0.0,1.0,4.29666503906,-1.11847412109,7.47844848633,0.1,0.0,0.0,0.0,0.1,0.0,0.0,0.0,0.1
1452008395107074990,201,1452008395101716041,robocape,-17.7480544442,0.330510191144,-78.1971611479,0.0,10.0,0.0,0.0,0.0,10.0,0.0,0.0,0.0,10.0,0.09933590866,0.124369622907,-0.575642269621,1.0,0.0,0.0,0.0,1.0,0.0,0.0,0.0,1.0,-2.65847167969,-4.24517211914,11.8493591309,0.1,0.0,0.0,0.0,0.1,0.0,0.0,0.0,0.1
1452008395138421990,202,1452008395134545087,robocape,-17.9006762359,0.4299034999,-78.6507664531,0.0,10.0,0.0,0.0,0.0,10.0,0.0,0.0,0.0,10.0,-0.20932446168,0.2335592276,-0.899083184011,1.0,0.0,0.0,0.0,1.0,0.0,0.0,0.0,1.0,0.0754431152344,-3.96136230469,9.63636108398,0.1,0.0,0.0,0.0,0.1,0.0,0.0,0.0,0.1
1452008395171755032,203,1452008395168340921,robocape,-17.4373331374,0.77112760491,-79.2239857806,0.0,10.0,0.0,0.0,0.0,10.0,0.0,0.0,0.0,10.0,0.119575932945,0.376437820083,-0.92211952744,1.0,0.0,0.0,0.0,1.0,0.0,0.0,0.0,1.0,2.0728894043,-3.37817504883,12.5403222656,0.1,0.0,0.0,0.0,0.1,0.0,0.0,0.0,0.1
1452008395204645115,204,1452008395201307058,robocape,-17.2361990539,1.04485176271,-79.9265289038,0.0,10.0,0.0,0.0,0.0,10.0,0.0,0.0,0.0,10.0,-0.0249005561922,0.374839923429,-1.08377340561,1.0,0.0,0.0,0.0,1.0,0.0,0.0,0.0,1.0,1.32684082031,-4.04878051758,9.56331298828,0.1,0.0,0.0,0.0,0.1,0.0,0.0,0.0,0.1
1452008395238184198,205,1452008395233616113,robocape,-17.3994552745,0.625076311681,-80.53485395,0.0,10.0,0.0,0.0,0.0,10.0,0.0,0.0,0.0,10.0,-0.222640267131,0.0159789665405,-1.19216406197,1.0,0.0,0.0,0.0,1.0,0.0,0.0,0.0,1.0,-0.704135742188,-5.89294555664,12.6720483398,0.1,0.0,0.0,0.0,0.1,0.0,0.0,0.0,0.1
1452008395271591823,206,1452008395268124103,robocape,-16.5699482127,0.838624320987,-81.1186150909,0.0,10.0,0.0,0.0,0.0,10.0,0.0,0.0,0.0,10.0,0.31664985361,0.31545143112,-0.992693296327,1.0,0.0,0.0,0.0,1.0,0.0,0.0,0.0,1.0,-1.5675402832,-4.71938598633,11.8242114258,0.1,0.0,0.0,0.0,0.1,0.0,0.0,0.0,0.1
1452008395304539490,207,1452008395301016092,robocape,-16.2089667504,1.24001768538,-81.722166796,0.0,10.0,0.0,0.0,0.0,10.0,0.0,0.0,0.0,10.0,0.0712395591596,0.414920497834,-1.02318649081,1.0,0.0,0.0,0.0,1.0,0.0,0.0,0.0,1.0,-0.332907714844,-5.32772094727,9.22561523438,0.1,0.0,0.0,0.0,0.1,0.0,0.0,0.0,0.1
1452008395337669615,208,1452008395334419965,robocape,-15.7740474714,1.69207727482,-82.2692112162,0.0,10.0,0.0,0.0,0.0,10.0,0.0,0.0,0.0,10.0,0.120641197381,0.429701041884,-0.978312226441,1.0,0.0,0.0,0.0,1.0,0.0,0.0,0.0,1.0,-1.15918945312,-3.42847045898,11.5894995117,0.1,0.0,0.0,0.0,0.1,0.0,0.0,0.0,0.1
1452008395371733865,209,1452008395368516921,robocape,-16.0551409888,1.74751766649,-82.8273322953,0.0,10.0,0.0,0.0,0.0,10.0,0.0,0.0,0.0,10.0,-0.262853999591,0.241815026979,-1.12491924445,1.0,0.0,0.0,0.0,1.0,0.0,0.0,0.0,1.0,2.73990234375,-1.97229858398,9.49864746094,0.1,0.0,0.0,0.0,0.1,0.0,0.0,0.0,0.1
1452008395404014157,210,1452008395400597095,robocape,-15.8523595266,2.14337033883,-83.325183888,0.0,10.0,0.0,0.0,0.0,10.0,0.0,0.0,0.0,10.0,0.00133158054504,0.401338376275,-0.992560138273,1.0,0.0,0.0,0.0,1.0,0.0,0.0,0.0,1.0,-2.71235961914,-4.13380371094,10.7213049316,0.1,0.0,0.0,0.0,0.1,0.0,0.0,0.0,0.1
1452008395437262865,211,1452008395434103965,robocape,-16.5057128903,2.53067713263,-84.0154649123,0.0,10.0,0.0,0.0,0.0,10.0,0.0,0.0,0.0,10.0,-0.463123713565,0.451805278932,-1.23610621996,1.0,0.0,0.0,0.0,1.0,0.0,0.0,0.0,1.0,2.87282592773,-5.61033325195,10.3907922363,0.1,0.0,0.0,0.0,0.1,0.0,0.0,0.0,0.1
1452008395470137490,212,1452008395466805934,robocape,-16.5358254839,2.58980336067,-84.5890747608,0.0,10.0,0.0,0.0,0.0,10.0,0.0,0.0,0.0,10.0,-0.12743225816,0.269511902316,-1.18017983707,1.0,0.0,0.0,0.0,1.0,0.0,0.0,0.0,1.0,-0.535286865234,-4.30864013672,11.0697802734,0.1,0.0,0.0,0.0,0.1,0.0,0.0,0.0,0.1
1452008395504443282,213,1452008395501260995,robocape,-16.2188793922,2.51172170256,-84.4445646126,0.0,10.0,0.0,0.0,0.0,10.0,0.0,0.0,0.0,10.0,0.082957467956,0.0398142582967,-0.529835898871,1.0,0.0,0.0,0.0,1.0,0.0,0.0,0.0,1.0,-0.117355957031,-5.0966015625,10.3381018066,0.1,0.0,0.0,0.0,0.1,0.0,0.0,0.0,0.1
1452008395537126032,214,1452008395534059047,robocape,-16.7285703655,2.83456664042,-85.2254981558,0.0,10.0,0.0,0.0,0.0,10.0,0.0,0.0,0.0,10.0,-0.390153099697,0.453003701422,-1.3659353231,1.0,0.0,0.0,0.0,1.0,0.0,0.0,0.0,1.0,1.46575195313,-3.69551513672,9.20286254883,0.1,0.0,0.0,0.0,0.1,0.0,0.0,0.0,0.1
1452008395569984199,215,1452008395566868066,robocape,-16.8726927418,3.22181192826,-85.8089037202,0.0,10.0,0.0,0.0,0.0,10.0,0.0,0.0,0.0,10.0,-0.186820750469,0.449941066169,-1.17005982493,1.0,0.0,0.0,0.0,1.0,0.0,0.0,0.0,1.0,1.43820922852,-4.16613647461,10.8230932617,0.1,0.0,0.0,0.0,0.1,0.0,0.0,0.0,0.1
1452008395603889949,216,1452008395600665092,robocape,-16.7007560828,3.16654591557,-85.946563422,0.0,10.0,0.0,0.0,0.0,10.0,0.0,0.0,0.0,10.0,-0.00452737385313,0.128630680651,-0.834501527576,1.0,0.0,0.0,0.0,1.0,0.0,0.0,0.0,1.0,-1.81781982422,-4.93493774414,10.3955822754,0.1,0.0,0.0,0.0,0.1,0.0,0.0,0.0,0.1
1452008395636631824,217,1452008395633564949,robocape,-16.4695406566,3.29507914204,-86.131893896,0.0,10.0,0.0,0.0,0.0,10.0,0.0,0.0,0.0,10.0,0.0279631914458,0.229697644019,-0.843556275283,1.0,0.0,0.0,0.0,1.0,0.0,0.0,0.0,1.0,-0.195194091797,-4.32780029297,10.6650219727,0.1,0.0,0.0,0.0,0.1,0.0,0.0,0.0,0.1
1452008395670263490,218,1452008395666856050,robocape,-16.5468447084,3.33873978316,-86.8729038003,0.0,10.0,0.0,0.0,0.0,10.0,0.0,0.0,0.0,10.0,-0.151533866026,0.319845646919,-1.42332644459,1.0,0.0,0.0,0.0,1.0,0.0,0.0,0.0,1.0,-0.148491210938,-4.7553112793,11.8900744629,0.1,0.0,0.0,0.0,0.1,0.0,0.0,0.0,0.1
1452008395702694574,219,1452008395699203968,robocape,-15.9303269259,3.78996124035,-86.8025779278,0.0,10.0,0.0,0.0,0.0,10.0,0.0,0.0,0.0,10.0,0.24421187196,0.332229345987,-0.537159591869,1.0,0.0,0.0,0.0,1.0,0.0,0.0,0.0,1.0,1.00710571289,-5.94922851563,10.8913513184,0.1,0.0,0.0,0.0,0.1,0.0,0.0,0.0,0.1
1452008395734994199,220,1452008395731976032,robocape,-15.8566851822,4.41362385298,-87.0001297634,0.0,10.0,0.0,0.0,0.0,10.0,0.0,0.0,0.0,10.0,-0.0439421579863,0.484961634503,-0.794287795116,1.0,0.0,0.0,0.0,1.0,0.0,0.0,0.0,1.0,2.69918701172,-4.76848388672,10.0099841309,0.1,0.0,0.0,0.0,0.1,0.0,0.0,0.0,0.1
1452008395768384282,221,1452008395764954090,robocape,-16.5672063694,4.94862205013,-87.7787403796,0.0,10.0,0.0,0.0,0.0,10.0,0.0,0.0,0.0,10.0,-0.465786874655,0.590023339507,-1.42412539292,1.0,0.0,0.0,0.0,1.0,0.0,0.0,0.0,1.0,2.77223510742,-3.4524206543,10.0950073242,0.1,0.0,0.0,0.0,0.1,0.0,0.0,0.0,0.1
1452008395801549032,222,1452008395798377037,robocape,-17.0141037618,5.1636809288,-88.7291420416,0.0,10.0,0.0,0.0,0.0,10.0,0.0,0.0,0.0,10.0,-0.327435656025,0.491086905011,-1.67539464177,1.0,0.0,0.0,0.0,1.0,0.0,0.0,0.0,1.0,1.05141357422,-6.1348425293,8.10354858398,0.1,0.0,0.0,0.0,0.1,0.0,0.0,0.0,0.1
1452008395834662990,223,1452008395831634998,robocape,-17.1257685307,5.65307459842,-88.8244091342,0.0,10.0,0.0,0.0,0.0,10.0,0.0,0.0,0.0,10.0,-0.142479118319,0.42277682305,-0.781904096047,1.0,0.0,0.0,0.0,1.0,0.0,0.0,0.0,1.0,-2.81534545898,-6.04502929688,10.7404650879,0.1,0.0,0.0,0.0,0.1,0.0,0.0,0.0,0.1
1452008395868401615,224,1452008395864502906,robocape,-17.0373913008,5.5531479061,-89.2664951788,0.0,10.0,0.0,0.0,0.0,10.0,0.0,0.0,0.0,10.0,-0.0354200424981,0.221175528531,-1.24316359685,1.0,0.0,0.0,0.0,1.0,0.0,0.0,0.0,1.0,-1.2226574707,-5.07265136719,8.07959838867,0.1,0.0,0.0,0.0,0.1,0.0,0.0,0.0,0.1
1452008395901050115,225,1452008395897974967,robocape,-17.7963363463,5.92868015136,-89.8203900104,0.0,10.0,0.0,0.0,0.0,10.0,0.0,0.0,0.0,10.0,-0.489355850302,0.498943230226,-1.31746579126,1.0,0.0,0.0,0.0,1.0,0.0,0.0,0.0,1.0,1.79506713867,-1.8776953125,11.2997021484,0.1,0.0,0.0,0.0,0.1,0.0,0.0,0.0,0.1
1452008395934349324,226,1452008395931328058,robocape,-16.943757261,5.88742217195,-89.86703163,0.0,10.0,0.0,0.0,0.0,10.0,0.0,0.0,0.0,10.0,0.370578865685,0.153664394898,-0.82544677987,1.0,0.0,0.0,0.0,1.0,0.0,0.0,0.0,1.0,-1.34240844727,-8.00295776367,11.4661560059,0.1,0.0,0.0,0.0,0.1,0.0,0.0,0.0,0.1
1452008395968968157,227,1452008395965542078,robocape,-16.9283401222,5.89407404918,-89.7818898815,0.0,10.0,0.0,0.0,0.0,10.0,0.0,0.0,0.0,10.0,-0.0725711397047,0.146207543845,-0.727708767864,1.0,0.0,0.0,0.0,1.0,0.0,0.0,0.0,1.0,1.3376184082,-4.1421862793,7.72633300781,0.1,0.0,0.0,0.0,0.1,0.0,0.0,0.0,0.1
1452008396000968365,228,1452008395997721910,robocape,-17.0776655002,6.30811867591,-90.3462406413,0.0,10.0,0.0,0.0,0.0,10.0,0.0,0.0,0.0,10.0,-0.155129133497,0.518783780347,-1.31107420465,1.0,0.0,0.0,0.0,1.0,0.0,0.0,0.0,1.0,3.42727294922,-2.17348022461,11.3715527344,0.1,0.0,0.0,0.0,0.1,0.0,0.0,0.0,0.1
1452008396034172865,229,1452008396031148910,robocape,-16.9869846176,6.31504796992,-90.6598954213,0.0,10.0,0.0,0.0,0.0,10.0,0.0,0.0,0.0,10.0,-0.0272974011733,0.256595571029,-1.14715663955,1.0,0.0,0.0,0.0,1.0,0.0,0.0,0.0,1.0,3.01892211914,-4.13739624023,11.455378418,0.1,0.0,0.0,0.0,0.1,0.0,0.0,0.0,0.1
1452008396067292907,230,1452008396064137935,robocape,-16.7295274703,6.49177637113,-90.8097234691,0.0,10.0,0.0,0.0,0.0,10.0,0.0,0.0,0.0,10.0,0.0619184953443,0.297608251816,-0.947419557796,1.0,0.0,0.0,0.0,1.0,0.0,0.0,0.0,1.0,2.5674609375,-4.43557617188,9.16573974609,0.1,0.0,0.0,0.0,0.1,0.0,0.0,0.0,0.1
1452008396101087532,231,1452008396097522974,robocape,-17.1044389717,6.32881213625,-91.9137551937,0.0,10.0,0.0,0.0,0.0,10.0,0.0,0.0,0.0,10.0,-0.264984528463,0.386557832225,-2.04930245882,1.0,0.0,0.0,0.0,1.0,0.0,0.0,0.0,1.0,3.48954345703,-4.10266845703,15.8059313965,0.1,0.0,0.0,0.0,0.1,0.0,0.0,0.0,0.1
1452008396134370366,232,1452008396130856990,robocape,-20.873018294,3.44675097522,-90.8889773829,0.0,10.0,0.0,0.0,0.0,10.0,0.0,0.0,0.0,10.0,-2.10869095112,-1.47352703114,-0.702808211672,1.0,0.0,0.0,0.0,1.0,0.0,0.0,0.0,1.0,6.01868408203,1.50646728516,2.37466186523,0.1,0.0,0.0,0.0,0.1,0.0,0.0,0.0,0.1
1452008396167432366,233,1452008396164343118,robocape,-20.2742599071,5.1528915325,-94.6648850092,0.0,10.0,0.0,0.0,0.0,10.0,0.0,0.0,0.0,10.0,0.0631169178349,2.19311315768,-4.36332312999,1.0,0.0,0.0,0.0,1.0,0.0,0.0,0.0,1.0,7.81854125977,-7.12877563477,9.6531262207,0.1,0.0,0.0,0.0,0.1,0.0,0.0,0.0,0.1
1452008396200905657,234,1452008396197670936,robocape,-17.0413202351,7.99248284145,-96.4055234365,0.0,10.0,0.0,0.0,0.0,10.0,0.0,0.0,0.0,10.0,1.64623302783,2.10562831587,-2.02706506371,1.0,0.0,0.0,0.0,1.0,0.0,0.0,0.0,1.0,-9.25196044922,-19.62,16.3148730469,0.1,0.0,0.0,0.0,0.1,0.0,0.0,0.0,0.1
1452008396233921741,235,1452008396230823993,robocape,-11.7759730831,9.29127243266,-97.3456161659,0.0,10.0,0.0,0.0,0.0,10.0,0.0,0.0,0.0,10.0,2.8027107312,1.09815447549,-1.71281205508,1.0,0.0,0.0,0.0,1.0,0.0,0.0,0.0,1.0,-4.77926147461,5.10378662109,12.2241796875,0.1,0.0,0.0,0.0,0.1,0.0,0.0,0.0,0.1
1452008396267233366,236,1452008396264117002,robocape,-10.3797533628,9.63004692227,-96.6177353047,0.0,10.0,0.0,0.0,0.0,10.0,0.0,0.0,0.0,10.0,0.668719749719,0.207859723081,-0.190948650159,1.0,0.0,0.0,0.0,1.0,0.0,0.0,0.0,1.0,1.36875366211,0.00598754882813,4.68825073242,0.1,0.0,0.0,0.0,0.1,0.0,0.0,0.0,0.1
1452008396300676699,237,1452008396297651052,robocape,-9.97630043366,9.80280044523,-96.3984169868,0.0,10.0,0.0,0.0,0.0,10.0,0.0,0.0,0.0,10.0,0.197606552884,0.223306057403,-0.788961472936,1.0,0.0,0.0,0.0,1.0,0.0,0.0,0.0,1.0,-2.56865844727,2.06091430664,11.3547875977,0.1,0.0,0.0,0.0,0.1,0.0,0.0,0.0,0.1
1452008396334240366,238,1452008396331223011,robocape,-10.4068147274,9.13667199864,-95.6686095312,0.0,10.0,0.0,0.0,0.0,10.0,0.0,0.0,0.0,10.0,-0.286289817184,-0.31664985361,-0.275504014769,1.0,0.0,0.0,0.0,1.0,0.0,0.0,0.0,1.0,-2.42854980469,0.9196875,9.62797851563,0.1,0.0,0.0,0.0,0.1,0.0,0.0,0.0,0.1
1452008396372341449,239,1452008396368657112,robocape,-13.2637686753,8.90424041172,-95.2443640047,0.0,10.0,0.0,0.0,0.0,10.0,0.0,0.0,0.0,10.0,-1.55102501886,-0.0399474163512,-0.574710163239,1.0,0.0,0.0,0.0,1.0,0.0,0.0,0.0,1.0,-3.14346313477,-0.0167651367188,6.17196533203,0.1,0.0,0.0,0.0,0.1,0.0,0.0,0.0,0.1
1452008396401001157,240,1452008396397983074,robocape,-16.5369635232,8.23147868048,-95.1876535086,0.0,10.0,0.0,0.0,0.0,10.0,0.0,0.0,0.0,10.0,-1.7768610793,-0.154463343225,-1.11866081589,1.0,0.0,0.0,0.0,1.0,0.0,0.0,0.0,1.0,4.27391235352,-3.11711791992,12.2696850586,0.1,0.0,0.0,0.0,0.1,0.0,0.0,0.0,0.1
1452008396433843157,241,1452008396430846929,robocape,-17.9158688254,8.51609738948,-96.0344916093,0.0,10.0,0.0,0.0,0.0,10.0,0.0,0.0,0.0,10.0,-0.76898776476,0.610929154064,-1.94237654105,1.0,0.0,0.0,0.0,1.0,0.0,0.0,0.0,1.0,5.49297729492,-11.5667468262,10.2590661621,0.1,0.0,0.0,0.0,0.1,0.0,0.0,0.0,0.1
1452008396467251407,242,1452008396464246034,robocape,-17.8400349599,9.18137279888,-95.6480270548,0.0,10.0,0.0,0.0,0.0,10.0,0.0,0.0,0.0,10.0,-0.0426105774413,0.444215269825,-0.45233791115,1.0,0.0,0.0,0.0,1.0,0.0,0.0,0.0,1.0,4.19248168945,-10.6757995605,9.19447998047,0.1,0.0,0.0,0.0,0.1,0.0,0.0,0.0,0.1
1452008396500407199,243,1452008396497426986,robocape,-17.0863168468,9.0176502968,-95.2117290965,0.0,10.0,0.0,0.0,0.0,10.0,0.0,0.0,0.0,10.0,0.317049327774,0.017710021249,-0.535162221051,1.0,0.0,0.0,0.0,1.0,0.0,0.0,0.0,1.0,0.319735107422,-2.44052490234,10.0926123047,0.1,0.0,0.0,0.0,0.1,0.0,0.0,0.0,0.1
1452008396534581782,244,1452008396531472921,robocape,-16.918541359,9.18031632718,-94.9534436838,0.0,10.0,0.0,0.0,0.0,10.0,0.0,0.0,0.0,10.0,0.0185089695761,0.229031853747,-0.67377975579,1.0,0.0,0.0,0.0,1.0,0.0,0.0,0.0,1.0,2.39741455078,-1.24541015625,9.06634643555,0.1,0.0,0.0,0.0,0.1,0.0,0.0,0.0,0.1
1452008396567206491,245,1452008396564193010,robocape,-16.9747186111,9.3203187838,-95.0737410194,0.0,10.0,0.0,0.0,0.0,10.0,0.0,0.0,0.0,10.0,-0.0794953585389,0.327036181862,-1.09442604997,1.0,0.0,0.0,0.0,1.0,0.0,0.0,0.0,1.0,4.81997680664,-2.1112097168,9.89382568359,0.1,0.0,0.0,0.0,0.1,0.0,0.0,0.0,0.1
1452008396600368699,246,1452008396597383022,robocape,-17.3098039575,9.3151648689,-94.8550162743,0.0,10.0,0.0,0.0,0.0,10.0,0.0,0.0,0.0,10.0,-0.245143978342,0.160854929841,-0.762729336199,1.0,0.0,0.0,0.0,1.0,0.0,0.0,0.0,1.0,4.18529663086,-2.47046264648,9.92735595703,0.1,0.0,0.0,0.0,0.1,0.0,0.0,0.0,0.1
1452008396634735241,247,1452008396631350040,robocape,-17.1936963254,9.49046449019,-94.6498704416,0.0,10.0,0.0,0.0,0.0,10.0,0.0,0.0,0.0,10.0,-0.00625842856169,0.251801881067,-0.71812138794,1.0,0.0,0.0,0.0,1.0,0.0,0.0,0.0,1.0,2.94228149414,-3.94938720703,10.4865930176,0.1,0.0,0.0,0.0,0.1,0.0,0.0,0.0,0.1
1452008396667687741,248,1452008396664292097,robocape,-17.1931751957,9.73124100462,-94.3421355647,0.0,10.0,0.0,0.0,0.0,10.0,0.0,0.0,0.0,10.0,-0.0715058752686,0.254331884103,-0.589757023398,1.0,0.0,0.0,0.0,1.0,0.0,0.0,0.0,1.0,4.35654052734,-2.8321105957,9.89143066406,0.1,0.0,0.0,0.0,0.1,0.0,0.0,0.0,0.1
1452008396700834407,249,1452008396697439908,robocape,-16.9005568529,9.54097074863,-93.9925625908,0.0,10.0,0.0,0.0,0.0,10.0,0.0,0.0,0.0,10.0,0.0820253615744,0.0258326625738,-0.609730731574,1.0,0.0,0.0,0.0,1.0,0.0,0.0,0.0,1.0,1.39150634766,-7.09404785156,8.16701660156,0.1,0.0,0.0,0.0,0.1,0.0,0.0,0.0,0.1
1452008396734188949,250,1452008396730737924,robocape,-16.9431419593,9.58052817041,-93.858532131,0.0,10.0,0.0,0.0,0.0,10.0,0.0,0.0,0.0,10.0,-0.082957467956,0.199071291483,-0.79735043037,1.0,0.0,0.0,0.0,1.0,0.0,0.0,0.0,1.0,5.70014648438,-1.15200439453,12.8780200195,0.1,0.0,0.0,0.0,0.1,0.0,0.0,0.0,0.1
1452008396767436074,251,1452008396764147996,robocape,-17.3172807061,9.89475106681,-93.6934545065,0.0,10.0,0.0,0.0,0.0,10.0,0.0,0.0,0.0,10.0,-0.260856628773,0.328634078516,-0.715058752686,1.0,0.0,0.0,0.0,1.0,0.0,0.0,0.0,1.0,4.09548339844,-6.04742431641,10.5584436035,0.1,0.0,0.0,0.0,0.1,0.0,0.0,0.0,0.1
1452008396800660199,252,1452008396797475099,robocape,-16.8112013964,10.3078170122,-93.1758934534,0.0,10.0,0.0,0.0,0.0,10.0,0.0,0.0,0.0,10.0,0.184956537706,0.273506643951,-0.286689291347,1.0,0.0,0.0,0.0,1.0,0.0,0.0,0.0,1.0,1.68369873047,-4.71818847656,10.7236999512,0.1,0.0,0.0,0.0,0.1,0.0,0.0,0.0,0.1
1452008396833928824,253,1452008396830789089,robocape,-17.0454800101,10.4127221379,-92.8331173078,0.0,10.0,0.0,0.0,0.0,10.0,0.0,0.0,0.0,10.0,-0.193212337085,0.172439680583,-0.538491172414,1.0,0.0,0.0,0.0,1.0,0.0,0.0,0.0,1.0,2.71235961914,-5.22593261719,9.27830566406,0.1,0.0,0.0,0.0,0.1,0.0,0.0,0.0,0.1
1452008396867264366,254,1452008396864192962,robocape,-17.1023168449,10.4341524212,-92.4447613625,0.0,10.0,0.0,0.0,0.0,10.0,0.0,0.0,0.0,10.0,-0.103197492241,0.116380139636,-0.49135322112,1.0,0.0,0.0,0.0,1.0,0.0,0.0,0.0,1.0,1.59747802734,-4.32780029297,11.5990795898,0.1,0.0,0.0,0.0,0.1,0.0,0.0,0.0,0.1
1452008396900658658,255,1452008396897665977,robocape,-17.2260840281,10.3527194543,-92.0030807535,0.0,10.0,0.0,0.0,0.0,10.0,0.0,0.0,0.0,10.0,-0.142612276374,0.0484695318394,-0.446478956752,1.0,0.0,0.0,0.0,1.0,0.0,0.0,0.0,1.0,2.1842578125,-5.93246337891,10.6255041504,0.1,0.0,0.0,0.0,0.1,0.0,0.0,0.0,0.1
1452008396934925074,256,1452008396931821107,robocape,-17.284488256,10.218545466,-91.5851943078,0.0,10.0,0.0,0.0,0.0,10.0,0.0,0.0,0.0,10.0,-0.10732539193,0.0260989786828,-0.467651087418,1.0,0.0,0.0,0.0,1.0,0.0,0.0,0.0,1.0,0.894539794922,-5.47381713867,9.63516357422,0.1,0.0,0.0,0.0,0.1,0.0,0.0,0.0,0.1
1452008396968376158,257,1452008396965301036,robocape,-17.2449909231,10.2431805322,-91.2488653968,0.0,10.0,0.0,0.0,0.0,10.0,0.0,0.0,0.0,10.0,-0.0508663768205,0.124635939016,-0.506799555442,1.0,0.0,0.0,0.0,1.0,0.0,0.0,0.0,1.0,2.13755493164,-6.39709716797,10.484197998,0.1,0.0,0.0,0.0,0.1,0.0,0.0,0.0,0.1
1452008397000764991,258,1452008396997777938,robocape,-17.1602171199,10.4439874325,-90.6641416867,0.0,10.0,0.0,0.0,0.0,10.0,0.0,0.0,0.0,10.0,-0.0423442613323,0.140481747502,-0.210256568062,1.0,0.0,0.0,0.0,1.0,0.0,0.0,0.0,1.0,2.84528320313,-4.08470581055,10.2099682617,0.1,0.0,0.0,0.0,0.1,0.0,0.0,0.0,0.1
1452008397034635824,259,1452008397031538963,robocape,-17.0774268062,10.3409017848,-90.3761330995,0.0,10.0,0.0,0.0,0.0,10.0,0.0,0.0,0.0,10.0,-0.0234358175927,0.0697748205601,-0.551940135919,1.0,0.0,0.0,0.0,1.0,0.0,0.0,0.0,1.0,2.43214233398,-5.24269775391,9.63636108398,0.1,0.0,0.0,0.0,0.1,0.0,0.0,0.0,0.1
1452008397067409324,260,1452008397064383983,robocape,-17.0499557943,10.571781315,-89.8545013203,0.0,10.0,0.0,0.0,0.0,10.0,0.0,0.0,0.0,10.0,-0.067910607797,0.169643361438,-0.249804510249,1.0,0.0,0.0,0.0,1.0,0.0,0.0,0.0,1.0,1.95313842773,-6.39829467773,11.7846936035,0.1,0.0,0.0,0.0,0.1,0.0,0.0,0.0,0.1
1452008397100591741,261,1452008397097578048,robocape,-16.7158663151,10.7447206784,-89.2839952555,0.0,10.0,0.0,0.0,0.0,10.0,0.0,0.0,0.0,10.0,0.0913464253897,0.12476909707,-0.191481282377,1.0,0.0,0.0,0.0,1.0,0.0,0.0,0.0,1.0,1.09452392578,-3.5985168457,8.63763793945,0.1,0.0,0.0,0.0,0.1,0.0,0.0,0.0,0.1
1452008397134288366,262,1452008397131197929,robocape,-16.7685052672,10.805075717,-88.8729188956,0.0,10.0,0.0,0.0,0.0,10.0,0.0,0.0,0.0,10.0,-0.100667489205,0.11145329162,-0.366184649886,1.0,0.0,0.0,0.0,1.0,0.0,0.0,0.0,1.0,2.4141796875,-3.66198486328,9.62318847656,0.1,0.0,0.0,0.0,0.1,0.0,0.0,0.0,0.1
1452008397197926574,263,1452008397164374113,robocape,-16.9646906253,10.5914237377,-88.5150464777,0.0,10.0,0.0,0.0,0.0,10.0,0.0,0.0,0.0,10.0,-0.17323862891,-0.0122505410144,-0.460860026638,1.0,0.0,0.0,0.0,1.0,0.0,0.0,0.0,1.0,3.71587280273,-6.17196533203,10.1405126953,0.1,0.0,0.0,0.0,0.1,0.0,0.0,0.0,0.1
1452008397214619324,264,1452008397211204051,robocape,-16.8977337535,10.7422455521,-87.8305618436,0.0,10.0,0.0,0.0,0.0,10.0,0.0,0.0,0.0,10.0,-0.0576574376002,0.0785632521573,-0.0643153403254,1.0,0.0,0.0,0.0,1.0,0.0,0.0,0.0,1.0,2.15072753906,-3.59612182617,9.57409057617,0.1,0.0,0.0,0.0,0.1,0.0,0.0,0.0,0.1
1452008397238138741,265,1452008397234536886,robocape,-16.8520047898,10.6911358421,-87.3495814611,0.0,10.0,0.0,0.0,0.0,10.0,0.0,0.0,0.0,10.0,-0.0544616442921,0.0298274042089,-0.281895601385,1.0,0.0,0.0,0.0,1.0,0.0,0.0,0.0,1.0,2.69798950195,-4.92416015625,10.136920166,0.1,0.0,0.0,0.0,0.1,0.0,0.0,0.0,0.1
1452008397267745991,266,1452008397264700889,robocape,-16.8133747524,10.7811669759,-86.6310741099,0.0,10.0,0.0,0.0,0.0,10.0,0.0,0.0,0.0,10.0,-0.0747016685767,0.0355532005526,-0.0219710789932,1.0,0.0,0.0,0.0,1.0,0.0,0.0,0.0,1.0,3.01772460938,-5.56482788086,9.94891113281,0.1,0.0,0.0,0.0,0.1,0.0,0.0,0.0,0.1
1452008397300601574,267,1452008397297565937,robocape,-16.7088941011,10.9018818518,-85.857628956,0.0,10.0,0.0,0.0,0.0,10.0,0.0,0.0,0.0,10.0,-0.0439421579863,0.0342216200075,0.048869006003,1.0,0.0,0.0,0.0,1.0,0.0,0.0,0.0,1.0,2.47645019531,-4.70741088867,9.67228637695,0.1,0.0,0.0,0.0,0.1,0.0,0.0,0.0,0.1
1452008397333901908,268,1452008397330826044,robocape,-16.6334211624,11.0078718271,-85.0851627186,0.0,10.0,0.0,0.0,0.0,10.0,0.0,0.0,0.0,10.0,-0.0592553342543,0.0254331884103,0.0569916473277,1.0,0.0,0.0,0.0,1.0,0.0,0.0,0.0,1.0,2.80337036133,-4.91098754883,9.86388793945,0.1,0.0,0.0,0.0,0.1,0.0,0.0,0.0,0.1
1452008397369611199,269,1452008397366569995,robocape,-16.5703194188,11.1634692799,-84.230311751,0.0,10.0,0.0,0.0,0.0,10.0,0.0,0.0,0.0,10.0,-0.0721716655411,0.0275637172823,0.15166702408,1.0,0.0,0.0,0.0,1.0,0.0,0.0,0.0,1.0,1.62861328125,-5.1696496582,9.9213684082,0.1,0.0,0.0,0.0,0.1,0.0,0.0,0.0,0.1
1452008397401031241,270,1452008397397891998,robocape,-16.5629285552,11.3400721625,-83.3363784765,0.0,10.0,0.0,0.0,0.0,10.0,0.0,0.0,0.0,10.0,-0.105194863058,0.0267647689553,0.200136555919,1.0,0.0,0.0,0.0,1.0,0.0,0.0,0.0,1.0,0.952020263672,-5.44627441406,9.99681152344,0.1,0.0,0.0,0.0,0.1,0.0,0.0,0.0,0.1
1452008397434164616,271,1452008397431158065,robocape,-16.4973404139,11.442465498,-82.5797912857,0.0,10.0,0.0,0.0,0.0,10.0,0.0,0.0,0.0,10.0,-0.0644484983799,0.0217047628841,0.0793622004844,1.0,0.0,0.0,0.0,1.0,0.0,0.0,0.0,1.0,0.528101806641,-5.6330859375,10.0626745605,0.1,0.0,0.0,0.0,0.1,0.0,0.0,0.0,0.1
1452008397467316825,272,1452008397464308977,robocape,-16.270489191,11.4828203558,-81.9570625833,0.0,10.0,0.0,0.0,0.0,10.0,0.0,0.0,0.0,10.0,0.0314253008629,0.0211721306661,-0.032756881408,1.0,0.0,0.0,0.0,1.0,0.0,0.0,0.0,1.0,0.505349121094,-5.46423706055,9.97166381836,0.1,0.0,0.0,0.0,0.1,0.0,0.0,0.0,0.1
1452008397500863533,273,1452008397497706890,robocape,-15.9786231746,11.472129217,-81.4174993518,0.0,10.0,0.0,0.0,0.0,10.0,0.0,0.0,0.0,10.0,0.0733700880317,0.0138484376684,-0.101333279478,1.0,0.0,0.0,0.0,1.0,0.0,0.0,0.0,1.0,0.902922363281,-5.56482788086,10.0159716797,0.1,0.0,0.0,0.0,0.1,0.0,0.0,0.0,0.1
1452008397534100866,274,1452008397531075954,robocape,-15.7865688095,11.4821522992,-80.831340945,0.0,10.0,0.0,0.0,0.0,10.0,0.0,0.0,0.0,10.0,0.0178431793035,0.0121173829599,-0.051265850984,1.0,0.0,0.0,0.0,1.0,0.0,0.0,0.0,1.0,1.59628051758,-5.31574584961,9.98244140625,0.1,0.0,0.0,0.0,0.1,0.0,0.0,0.0,0.1
1452008397568875533,275,1452008397565850973,robocape,-15.6259471576,11.5346472103,-80.1944634213,0.0,10.0,0.0,0.0,0.0,10.0,0.0,0.0,0.0,10.0,-0.00239684498107,0.0203731823391,0.00692421883421,1.0,0.0,0.0,0.0,1.0,0.0,0.0,0.0,1.0,2.06091430664,-5.22353759766,9.95130615234,0.1,0.0,0.0,0.0,0.1,0.0,0.0,0.0,0.1
1452008397600794658,276,1452008397597575902,robocape,-15.5166035891,11.6400849261,-79.4837276374,0.0,10.0,0.0,0.0,0.0,10.0,0.0,0.0,0.0,10.0,-0.0354200424981,0.0290284558819,0.0852211548825,1.0,0.0,0.0,0.0,1.0,0.0,0.0,0.0,1.0,1.52562744141,-5.40915161133,9.97286132813,0.1,0.0,0.0,0.0,0.1,0.0,0.0,0.0,0.1
1452008397634179575,277,1452008397631114006,robocape,-15.4169262414,11.7337289777,-78.7897687461,0.0,10.0,0.0,0.0,0.0,10.0,0.0,0.0,0.0,10.0,-0.0391484680242,0.0256995045193,0.0784300941028,1.0,0.0,0.0,0.0,1.0,0.0,0.0,0.0,1.0,0.941242675781,-5.3684362793,10.0075891113,0.1,0.0,0.0,0.0,0.1,0.0,0.0,0.0,0.1
1452008397667877783,278,1452008397664813995,robocape,-15.2542447858,11.7865654248,-78.1787179478,0.0,10.0,0.0,0.0,0.0,10.0,0.0,0.0,0.0,10.0,0.00133158054504,0.0222373951022,0.0141147537774,1.0,0.0,0.0,0.0,1.0,0.0,0.0,0.0,1.0,0.566422119141,-5.36005371094,9.99321899414,0.1,0.0,0.0,0.0,0.1,0.0,0.0,0.0,0.1
1452008397704541366,279,1452008397700906991,robocape,-15.075189279,11.8228535305,-77.6103645038,0.0,10.0,0.0,0.0,0.0,10.0,0.0,0.0,0.0,10.0,0.0141147537774,0.0221042370477,-0.0146473859954,1.0,0.0,0.0,0.0,1.0,0.0,0.0,0.0,1.0,1.05141357422,-5.68098632812,9.97166381836,0.1,0.0,0.0,0.0,0.1,0.0,0.0,0.0,0.1
1452008397737387075,280,1452008397734195947,robocape,-14.9372520442,11.8413401072,-77.0527418989,0.0,10.0,0.0,0.0,0.0,10.0,0.0,0.0,0.0,10.0,-0.00612527050718,0.0143810698864,-0.0187752856851,1.0,0.0,0.0,0.0,1.0,0.0,0.0,0.0,1.0,1.37474121094,-5.36244873047,9.95130615234,0.1,0.0,0.0,0.0,0.1,0.0,0.0,0.0,0.1
1452008397770051616,281,1452008397766866922,robocape,-14.8116387625,11.8997805077,-76.4557280598,0.0,10.0,0.0,0.0,0.0,10.0,0.0,0.0,0.0,10.0,-0.015845808486,0.0250337142467,0.0259658206283,1.0,0.0,0.0,0.0,1.0,0.0,0.0,0.0,1.0,0.693358154297,-5.48459472656,9.89861572266,0.1,0.0,0.0,0.0,0.1,0.0,0.0,0.0,0.1
1452008397804698200,282,1452008397801654100,robocape,-14.6739353351,11.8812212824,-75.9344647517,0.0,10.0,0.0,0.0,0.0,10.0,0.0,0.0,0.0,10.0,-0.00226368692657,0.000798948327024,-0.0372842552611,1.0,0.0,0.0,0.0,1.0,0.0,0.0,0.0,1.0,0.209564208984,-5.59356811523,9.9213684082,0.1,0.0,0.0,0.0,0.1,0.0,0.0,0.0,0.1
1452008397837594325,283,1452008397834539890,robocape,-14.5046258506,11.9155750179,-75.4679896042,0.0,10.0,0.0,0.0,0.0,10.0,0.0,0.0,0.0,10.0,0.0197073920666,0.0379500455336,-0.0664458691975,1.0,0.0,0.0,0.0,1.0,0.0,0.0,0.0,1.0,0.767603759766,-5.77558959961,9.89143066406,0.1,0.0,0.0,0.0,0.1,0.0,0.0,0.0,0.1
1452008397870946325,284,1452008397867680072,robocape,-14.3186918816,12.0207365156,-74.9089462905,0.0,10.0,0.0,0.0,0.0,10.0,0.0,0.0,0.0,10.0,0.0203731823391,0.0539290120741,0.0229031853747,1.0,0.0,0.0,0.0,1.0,0.0,0.0,0.0,1.0,0.753233642578,-5.23910522461,10.2794238281,0.1,0.0,0.0,0.0,0.1,0.0,0.0,0.0,0.1
1452008397903522283,285,1452008397900428056,robocape,-14.2816936979,12.0341166061,-74.4068618634,0.0,10.0,0.0,0.0,0.0,10.0,0.0,0.0,0.0,10.0,-0.0524642734746,0.0183758115215,-0.0294279300454,1.0,0.0,0.0,0.0,1.0,0.0,0.0,0.0,1.0,-0.285007324219,-4.11464355469,9.02084106445,0.1,0.0,0.0,0.0,0.1,0.0,0.0,0.0,0.1
1452008397936920366,286,1452008397933824062,robocape,-14.8038263395,11.8704251472,-74.3411687626,0.0,10.0,0.0,0.0,0.0,10.0,0.0,0.0,0.0,10.0,-0.307994580068,0.017976337358,-0.398941531294,1.0,0.0,0.0,0.0,1.0,0.0,0.0,0.0,1.0,-0.513731689453,-6.81023803711,9.83395019531,0.1,0.0,0.0,0.0,0.1,0.0,0.0,0.0,0.1
1452008397970647950,287,1452008397967377901,robocape,-15.1697194737,11.9058473746,-74.524633797,0.0,10.0,0.0,0.0,0.0,10.0,0.0,0.0,0.0,10.0,-0.206528142536,0.172972312801,-0.566188047751,1.0,0.0,0.0,0.0,1.0,0.0,0.0,0.0,1.0,0.193996582031,-7.21260131836,10.2411035156,0.1,0.0,0.0,0.0,0.1,0.0,0.0,0.0,0.1
1452008398002423825,288,1452008397999402999,robocape,-15.2370861962,12.0062072713,-74.8714005439,0.0,10.0,0.0,0.0,0.0,10.0,0.0,0.0,0.0,10.0,-0.0354200424981,0.242747133361,-0.683766609878,1.0,0.0,0.0,0.0,1.0,0.0,0.0,0.0,1.0,-0.154478759766,-6.58271118164,10.7236999512,0.1,0.0,0.0,0.0,0.1,0.0,0.0,0.0,0.1
1452008398035834491,289,1452008398032726049,robocape,-14.9791624084,12.3037197112,-75.2397650102,0.0,10.0,0.0,0.0,0.0,10.0,0.0,0.0,0.0,10.0,0.140082273338,0.348740944746,-0.674711862172,1.0,0.0,0.0,0.0,1.0,0.0,0.0,0.0,1.0,-0.382005615234,-6.36715942383,10.1189575195,0.1,0.0,0.0,0.0,0.1,0.0,0.0,0.0,0.1
1452008398069214408,290,1452008398066200017,robocape,-14.455518692,12.5231754398,-75.5992034122,0.0,10.0,0.0,0.0,0.0,10.0,0.0,0.0,0.0,10.0,0.284292446366,0.306929315632,-0.682967661551,1.0,0.0,0.0,0.0,1.0,0.0,0.0,0.0,1.0,-1.63579833984,-6.52523071289,9.82077758789,0.1,0.0,0.0,0.0,0.1,0.0,0.0,0.0,0.1
1452008398101461283,291,1452008398098404884,robocape,-14.0375514422,12.774194477,-75.8103461086,0.0,10.0,0.0,0.0,0.0,10.0,0.0,0.0,0.0,10.0,0.218379209386,0.292148771582,-0.572712792422,1.0,0.0,0.0,0.0,1.0,0.0,0.0,0.0,1.0,-2.46327758789,-5.61632080078,10.9632019043,0.1,0.0,0.0,0.0,0.1,0.0,0.0,0.0,0.1
1452008398134773075,292,1452008398131525039,robocape,-13.67066971,12.9862594954,-75.3920785392,0.0,10.0,0.0,0.0,0.0,10.0,0.0,0.0,0.0,10.0,0.129429628978,0.142878592483,-0.0802943068659,1.0,0.0,0.0,0.0,1.0,0.0,0.0,0.0,1.0,-3.10993286133,-1.65016845703,9.01605102539,0.1,0.0,0.0,0.0,0.1,0.0,0.0,0.0,0.1
1452008398168614325,293,1452008398165513038,robocape,-13.8899453371,12.9177852322,-75.3484955839,0.0,10.0,0.0,0.0,0.0,10.0,0.0,0.0,0.0,10.0,-0.139017008902,0.0756337749583,-0.413855233398,1.0,0.0,0.0,0.0,1.0,0.0,0.0,0.0,1.0,-1.44299926758,-4.06315063477,9.47589477539,0.1,0.0,0.0,0.0,0.1,0.0,0.0,0.0,0.1
1452008398201098950,294,1452008398198035955,robocape,-14.1944695162,12.8572474079,-75.2779228882,0.0,10.0,0.0,0.0,0.0,10.0,0.0,0.0,0.0,10.0,-0.188285489069,0.0748348266312,-0.392150470514,1.0,0.0,0.0,0.0,1.0,0.0,0.0,0.0,1.0,-1.6825012207,-5.06905883789,10.2674487305,0.1,0.0,0.0,0.0,0.1,0.0,0.0,0.0,0.1
1452008398234320450,295,1452008398231235980,robocape,-14.5754062155,12.6531119725,-75.2061415469,0.0,10.0,0.0,0.0,0.0,10.0,0.0,0.0,0.0,10.0,-0.230496592346,0.00173105470855,-0.409727333709,1.0,0.0,0.0,0.0,1.0,0.0,0.0,0.0,1.0,-0.416733398438,-5.71212158203,10.4111499023,0.1,0.0,0.0,0.0,0.1,0.0,0.0,0.0,0.1
1452008398267951783,296,1452008398264820098,robocape,-14.6990800809,12.8355515002,-75.7411867093,0.0,10.0,0.0,0.0,0.0,10.0,0.0,0.0,0.0,10.0,-0.0364853069341,0.328634078516,-0.839295217538,1.0,0.0,0.0,0.0,1.0,0.0,0.0,0.0,1.0,0.686173095703,-7.26289672852,8.34305053711,0.1,0.0,0.0,0.0,0.1,0.0,0.0,0.0,0.1
1452008398300605908,297,1452008398297554016,robocape,-15.1518222386,13.3469039087,-76.0689683787,0.0,10.0,0.0,0.0,0.0,10.0,0.0,0.0,0.0,10.0,-0.230629750401,0.459395288039,-0.645816564344,1.0,0.0,0.0,0.0,1.0,0.0,0.0,0.0,1.0,1.90164550781,-3.78293334961,10.8135131836,0.1,0.0,0.0,0.0,0.1,0.0,0.0,0.0,0.1
1452008398334254533,298,1452008398331031084,robocape,-15.0689057346,13.5735056968,-76.3960544763,0.0,10.0,0.0,0.0,0.0,10.0,0.0,0.0,0.0,10.0,0.0545948023466,0.31811459221,-0.680304500461,1.0,0.0,0.0,0.0,1.0,0.0,0.0,0.0,1.0,2.96024414063,-3.27638671875,8.41969116211,0.1,0.0,0.0,0.0,0.1,0.0,0.0,0.0,0.1
1452008398369391742,299,1452008398366141080,robocape,-15.3628653198,13.8271432136,-76.7707950432,0.0,10.0,0.0,0.0,0.0,10.0,0.0,0.0,0.0,10.0,-0.137685428357,0.347276206146,-0.727708767864,1.0,0.0,0.0,0.0,1.0,0.0,0.0,0.0,1.0,2.66685424805,-4.53616699219,11.8553466797,0.1,0.0,0.0,0.0,0.1,0.0,0.0,0.0,0.1
1452008398400979283,300,1452008398397969007,robocape,-15.6003634448,13.9964140545,-77.0812837974,0.0,10.0,0.0,0.0,0.0,10.0,0.0,0.0,0.0,10.0,-0.114515926873,0.294811932672,-0.693620305911,1.0,0.0,0.0,0.0,1.0,0.0,0.0,0.0,1.0,-1.68609375,-4.65711547852,9.89143066406,0.1,0.0,0.0,0.0,0.1,0.0,0.0,0.0,0.1
1452008398434492742,301,1452008398431150913,robocape,-15.8793570971,14.0804387049,-77.0286701513,0.0,10.0,0.0,0.0,0.0,10.0,0.0,0.0,0.0,10.0,-0.177233370545,0.171241258092,-0.41864892336,1.0,0.0,0.0,0.0,1.0,0.0,0.0,0.0,1.0,2.90515869141,-5.65823364258,12.2145996094,0.1,0.0,0.0,0.0,0.1,0.0,0.0,0.0,0.1
1452008398467654283,302,1452008398464525938,robocape,-15.7317612261,14.0077961479,-76.7260949216,0.0,10.0,0.0,0.0,0.0,10.0,0.0,0.0,0.0,10.0,0.0195742340121,0.0323574072445,-0.231428698728,1.0,0.0,0.0,0.0,1.0,0.0,0.0,0.0,1.0,0.603544921875,-3.61049194336,7.09165283203,0.1,0.0,0.0,0.0,0.1,0.0,0.0,0.0,0.1
1452008398500581575,303,1452008398497519969,robocape,-15.6050247925,14.0669351538,-76.8503397343,0.0,10.0,0.0,0.0,0.0,10.0,0.0,0.0,0.0,10.0,0.0567253312187,0.196674446502,-0.551008029537,1.0,0.0,0.0,0.0,1.0,0.0,0.0,0.0,1.0,-0.00119750976563,-5.61512329102,10.1429077148,0.1,0.0,0.0,0.0,0.1,0.0,0.0,0.0,0.1
1452008398534665117,304,1452008398531177997,robocape,-15.7018440223,14.2509717274,-76.929175672,0.0,10.0,0.0,0.0,0.0,10.0,0.0,0.0,0.0,10.0,-0.065780078925,0.251402406903,-0.503470604079,1.0,0.0,0.0,0.0,1.0,0.0,0.0,0.0,1.0,-0.305364990234,-4.90020996094,9.61001586914,0.1,0.0,0.0,0.0,0.1,0.0,0.0,0.0,0.1
1452008398567434075,305,1452008398564389944,robocape,-15.7665883751,14.1711556089,-77.0360791591,0.0,10.0,0.0,0.0,0.0,10.0,0.0,0.0,0.0,10.0,-0.0451405804768,0.12476909707,-0.563125412497,1.0,0.0,0.0,0.0,1.0,0.0,0.0,0.0,1.0,1.70525390625,-4.675078125,11.0458300781,0.1,0.0,0.0,0.0,0.1,0.0,0.0,0.0,0.1
1452008398601023367,306,1452008398597933053,robocape,-16.1188530215,14.4164369774,-77.2855943414,0.0,10.0,0.0,0.0,0.0,10.0,0.0,0.0,0.0,10.0,-0.182027060507,0.326370391589,-0.639424977728,1.0,0.0,0.0,0.0,1.0,0.0,0.0,0.0,1.0,0.839454345703,-6.10370727539,9.87107299805,0.1,0.0,0.0,0.0,0.1,0.0,0.0,0.0,0.1
1452008398634301158,307,1452008398631161928,robocape,-16.2096306848,14.317922697,-77.533072431,0.0,10.0,0.0,0.0,0.0,10.0,0.0,0.0,0.0,10.0,-0.0440753160408,0.154063869061,-0.68709556124,1.0,0.0,0.0,0.0,1.0,0.0,0.0,0.0,1.0,2.56626342773,-2.9542565918,8.52626953125,0.1,0.0,0.0,0.0,0.1,0.0,0.0,0.0,0.1
1452008398667669492,308,1452008398664494991,robocape,-16.7330576965,14.3708133523,-77.6131827156,0.0,10.0,0.0,0.0,0.0,10.0,0.0,0.0,0.0,10.0,-0.293613510181,0.194677075685,-0.542485914049,1.0,0.0,0.0,0.0,1.0,0.0,0.0,0.0,1.0,2.36388427734,-3.40452026367,10.5117407227,0.1,0.0,0.0,0.0,0.1,0.0,0.0,0.0,0.1
1452008398701191783,309,1452008398698146104,robocape,-16.7490574118,14.4232894807,-77.6855583073,0.0,10.0,0.0,0.0,0.0,10.0,0.0,0.0,0.0,10.0,-0.0280963495003,0.193212337085,-0.52890379249,1.0,0.0,0.0,0.0,1.0,0.0,0.0,0.0,1.0,1.46096191406,-5.6366784668,9.53337524414,0.1,0.0,0.0,0.0,0.1,0.0,0.0,0.0,0.1
1452008398733979033,310,1452008398730926990,robocape,-16.7072180523,14.4784727911,-77.9248416269,0.0,10.0,0.0,0.0,0.0,10.0,0.0,0.0,0.0,10.0,0.0218379209386,0.23622238869,-0.664059217811,1.0,0.0,0.0,0.0,1.0,0.0,0.0,0.0,1.0,-0.354462890625,-6.46296020508,10.1177600098,0.1,0.0,0.0,0.0,0.1,0.0,0.0,0.0,0.1
1452008398767259867,311,1452008398764193058,robocape,-16.7032281927,14.7123642452,-78.0394669298,0.0,10.0,0.0,0.0,0.0,10.0,0.0,0.0,0.0,10.0,-0.0117179087963,0.297741409871,-0.54221959794,1.0,0.0,0.0,0.0,1.0,0.0,0.0,0.0,1.0,1.40827148438,-4.85111206055,9.79682739258,0.1,0.0,0.0,0.0,0.1,0.0,0.0,0.0,0.1
1452008398800604242,312,1452008398797528028,robocape,-16.4989012177,14.9664482432,-78.3885078307,0.0,10.0,0.0,0.0,0.0,10.0,0.0,0.0,0.0,10.0,0.123970148743,0.367116756267,-0.729173506464,1.0,0.0,0.0,0.0,1.0,0.0,0.0,0.0,1.0,-0.452658691406,-6.14442260742,10.152487793,0.1,0.0,0.0,0.0,0.1,0.0,0.0,0.0,0.1
1452008398833836408,313,1452008398830799102,robocape,-17.1152536143,14.9440437032,-78.756183119,0.0,10.0,0.0,0.0,0.0,10.0,0.0,0.0,0.0,10.0,-0.306263525359,0.238219759508,-0.806405178076,1.0,0.0,0.0,0.0,1.0,0.0,0.0,0.0,1.0,0.833466796875,-5.67260375977,10.0866247559,0.1,0.0,0.0,0.0,0.1,0.0,0.0,0.0,0.1
1452008398867327117,314,1452008398864132881,robocape,-17.2697895397,14.5838493338,-78.8448325225,0.0,10.0,0.0,0.0,0.0,10.0,0.0,0.0,0.0,10.0,-0.0982706442239,0.000133158054504,-0.631036020294,1.0,0.0,0.0,0.0,1.0,0.0,0.0,0.0,1.0,2.81654296875,-4.19966674805,11.3452075195,0.1,0.0,0.0,0.0,0.1,0.0,0.0,0.0,0.1
1452008398900649534,315,1452008398897633075,robocape,-17.4166490527,14.4278524548,-78.901777788,0.0,10.0,0.0,0.0,0.0,10.0,0.0,0.0,0.0,10.0,-0.100667489205,0.0949416928613,-0.576574376002,1.0,0.0,0.0,0.0,1.0,0.0,0.0,0.0,1.0,-0.415535888672,-4.37809570313,11.511661377,0.1,0.0,0.0,0.0,0.1,0.0,0.0,0.0,0.1
1452008398935114075,316,1452008398931405067,robocape,-17.7328363722,14.4837747471,-78.8361215196,0.0,10.0,0.0,0.0,0.0,10.0,0.0,0.0,0.0,10.0,-0.205729194209,0.171640732256,-0.447544221188,1.0,0.0,0.0,0.0,1.0,0.0,0.0,0.0,1.0,3.83322875977,-5.79115722656,9.54056030273,0.1,0.0,0.0,0.0,0.1,0.0,0.0,0.0,0.1
1452008398967679992,317,1452008398964461088,robocape,-17.708183692,14.5356556508,-78.69171688,0.0,10.0,0.0,0.0,0.0,10.0,0.0,0.0,0.0,10.0,-0.0352868844435,0.148204914663,-0.375505713701,1.0,0.0,0.0,0.0,1.0,0.0,0.0,0.0,1.0,2.1040246582,-5.5564453125,9.11304931641,0.1,0.0,0.0,0.0,0.1,0.0,0.0,0.0,0.1
1452008399000800075,318,1452008398997494935,robocape,-17.6581824139,15.194997851,-79.0727869679,0.0,10.0,0.0,0.0,0.0,10.0,0.0,0.0,0.0,10.0,0.0384826777516,0.591488078107,-0.703207685835,1.0,0.0,0.0,0.0,1.0,0.0,0.0,0.0,1.0,4.12781616211,-3.36500244141,10.4327050781,0.1,0.0,0.0,0.0,0.1,0.0,0.0,0.0,0.1
1452008399034831575,319,1452008399031213998,robocape,-17.5929436757,15.245430925,-79.356136104,0.0,10.0,0.0,0.0,0.0,10.0,0.0,0.0,0.0,10.0,0.0403468905147,0.264185580136,-0.729306664518,1.0,0.0,0.0,0.0,1.0,0.0,0.0,0.0,1.0,2.69319946289,-3.20333862305,8.32987792969,0.1,0.0,0.0,0.0,0.1,0.0,0.0,0.0,0.1
1452008399067588409,320,1452008399064168930,robocape,-18.1634399032,15.6792415356,-79.8455686146,0.0,10.0,0.0,0.0,0.0,10.0,0.0,0.0,0.0,10.0,-0.270843482861,0.518916938402,-0.854741551861,1.0,0.0,0.0,0.0,1.0,0.0,0.0,0.0,1.0,1.55436767578,-5.33370849609,8.81846191406,0.1,0.0,0.0,0.0,0.1,0.0,0.0,0.0,0.1
1452008399100578159,321,1452008399097426891,robocape,-18.3257366701,15.2389301741,-79.894482632,0.0,10.0,0.0,0.0,0.0,10.0,0.0,0.0,0.0,10.0,-0.108656972475,-0.0334226716805,-0.637560764965,1.0,0.0,0.0,0.0,1.0,0.0,0.0,0.0,1.0,-1.49928222656,-5.05708374023,8.07361083984,0.1,0.0,0.0,0.0,0.1,0.0,0.0,0.0,0.1
1452008399134394992,322,1452008399131011962,robocape,-18.1730834013,15.2057200509,-79.8778194907,0.0,10.0,0.0,0.0,0.0,10.0,0.0,0.0,0.0,10.0,0.0474042674034,0.15020228548,-0.511992719568,1.0,0.0,0.0,0.0,1.0,0.0,0.0,0.0,1.0,-2.60458374023,-7.12638061523,11.0733728027,0.1,0.0,0.0,0.0,0.1,0.0,0.0,0.0,0.1
1452008399167846367,323,1452008399164572954,robocape,-18.327553349,15.149547882,-79.7765655558,0.0,10.0,0.0,0.0,0.0,10.0,0.0,0.0,0.0,10.0,-0.12476909707,0.1167796138,-0.452071595041,1.0,0.0,0.0,0.0,1.0,0.0,0.0,0.0,1.0,1.21307739258,-6.52642822266,9.10586425781,0.1,0.0,0.0,0.0,0.1,0.0,0.0,0.0,0.1
1452008399200754617,324,1452008399197678089,robocape,-17.9440316699,15.3316986284,-79.9057299007,0.0,10.0,0.0,0.0,0.0,10.0,0.0,0.0,0.0,10.0,0.186820750469,0.29534456489,-0.589490707289,1.0,0.0,0.0,0.0,1.0,0.0,0.0,0.0,1.0,-1.6896862793,-5.47501464844,11.2039013672,0.1,0.0,0.0,0.0,0.1,0.0,0.0,0.0,0.1
1452008399233939450,325,1452008399230861902,robocape,-17.7719694641,15.4231564174,-79.6515480625,0.0,10.0,0.0,0.0,0.0,10.0,0.0,0.0,0.0,10.0,0.0312921428084,0.148204914663,-0.296143513217,1.0,0.0,0.0,0.0,1.0,0.0,0.0,0.0,1.0,0.975970458984,-4.72896606445,9.34776123047,0.1,0.0,0.0,0.0,0.1,0.0,0.0,0.0,0.1
1452008399267248992,326,1452008399264158964,robocape,-18.013822057,15.0379033781,-79.5259484145,0.0,10.0,0.0,0.0,0.0,10.0,0.0,0.0,0.0,10.0,-0.170974941983,-0.0567253312187,-0.481233208977,1.0,0.0,0.0,0.0,1.0,0.0,0.0,0.0,1.0,6.52523071289,-3.75778564453,12.0289855957,0.1,0.0,0.0,0.0,0.1,0.0,0.0,0.0,0.1
1452008399300643825,327,1452008399297597885,robocape,-17.9189000242,15.4315559524,-79.9983709048,0.0,10.0,0.0,0.0,0.0,10.0,0.0,0.0,0.0,10.0,0.0759000910673,0.49255164361,-0.839162059484,1.0,0.0,0.0,0.0,1.0,0.0,0.0,0.0,1.0,4.22720947266,-3.21770874023,9.94052856445,0.1,0.0,0.0,0.0,0.1,0.0,0.0,0.0,0.1
1452008399335395742,328,1452008399332309007,robocape,-18.5227272637,15.8160926547,-80.0850404278,0.0,10.0,0.0,0.0,0.0,10.0,0.0,0.0,0.0,10.0,-0.337955142331,0.392683102732,-0.544350126812,1.0,0.0,0.0,0.0,1.0,0.0,0.0,0.0,1.0,4.43916870117,-3.74581054688,8.10115356445,0.1,0.0,0.0,0.0,0.1,0.0,0.0,0.0,0.1
1452008399371622867,329,1452008399366064071,robocape,-19.2900583651,15.5826902323,-80.2802402173,0.0,10.0,0.0,0.0,0.0,10.0,0.0,0.0,0.0,10.0,-0.41332260118,0.120508039326,-0.742755628023,1.0,0.0,0.0,0.0,1.0,0.0,0.0,0.0,1.0,0.880169677734,-4.16374145508,10.9344616699,0.1,0.0,0.0,0.0,0.1,0.0,0.0,0.0,0.1
1452008399401344700,330,1452008399398062944,robocape,-19.4677336299,15.2142882079,-80.1507084387,0.0,10.0,0.0,0.0,0.0,10.0,0.0,0.0,0.0,10.0,-0.1448759633,-0.0378168874791,-0.493883224155,1.0,0.0,0.0,0.0,1.0,0.0,0.0,0.0,1.0,3.03209472656,-4.57688232422,9.44954956055,0.1,0.0,0.0,0.0,0.1,0.0,0.0,0.0,0.1
1452008399435490159,331,1452008399432235956,robocape,-18.9243481052,14.857183911,-79.5997692248,0.0,10.0,0.0,0.0,0.0,10.0,0.0,0.0,0.0,10.0,0.187353382687,-0.15845808486,-0.125568045397,1.0,0.0,0.0,0.0,1.0,0.0,0.0,0.0,1.0,1.4178515625,-5.36364624023,12.2960302734,0.1,0.0,0.0,0.0,0.1,0.0,0.0,0.0,0.1
1452008399469114492,332,1452008399465518951,robocape,-18.8056816077,15.3767093086,-79.506457917,0.0,10.0,0.0,0.0,0.0,10.0,0.0,0.0,0.0,10.0,0.0154463343225,0.404401011529,-0.34767568031,1.0,0.0,0.0,0.0,1.0,0.0,0.0,0.0,1.0,1.48251708984,-6.5108605957,10.6087390137,0.1,0.0,0.0,0.0,0.1,0.0,0.0,0.0,0.1
1452008399502178742,333,1452008399499097108,robocape,-18.6399266319,15.5866318396,-79.4507806577,0.0,10.0,0.0,0.0,0.0,10.0,0.0,0.0,0.0,10.0,0.0474042674034,0.261921893209,-0.429701041884,1.0,0.0,0.0,0.0,1.0,0.0,0.0,0.0,1.0,1.27894042969,-4.10985351563,9.09987670898,0.1,0.0,0.0,0.0,0.1,0.0,0.0,0.0,0.1
1452008399534625575,334,1452008399531301021,robocape,-18.6670151618,15.6750544868,-79.0109072114,0.0,10.0,0.0,0.0,0.0,10.0,0.0,0.0,0.0,10.0,-0.0997353828235,0.0969390636789,-0.140881221665,1.0,0.0,0.0,0.0,1.0,0.0,0.0,0.0,1.0,4.47748901367,-3.15663574219,8.4268762207,0.1,0.0,0.0,0.0,0.1,0.0,0.0,0.0,0.1
1452008399569076034,335,1452008399565803050,robocape,-19.2139911056,16.1238798127,-78.9929329563,0.0,10.0,0.0,0.0,0.0,10.0,0.0,0.0,0.0,10.0,-0.324373020772,0.395079947713,-0.423176297214,1.0,0.0,0.0,0.0,1.0,0.0,0.0,0.0,1.0,4.25115966797,-7.52155883789,9.12741943359,0.1,0.0,0.0,0.0,0.1,0.0,0.0,0.0,0.1
1452008399606878326,336,1452008399603748083,robocape,-19.1023458482,16.1743576993,-78.9441721189,0.0,10.0,0.0,0.0,0.0,10.0,0.0,0.0,0.0,10.0,0.0201068662301,0.187220224633,-0.452071595041,1.0,0.0,0.0,0.0,1.0,0.0,0.0,0.0,1.0,1.70285888672,-6.13364501953,9.6914465332,0.1,0.0,0.0,0.0,0.1,0.0,0.0,0.0,0.1
1452008399635289909,337,1452008399632102966,robocape,-18.8079182136,16.0116275675,-78.6805568581,0.0,10.0,0.0,0.0,0.0,10.0,0.0,0.0,0.0,10.0,0.0906806351172,0.0189084437396,-0.310657741158,1.0,0.0,0.0,0.0,1.0,0.0,0.0,0.0,1.0,2.35550170898,-4.98762817383,11.3284423828,0.1,0.0,0.0,0.0,0.1,0.0,0.0,0.0,0.1
1452008399672212534,338,1452008399668755054,robocape,-19.0208258683,15.93064112,-78.6332082557,0.0,10.0,0.0,0.0,0.0,10.0,0.0,0.0,0.0,10.0,-0.15020228548,0.120108565163,-0.476439519015,1.0,0.0,0.0,0.0,1.0,0.0,0.0,0.0,1.0,1.39390136719,-5.12055175781,8.41729614258,0.1,0.0,0.0,0.0,0.1,0.0,0.0,0.0,0.1
1452008399705933867,339,1452008399701280117,robocape,-19.1946652308,15.9042508365,-78.6280984965,0.0,10.0,0.0,0.0,0.0,10.0,0.0,0.0,0.0,10.0,-0.125834361506,0.159257033187,-0.499609020499,1.0,0.0,0.0,0.0,1.0,0.0,0.0,0.0,1.0,1.05859863281,-6.01868408203,11.4817236328,0.1,0.0,0.0,0.0,0.1,0.0,0.0,0.0,0.1
1452008399738852951,340,1452008399735135078,robocape,-19.1813516842,15.925449889,-78.4544158096,0.0,10.0,0.0,0.0,0.0,10.0,0.0,0.0,0.0,10.0,-0.0483363737849,0.135155425322,-0.352069896108,1.0,0.0,0.0,0.0,1.0,0.0,0.0,0.0,1.0,1.53041748047,-5.44986694336,9.98244140625,0.1,0.0,0.0,0.0,0.1,0.0,0.0,0.0,0.1
1452008399771669159,341,1452008399767175912,robocape,-18.8771075322,15.9949231778,-78.2422258568,0.0,10.0,0.0,0.0,0.0,10.0,0.0,0.0,0.0,10.0,0.101066963369,0.145808069682,-0.303467206215,1.0,0.0,0.0,0.0,1.0,0.0,0.0,0.0,1.0,2.0273840332,-6.56235351563,10.1644628906,0.1,0.0,0.0,0.0,0.1,0.0,0.0,0.0,0.1
1452008399804168826,342,1452008399801059961,robocape,-18.6202707056,16.3016616536,-78.1376912081,0.0,10.0,0.0,0.0,0.0,10.0,0.0,0.0,0.0,10.0,0.0908137931717,0.293480352127,-0.347409364201,1.0,0.0,0.0,0.0,1.0,0.0,0.0,0.0,1.0,0.382005615234,-5.34089355469,10.3153491211,0.1,0.0,0.0,0.0,0.1,0.0,0.0,0.0,0.1
1452008399838120284,343,1452008399834713935,robocape,-18.6800787816,16.356980885,-78.0486807299,0.0,10.0,0.0,0.0,0.0,10.0,0.0,0.0,0.0,10.0,-0.0725711397047,0.173904419182,-0.406132066237,1.0,0.0,0.0,0.0,1.0,0.0,0.0,0.0,1.0,2.88839355469,-4.7864465332,10.8111181641,0.1,0.0,0.0,0.0,0.1,0.0,0.0,0.0,0.1
1452008399876945617,344,1452008399868431091,robocape,-18.6304351619,16.2585071779,-77.8782487225,0.0,10.0,0.0,0.0,0.0,10.0,0.0,0.0,0.0,10.0,-0.0251668723012,0.0737695621952,-0.362855698523,1.0,0.0,0.0,0.0,1.0,0.0,0.0,0.0,1.0,-0.0610729980469,-6.79706542969,8.3191003418,0.1,0.0,0.0,0.0,0.1,0.0,0.0,0.0,0.1
1452008399904915992,345,1452008399901597976,robocape,-18.7406960422,16.1554336965,-77.9638255895,0.0,10.0,0.0,0.0,0.0,10.0,0.0,0.0,0.0,10.0,-0.0772316716123,0.140748063611,-0.567253312187,1.0,0.0,0.0,0.0,1.0,0.0,0.0,0.0,1.0,2.55428833008,-6.06778198242,12.4409289551,0.1,0.0,0.0,0.0,0.1,0.0,0.0,0.0,0.1
1452008399938261076,346,1452008399934406995,robocape,-18.8944295171,16.2321947347,-77.683561432,0.0,10.0,0.0,0.0,0.0,10.0,0.0,0.0,0.0,10.0,-0.147805440499,0.131693315904,-0.249405036086,1.0,0.0,0.0,0.0,1.0,0.0,0.0,0.0,1.0,1.93278076172,-4.07033569336,9.58486816406,0.1,0.0,0.0,0.0,0.1,0.0,0.0,0.0,0.1
1452008399969782117,347,1452008399966357946,robocape,-18.7127103675,16.270768249,-77.4933852689,0.0,10.0,0.0,0.0,0.0,10.0,0.0,0.0,0.0,10.0,0.0406132066237,0.134489635049,-0.31545143112,1.0,0.0,0.0,0.0,1.0,0.0,0.0,0.0,1.0,1.15679443359,-4.17092651367,9.42080932617,0.1,0.0,0.0,0.0,0.1,0.0,0.0,0.0,0.1
1452008400004889034,348,1452008400001681089,robocape,-18.8478831139,16.1820434638,-77.2307816157,0.0,10.0,0.0,0.0,0.0,10.0,0.0,0.0,0.0,10.0,-0.135421741431,0.051798483202,-0.282561391657,1.0,0.0,0.0,0.0,1.0,0.0,0.0,0.0,1.0,2.77223510742,-4.18290161133,9.64234863281,0.1,0.0,0.0,0.0,0.1,0.0,0.0,0.0,0.1
1452008400038810117,349,1452008400035691022,robocape,-19.1615544315,16.1895519414,-76.9088317913,0.0,10.0,0.0,0.0,0.0,10.0,0.0,0.0,0.0,10.0,-0.238352917562,0.0836232582285,-0.219710789932,1.0,0.0,0.0,0.0,1.0,0.0,0.0,0.0,1.0,3.21770874023,-5.97677124023,11.0901379395,0.1,0.0,0.0,0.0,0.1,0.0,0.0,0.0,0.1
1452008400071057534,350,1452008400067935943,robocape,-19.1211803902,16.3076358757,-76.4924261032,0.0,10.0,0.0,0.0,0.0,10.0,0.0,0.0,0.0,10.0,-0.0644484983799,0.109855394966,-0.1153148752,1.0,0.0,0.0,0.0,1.0,0.0,0.0,0.0,1.0,2.25491088867,-6.30728393555,9.66150878906,0.1,0.0,0.0,0.0,0.1,0.0,0.0,0.0,0.1
1452008400103741076,351,1452008400100238084,robocape,-19.1153723561,16.4737385733,-76.1246246345,0.0,10.0,0.0,0.0,0.0,10.0,0.0,0.0,0.0,10.0,-0.0766990393943,0.146207543845,-0.139682799175,1.0,0.0,0.0,0.0,1.0,0.0,0.0,0.0,1.0,1.70166137695,-4.88104980469,10.1608703613,0.1,0.0,0.0,0.0,0.1,0.0,0.0,0.0,0.1
1452008400137088951,352,1452008400133857965,robocape,-19.1709795437,16.4502437927,-75.8422451317,0.0,10.0,0.0,0.0,0.0,10.0,0.0,0.0,0.0,10.0,-0.0980043281149,0.0741690363587,-0.233159753436,1.0,0.0,0.0,0.0,1.0,0.0,0.0,0.0,1.0,0.925675048828,-4.80440917969,10.2446960449,0.1,0.0,0.0,0.0,0.1,0.0,0.0,0.0,0.1
1452008400171385117,353,1452008400168163061,robocape,-19.1340610828,16.5182458356,-75.6480476276,0.0,10.0,0.0,0.0,0.0,10.0,0.0,0.0,0.0,10.0,-0.0382163616426,0.142079644156,-0.27909928224,1.0,0.0,0.0,0.0,1.0,0.0,0.0,0.0,1.0,2.13396240234,-7.5071887207,8.98611328125,0.1,0.0,0.0,0.0,0.1,0.0,0.0,0.0,0.1
1452008400203919409,354,1452008400200654029,robocape,-18.9728698726,16.6959220204,-75.2939639587,0.0,10.0,0.0,0.0,0.0,10.0,0.0,0.0,0.0,10.0,0.00692421883421,0.152332814353,-0.133024896449,1.0,0.0,0.0,0.0,1.0,0.0,0.0,0.0,1.0,1.42862915039,-4.44755126953,12.3918310547,0.1,0.0,0.0,0.0,0.1,0.0,0.0,0.0,0.1
1452008400235987409,355,1452008400232793092,robocape,-18.9593963614,16.4841118643,-75.0412781899,0.0,10.0,0.0,0.0,0.0,10.0,0.0,0.0,0.0,10.0,-0.0567253312187,-0.015579492377,-0.272308221461,1.0,0.0,0.0,0.0,1.0,0.0,0.0,0.0,1.0,2.5710534668,-5.50734741211,7.56586669922,0.1,0.0,0.0,0.0,0.1,0.0,0.0,0.0,0.1
1452008400272011618,356,1452008400268987894,robocape,-18.7021121597,16.5436160311,-74.6969817411,0.0,10.0,0.0,0.0,0.0,10.0,0.0,0.0,0.0,10.0,0.0597879664723,0.0925448478803,-0.149270179099,1.0,0.0,0.0,0.0,1.0,0.0,0.0,0.0,1.0,0.623902587891,-6.10250976563,10.3943847656,0.1,0.0,0.0,0.0,0.1,0.0,0.0,0.0,0.1
1452008400303557451,357,1452008400300354957,robocape,-18.5530193071,16.6439886123,-74.3941320101,0.0,10.0,0.0,0.0,0.0,10.0,0.0,0.0,0.0,10.0,0.00878843159726,0.12357067458,-0.171507574201,1.0,0.0,0.0,0.0,1.0,0.0,0.0,0.0,1.0,1.25139770508,-5.58159301758,10.1129699707,0.1,0.0,0.0,0.0,0.1,0.0,0.0,0.0,0.1
1452008400336046534,358,1452008400332885980,robocape,-18.6363055576,16.6848401581,-74.2304755294,0.0,10.0,0.0,0.0,0.0,10.0,0.0,0.0,0.0,10.0,-0.0952080089703,0.130628051468,-0.286156659129,1.0,0.0,0.0,0.0,1.0,0.0,0.0,0.0,1.0,1.1915222168,-4.62957275391,9.98244140625,0.1,0.0,0.0,0.0,0.1,0.0,0.0,0.0,0.1
1452008400371436451,359,1452008400368163108,robocape,-18.5181928472,16.6521035562,-74.1607917146,0.0,10.0,0.0,0.0,0.0,10.0,0.0,0.0,0.0,10.0,0.0235689756472,0.116513297691,-0.362056750196,1.0,0.0,0.0,0.0,1.0,0.0,0.0,0.0,1.0,1.07057373047,-6.0126965332,9.1238269043,0.1,0.0,0.0,0.0,0.1,0.0,0.0,0.0,0.1
1452008400403530826,360,1452008400400415897,robocape,-18.8296276923,16.5343832912,-74.3729985504,0.0,10.0,0.0,0.0,0.0,10.0,0.0,0.0,0.0,10.0,-0.166713884239,0.149935969371,-0.595749135851,1.0,0.0,0.0,0.0,1.0,0.0,0.0,0.0,1.0,1.39988891602,-6.23064331055,10.8542285156,0.1,0.0,0.0,0.0,0.1,0.0,0.0,0.0,0.1
1452008400435090284,361,1452008400431828022,robocape,-19.3089278295,16.3723324154,-74.6794629025,0.0,10.0,0.0,0.0,0.0,10.0,0.0,0.0,0.0,10.0,-0.246342400832,0.157126504315,-0.682967661551,1.0,0.0,0.0,0.0,1.0,0.0,0.0,0.0,1.0,1.49928222656,-6.57911865234,8.10953613281,0.1,0.0,0.0,0.0,0.1,0.0,0.0,0.0,0.1
1452008400467966951,362,1452008400464879035,robocape,-19.210083535,16.4066237964,-75.0022246078,0.0,10.0,0.0,0.0,0.0,10.0,0.0,0.0,0.0,10.0,0.0591221761998,0.259258732119,-0.656202892596,1.0,0.0,0.0,0.0,1.0,0.0,0.0,0.0,1.0,-2.94347900391,-9.77886474609,12.1020336914,0.1,0.0,0.0,0.0,0.1,0.0,0.0,0.0,0.1
1452008400501176659,363,1452008400498073101,robocape,-19.5917038542,16.9805245749,-75.5640549611,0.0,10.0,0.0,0.0,0.0,10.0,0.0,0.0,0.0,10.0,-0.16378440704,0.601474932194,-0.762862494253,1.0,0.0,0.0,0.0,1.0,0.0,0.0,0.0,1.0,3.44403808594,-3.39494018555,8.99090332031,0.1,0.0,0.0,0.0,0.1,0.0,0.0,0.0,0.1
1452008400534406243,364,1452008400531245946,robocape,-19.709286562,17.4122971981,-75.9554990227,0.0,10.0,0.0,0.0,0.0,10.0,0.0,0.0,0.0,10.0,-0.0428768935503,0.490554272793,-0.661129740612,1.0,0.0,0.0,0.0,1.0,0.0,0.0,0.0,1.0,-1.27774291992,-3.15783325195,6.46894775391,0.1,0.0,0.0,0.0,0.1,0.0,0.0,0.0,0.1
1452008400567617868,365,1452008400564475059,robocape,-19.8394504567,17.1852826856,-75.924761475,0.0,10.0,0.0,0.0,0.0,10.0,0.0,0.0,0.0,10.0,-0.104795388895,0.0478037415669,-0.459528446093,1.0,0.0,0.0,0.0,1.0,0.0,0.0,0.0,1.0,1.29331054688,-3.48834594727,11.3919104004,0.1,0.0,0.0,0.0,0.1,0.0,0.0,0.0,0.1
1452008400600809951,366,1452008400597683906,robocape,-20.1457966831,17.1155332877,-75.86132152,0.0,10.0,0.0,0.0,0.0,10.0,0.0,0.0,0.0,10.0,-0.204264455609,0.117978036291,-0.411325230363,1.0,0.0,0.0,0.0,1.0,0.0,0.0,0.0,1.0,0.990340576172,-2.84169067383,7.92032958984,0.1,0.0,0.0,0.0,0.1,0.0,0.0,0.0,0.1
1452008400633829451,367,1452008400630814075,robocape,-20.7901372527,16.7930398292,-76.1136843034,0.0,10.0,0.0,0.0,0.0,10.0,0.0,0.0,0.0,10.0,-0.344613045056,0.0866858934821,-0.705870846926,1.0,0.0,0.0,0.0,1.0,0.0,0.0,0.0,1.0,4.36013305664,-5.45465698242,11.8086437988,0.1,0.0,0.0,0.0,0.1,0.0,0.0,0.0,0.1
1452008400667772534,368,1452008400664573907,robocape,-21.1008243243,16.8470480147,-75.8504435938,0.0,10.0,0.0,0.0,0.0,10.0,0.0,0.0,0.0,10.0,-0.238086601453,0.124103306798,-0.241948185034,1.0,0.0,0.0,0.0,1.0,0.0,0.0,0.0,1.0,1.5711328125,-7.01980224609,9.53696777344,0.1,0.0,0.0,0.0,0.1,0.0,0.0,0.0,0.1
1452008400700660951,369,1452008400697559118,robocape,-20.9725699517,17.1076966916,-76.3276289494,0.0,10.0,0.0,0.0,0.0,10.0,0.0,0.0,0.0,10.0,0.0878843159726,0.439554737918,-0.749546688803,1.0,0.0,0.0,0.0,1.0,0.0,0.0,0.0,1.0,2.9506640625,-5.35286865234,9.99321899414,0.1,0.0,0.0,0.0,0.1,0.0,0.0,0.0,0.1
1452008400734073743,370,1452008400731013059,robocape,-21.0574317136,17.293613955,-76.6276217691,0.0,10.0,0.0,0.0,0.0,10.0,0.0,0.0,0.0,10.0,-0.0454068965859,0.356330953853,-0.64421866769,1.0,0.0,0.0,0.0,1.0,0.0,0.0,0.0,1.0,-4.25834472656,-5.4762121582,9.6914465332,0.1,0.0,0.0,0.0,0.1,0.0,0.0,0.0,0.1
1452008400767367451,371,1452008400764313936,robocape,-20.6018359655,16.9315077799,-76.3098503038,0.0,10.0,0.0,0.0,0.0,10.0,0.0,0.0,0.0,10.0,0.16112124595,-0.09933590866,-0.265384002626,1.0,0.0,0.0,0.0,1.0,0.0,0.0,0.0,1.0,-3.45481567383,-4.8247668457,10.1261425781,0.1,0.0,0.0,0.0,0.1,0.0,0.0,0.0,0.1
1452008400800619493,372,1452008400797564029,robocape,-20.4402489755,16.5141927533,-76.2862573472,0.0,10.0,0.0,0.0,0.0,10.0,0.0,0.0,0.0,10.0,0.0446079482588,-0.0432763677138,-0.50200586548,1.0,0.0,0.0,0.0,1.0,0.0,0.0,0.0,1.0,-6.21747070313,-8.83163452148,11.8493591309,0.1,0.0,0.0,0.0,0.1,0.0,0.0,0.0,0.1
1452008400833971034,373,1452008400830837011,robocape,-20.732723302,15.3231839136,-76.5862836177,0.0,10.0,0.0,0.0,0.0,10.0,0.0,0.0,0.0,10.0,-0.158857559023,-0.331963029878,-0.908404247826,1.0,0.0,0.0,0.0,1.0,0.0,0.0,0.0,1.0,5.87977294922,-1.19511474609,7.27127929688,0.1,0.0,0.0,0.0,0.1,0.0,0.0,0.0,0.1
1452008400867714993,374,1452008400864703893,robocape,-22.4261871999,15.1832032745,-77.3690962468,0.0,10.0,0.0,0.0,0.0,10.0,0.0,0.0,0.0,10.0,-0.866193144548,0.349273576964,-1.14356137208,1.0,0.0,0.0,0.0,1.0,0.0,0.0,0.0,1.0,0.611927490234,-7.18625610352,8.24844726562,0.1,0.0,0.0,0.0,0.1,0.0,0.0,0.0,0.1
1452008400900894534,375,1452008400897890090,robocape,-22.4205326298,15.2328193814,-78.0623454908,0.0,10.0,0.0,0.0,0.0,10.0,0.0,0.0,0.0,10.0,0.0190416017941,0.417184184761,-1.00054962154,1.0,0.0,0.0,0.0,1.0,0.0,0.0,0.0,1.0,-2.33514404297,-9.21244262695,13.2672106934,0.1,0.0,0.0,0.0,0.1,0.0,0.0,0.0,0.1
1452008400934151909,376,1452008400930927991,robocape,-21.7288265286,15.2008984597,-78.3536702489,0.0,10.0,0.0,0.0,0.0,10.0,0.0,0.0,0.0,10.0,0.343947254784,0.247141349159,-0.69535136062,1.0,0.0,0.0,0.0,1.0,0.0,0.0,0.0,1.0,-0.234711914063,-6.74317749023,12.4457189941,0.1,0.0,0.0,0.0,0.1,0.0,0.0,0.0,0.1
1452008400967265743,377,1452008400964298009,robocape,-21.352919224,15.5666726593,-78.8246056426,0.0,10.0,0.0,0.0,0.0,10.0,0.0,0.0,0.0,10.0,0.200003397865,0.498144281899,-0.776844089976,1.0,0.0,0.0,0.0,1.0,0.0,0.0,0.0,1.0,-4.66669555664,-6.85694091797,8.4651965332,0.1,0.0,0.0,0.0,0.1,0.0,0.0,0.0,0.1
1452008401000725326,378,1452008400997715950,robocape,-19.9042421792,16.009213478,-80.3109170903,0.0,10.0,0.0,0.0,0.0,10.0,0.0,0.0,0.0,10.0,0.900281606501,0.832770472868,-1.56633819513,1.0,0.0,0.0,0.0,1.0,0.0,0.0,0.0,1.0,-7.09883789063,-0.342487792969,11.3428125,0.1,0.0,0.0,0.0,0.1,0.0,0.0,0.0,0.1
1452008401034255118,379,1452008401030992984,robocape,-20.8496865617,14.2831429364,-79.3694082507,0.0,10.0,0.0,0.0,0.0,10.0,0.0,0.0,0.0,10.0,-0.643819193527,-0.9327721718,-0.110121711075,1.0,0.0,0.0,0.0,1.0,0.0,0.0,0.0,1.0,4.97325805664,-1.21427490234,6.12166992188,0.1,0.0,0.0,0.0,0.1,0.0,0.0,0.0,0.1
1452008401069164826,380,1452008401066147089,robocape,-23.0119285763,14.3762346128,-79.3130241048,0.0,10.0,0.0,0.0,0.0,10.0,0.0,0.0,0.0,10.0,-1.2090751349,0.229298169856,-0.518783780347,1.0,0.0,0.0,0.0,1.0,0.0,0.0,0.0,1.0,0.182021484375,-2.31718139648,10.1393151855,0.1,0.0,0.0,0.0,0.1,0.0,0.0,0.0,0.1
1452008401100567660,381,1452008401097520112,robocape,-23.3945813606,14.4640600701,-79.7819060756,0.0,10.0,0.0,0.0,0.0,10.0,0.0,0.0,0.0,10.0,-0.225037112112,0.387489938607,-0.883237375525,1.0,0.0,0.0,0.0,1.0,0.0,0.0,0.0,1.0,-0.286204833984,-8.5107019043,11.7176330566,0.1,0.0,0.0,0.0,0.1,0.0,0.0,0.0,0.1
1452008401134620326,382,1452008401131283998,robocape,-23.0368820437,15.3948449782,-80.3865793846,0.0,10.0,0.0,0.0,0.0,10.0,0.0,0.0,0.0,10.0,0.18655443436,0.832903630922,-0.781637779938,1.0,0.0,0.0,0.0,1.0,0.0,0.0,0.0,1.0,4.50742675781,-4.22720947266,10.1560803223,0.1,0.0,0.0,0.0,0.1,0.0,0.0,0.0,0.1
1452008401167920785,383,1452008401164884090,robocape,-22.2971427529,15.4874644663,-80.3358256231,0.0,10.0,0.0,0.0,0.0,10.0,0.0,0.0,0.0,10.0,0.330764607388,0.218246051332,-0.443948953716,1.0,0.0,0.0,0.0,1.0,0.0,0.0,0.0,1.0,-0.998723144531,-2.62015136719,10.4674328613,0.1,0.0,0.0,0.0,0.1,0.0,0.0,0.0,0.1
1452008401200818618,384,1452008401197751045,robocape,-21.9275243257,15.4389318093,-80.3890403435,0.0,10.0,0.0,0.0,0.0,10.0,0.0,0.0,0.0,10.0,0.149137021044,0.185089695761,-0.571913844095,1.0,0.0,0.0,0.0,1.0,0.0,0.0,0.0,1.0,0.241896972656,-5.75882446289,9.82676513672,0.1,0.0,0.0,0.0,0.1,0.0,0.0,0.0,0.1
1452008401233871326,385,1452008401230732917,robocape,-21.5354143723,15.2749105008,-79.8707020407,0.0,10.0,0.0,0.0,0.0,10.0,0.0,0.0,0.0,10.0,0.100933805314,-0.051532167093,-0.133024896449,1.0,0.0,0.0,0.0,1.0,0.0,0.0,0.0,1.0,0.647852783203,-2.62374389648,10.0938098145,0.1,0.0,0.0,0.0,0.1,0.0,0.0,0.0,0.1
1452008401267074951,386,1452008401263999938,robocape,-21.1743322271,15.1345657481,-80.0733009749,0.0,10.0,0.0,0.0,0.0,10.0,0.0,0.0,0.0,10.0,0.163917565094,0.177766002763,-0.702808211672,1.0,0.0,0.0,0.0,1.0,0.0,0.0,0.0,1.0,1.50646728516,-4.14937133789,12.4181762695,0.1,0.0,0.0,0.0,0.1,0.0,0.0,0.0,0.1
1452008401300658785,387,1452008401297519922,robocape,-21.7389036887,15.3814499108,-80.3055212029,0.0,10.0,0.0,0.0,0.0,10.0,0.0,0.0,0.0,10.0,-0.324239862717,0.385625725843,-0.682301871278,1.0,0.0,0.0,0.0,1.0,0.0,0.0,0.0,1.0,1.43461669922,-3.54582641602,10.208770752,0.1,0.0,0.0,0.0,0.1,0.0,0.0,0.0,0.1
1452008401334236118,388,1452008401330693006,robocape,-21.2226483399,15.2260930515,-81.5190544049,0.0,10.0,0.0,0.0,0.0,10.0,0.0,0.0,0.0,10.0,0.357662534398,0.489622166411,-1.54223658726,1.0,0.0,0.0,0.0,1.0,0.0,0.0,0.0,1.0,2.28604614258,-5.23311767578,10.6003564453,0.1,0.0,0.0,0.0,0.1,0.0,0.0,0.0,0.1
1452008401372523660,389,1452008401366101980,robocape,-21.5503886435,15.3821473587,-81.6338732402,0.0,10.0,0.0,0.0,0.0,10.0,0.0,0.0,0.0,10.0,-0.209990251953,0.312521953921,-0.631568652512,1.0,0.0,0.0,0.0,1.0,0.0,0.0,0.0,1.0,1.59029296875,-4.55412963867,7.08327026367,0.1,0.0,0.0,0.0,0.1,0.0,0.0,0.0,0.1
1452008401401277368,390,1452008401398097038,robocape,-22.2586511663,15.2091758715,-81.7703220054,0.0,10.0,0.0,0.0,0.0,10.0,0.0,0.0,0.0,10.0,-0.412257336744,0.167379674511,-0.732768773935,1.0,0.0,0.0,0.0,1.0,0.0,0.0,0.0,1.0,1.49928222656,-2.55668334961,11.4290332031,0.1,0.0,0.0,0.0,0.1,0.0,0.0,0.0,0.1
1452008401434423576,391,1452008401430928945,robocape,-22.8616887718,14.815386536,-81.8804092101,0.0,10.0,0.0,0.0,0.0,10.0,0.0,0.0,0.0,10.0,-0.365652017668,0.0571248053822,-0.763128810362,1.0,0.0,0.0,0.0,1.0,0.0,0.0,0.0,1.0,1.52203491211,-3.89190673828,9.06993896484,0.1,0.0,0.0,0.0,0.1,0.0,0.0,0.0,0.1
1452008401467299326,392,1452008401464076042,robocape,-23.6369473464,14.3684690856,-82.2501247487,0.0,10.0,0.0,0.0,0.0,10.0,0.0,0.0,0.0,10.0,-0.441152634572,0.125434887343,-1.0082727887,1.0,0.0,0.0,0.0,1.0,0.0,0.0,0.0,1.0,3.39015014648,-2.77223510742,10.4758154297,0.1,0.0,0.0,0.0,0.1,0.0,0.0,0.0,0.1
