%time,field.header.seq,field.header.stamp,field.header.frame_id,field.orientation.x,field.orientation.y,field.orientation.z,field.orientation.w,field.orientation_covariance0,field.orientation_covariance1,field.orientation_covariance2,field.orientation_covariance3,field.orientation_covariance4,field.orientation_covariance5,field.orientation_covariance6,field.orientation_covariance7,field.orientation_covariance8,field.angular_velocity.x,field.angular_velocity.y,field.angular_velocity.z,field.angular_velocity_covariance0,field.angular_velocity_covariance1,field.angular_velocity_covariance2,field.angular_velocity_covariance3,field.angular_velocity_covariance4,field.angular_velocity_covariance5,field.angular_velocity_covariance6,field.angular_velocity_covariance7,field.angular_velocity_covariance8,field.linear_acceleration.x,field.linear_acceleration.y,field.linear_acceleration.z,field.linear_acceleration_covariance0,field.linear_acceleration_covariance1,field.linear_acceleration_covariance2,field.linear_acceleration_covariance3,field.linear_acceleration_covariance4,field.linear_acceleration_covariance5,field.linear_acceleration_covariance6,field.linear_acceleration_covariance7,field.linear_acceleration_covariance8
1446036510918284383,1,1446036510915179967,robocape,6.00664472692,4.7634395038,28.108478431,0.0,10.0,0.0,0.0,0.0,10.0,0.0,0.0,0.0,10.0,-0.19068233405,0.017710021249,0.110521185238,1.0,0.0,0.0,0.0,1.0,0.0,0.0,0.0,1.0,0.0467028808594,-0.662222900391,10.0315393066,0.1,0.0,0.0,0.0,0.1,0.0,0.0,0.0,0.1
1446036510954921091,2,1446036510947953939,robocape,5.82581189626,4.78531532693,28.0705077471,0.0,10.0,0.0,0.0,0.0,10.0,0.0,0.0,0.0,10.0,-0.0873516837546,0.0170442309765,0.0138484376684,1.0,0.0,0.0,0.0,1.0,0.0,0.0,0.0,1.0,0.120948486328,-0.907712402344,10.0914147949,0.1,0.0,0.0,0.0,0.1,0.0,0.0,0.0,0.1
1446036510985212341,3,1446036510982192039,robocape,5.9589872618,4.8460615655,27.6817495176,0.0,10.0,0.0,0.0,0.0,10.0,0.0,0.0,0.0,10.0,0.0910801092807,0.016378440704,-0.180162847744,1.0,0.0,0.0,0.0,1.0,0.0,0.0,0.0,1.0,0.154478759766,-0.702938232422,10.0207617188,0.1,0.0,0.0,0.0,0.1,0.0,0.0,0.0,0.1
1446036511017506424,4,1446036511014540910,robocape,5.763257662,4.86452312657,27.6519068393,0.0,10.0,0.0,0.0,0.0,10.0,0.0,0.0,0.0,10.0,-0.0956074831338,0.0157126504315,0.01744370514,1.0,0.0,0.0,0.0,1.0,0.0,0.0,0.0,1.0,0.067060546875,0.504151611328,9.98962646484,0.1,0.0,0.0,0.0,0.1,0.0,0.0,0.0,0.1
1446036511050872133,5,1446036511047909021,robocape,5.54753742674,4.88339586565,27.623042918,0.0,10.0,0.0,0.0,0.0,10.0,0.0,0.0,0.0,10.0,-0.106393285549,0.0159789665405,0.0178431793035,1.0,0.0,0.0,0.0,1.0,0.0,0.0,0.0,1.0,0.0538879394531,-0.825084228516,10.0674645996,0.1,0.0,0.0,0.0,0.1,0.0,0.0,0.0,0.1
1446036511084530424,6,1446036511081384897,robocape,5.47242940622,4.91986104538,27.4283146848,0.0,10.0,0.0,0.0,0.0,10.0,0.0,0.0,0.0,10.0,-0.0260989786828,0.015845808486,-0.0737695621952,1.0,0.0,0.0,0.0,1.0,0.0,0.0,0.0,1.0,0.0431103515625,-0.444276123047,10.0614770508,0.1,0.0,0.0,0.0,0.1,0.0,0.0,0.0,0.1
1446036511117625049,7,1446036511114655017,robocape,5.15658220877,4.93221442771,27.4290508998,0.0,10.0,0.0,0.0,0.0,10.0,0.0,0.0,0.0,10.0,-0.160588613732,0.0141147537774,0.033555829735,1.0,0.0,0.0,0.0,1.0,0.0,0.0,0.0,1.0,0.0622705078125,0.511336669922,10.0171691895,0.1,0.0,0.0,0.0,0.1,0.0,0.0,0.0,0.1
1446036511150848008,8,1446036511147905111,robocape,4.50530624201,4.90722078088,27.6989472087,0.0,10.0,0.0,0.0,0.0,10.0,0.0,0.0,0.0,10.0,-0.348341470582,0.00785632521573,0.182293376616,1.0,0.0,0.0,0.0,1.0,0.0,0.0,0.0,1.0,0.0526904296875,-1.39509887695,10.1177600098,0.1,0.0,0.0,0.0,0.1,0.0,0.0,0.0,0.1
1446036511184981008,9,1446036511181534051,robocape,4.14879473362,4.91714900315,27.7605825853,0.0,10.0,0.0,0.0,0.0,10.0,0.0,0.0,0.0,10.0,-0.185622327979,0.0154463343225,0.068176923906,1.0,0.0,0.0,0.0,1.0,0.0,0.0,0.0,1.0,0.106578369141,-1.91841064453,10.0650695801,0.1,0.0,0.0,0.0,0.1,0.0,0.0,0.0,0.1
1446036511217969091,10,1446036511214572906,robocape,4.33655899645,4.95331904186,27.6098785425,0.0,10.0,0.0,0.0,0.0,10.0,0.0,0.0,0.0,10.0,0.108656972475,0.0198405501211,-0.0480700576759,1.0,0.0,0.0,0.0,1.0,0.0,0.0,0.0,1.0,0.239501953125,-1.74237670898,9.97645385742,0.1,0.0,0.0,0.0,0.1,0.0,0.0,0.0,0.1
1446036511251625883,11,1446036511248248100,robocape,4.459088148,4.97856415412,27.562813609,0.0,10.0,0.0,0.0,0.0,10.0,0.0,0.0,0.0,10.0,0.0703074527781,0.0187752856851,0.00905474770627,1.0,0.0,0.0,0.0,1.0,0.0,0.0,0.0,1.0,-0.0622705078125,-0.149688720703,10.0255517578,0.1,0.0,0.0,0.0,0.1,0.0,0.0,0.0,0.1
1446036511284896716,12,1446036511281461954,robocape,4.40773776685,4.99110902462,27.630457727,0.0,10.0,0.0,0.0,0.0,10.0,0.0,0.0,0.0,10.0,-0.0256995045193,0.01744370514,0.0721716655411,1.0,0.0,0.0,0.0,1.0,0.0,0.0,0.0,1.0,0.167651367188,-0.640667724609,10.0471069336,0.1,0.0,0.0,0.0,0.1,0.0,0.0,0.0,0.1
1446036511318021466,13,1446036511314613103,robocape,4.41828293444,5.01162921664,27.6306791007,0.0,10.0,0.0,0.0,0.0,10.0,0.0,0.0,0.0,10.0,0.00958737992429,0.0185089695761,0.0350205683345,1.0,0.0,0.0,0.0,1.0,0.0,0.0,0.0,1.0,0.0946032714844,-0.904119873047,10.0315393066,0.1,0.0,0.0,0.0,0.1,0.0,0.0,0.0,0.1
1446036511354563341,14,1446036511351533889,robocape,4.62372800903,5.0501053175,27.4700828265,0.0,10.0,0.0,0.0,0.0,10.0,0.0,0.0,0.0,10.0,0.118776984618,0.0203731823391,-0.0537958540196,1.0,0.0,0.0,0.0,1.0,0.0,0.0,0.0,1.0,0.0598754882813,-1.01548828125,10.0614770508,0.1,0.0,0.0,0.0,0.1,0.0,0.0,0.0,0.1
1446036511386788050,15,1446036511383696079,robocape,4.81200323993,5.10026093834,27.1540102853,0.0,10.0,0.0,0.0,0.0,10.0,0.0,0.0,0.0,10.0,0.116646455745,0.0185089695761,-0.140348589447,1.0,0.0,0.0,0.0,1.0,0.0,0.0,0.0,1.0,0.0634680175781,0.141306152344,10.0255517578,0.1,0.0,0.0,0.0,0.1,0.0,0.0,0.0,0.1
1446036511419419216,16,1446036511416346073,robocape,4.52490318645,5.11000354245,27.2441735618,0.0,10.0,0.0,0.0,0.0,10.0,0.0,0.0,0.0,10.0,-0.15020228548,0.017177389031,0.082691151847,1.0,0.0,0.0,0.0,1.0,0.0,0.0,0.0,1.0,0.0275427246094,0.09580078125,10.0698596191,0.1,0.0,0.0,0.0,0.1,0.0,0.0,0.0,0.1
1446036511453105300,17,1446036511449819087,robocape,4.21593357203,5.11816797409,27.3156411148,0.0,10.0,0.0,0.0,0.0,10.0,0.0,0.0,0.0,10.0,-0.161254404004,0.0151800182135,0.0727042977592,1.0,0.0,0.0,0.0,1.0,0.0,0.0,0.0,1.0,0.123343505859,-1.52203491211,10.0471069336,0.1,0.0,0.0,0.0,0.1,0.0,0.0,0.0,0.1
1446036511485022716,18,1446036511481982946,robocape,4.18448666924,5.13902251403,27.2887200078,0.0,10.0,0.0,0.0,0.0,10.0,0.0,0.0,0.0,10.0,-0.0115847507418,0.01744370514,0.0191747598486,1.0,0.0,0.0,0.0,1.0,0.0,0.0,0.0,1.0,0.128133544922,-1.86093017578,10.0027990723,0.1,0.0,0.0,0.0,0.1,0.0,0.0,0.0,0.1
1446036511518892216,19,1446036511515821933,robocape,4.48294547857,5.17952358473,27.0664176786,0.0,10.0,0.0,0.0,0.0,10.0,0.0,0.0,0.0,10.0,0.170175993656,0.0189084437396,-0.0882837901361,1.0,0.0,0.0,0.0,1.0,0.0,0.0,0.0,1.0,0.125738525391,-0.328117675781,10.1261425781,0.1,0.0,0.0,0.0,0.1,0.0,0.0,0.0,0.1
1446036511551613300,20,1446036511548572063,robocape,4.55810845832,5.20835620462,27.0059028823,0.0,10.0,0.0,0.0,0.0,10.0,0.0,0.0,0.0,10.0,0.0462058449129,0.0201068662301,0.000133158054504,1.0,0.0,0.0,0.0,1.0,0.0,0.0,0.0,1.0,0.0371228027344,-0.542471923828,10.0854272461,0.1,0.0,0.0,0.0,0.1,0.0,0.0,0.0,0.1
1446036511585451675,21,1446036511582350969,robocape,4.61212450342,5.23839120231,26.8587796554,0.0,10.0,0.0,0.0,0.0,10.0,0.0,0.0,0.0,10.0,0.0390153099697,0.0165115987585,-0.0478037415669,1.0,0.0,0.0,0.0,1.0,0.0,0.0,0.0,1.0,0.067060546875,-0.116158447266,9.99321899414,0.1,0.0,0.0,0.0,0.1,0.0,0.0,0.0,0.1
1446036511618087425,22,1446036511614877939,robocape,4.54751664014,5.26702498747,26.7530306231,0.0,10.0,0.0,0.0,0.0,10.0,0.0,0.0,0.0,10.0,-0.0250337142467,0.017710021249,-0.0256995045193,1.0,0.0,0.0,0.0,1.0,0.0,0.0,0.0,1.0,0.0383203125,-0.696950683594,10.0291442871,0.1,0.0,0.0,0.0,0.1,0.0,0.0,0.0,0.1
1446036511651106258,23,1446036511648081064,robocape,4.29665823943,5.28080407231,26.7449124524,0.0,10.0,0.0,0.0,0.0,10.0,0.0,0.0,0.0,10.0,-0.127299100106,0.0145142279409,0.0276968753368,1.0,0.0,0.0,0.0,1.0,0.0,0.0,0.0,1.0,0.0407153320313,0.0981958007813,10.019564209,0.1,0.0,0.0,0.0,0.1,0.0,0.0,0.0,0.1
1446036511685288133,24,1446036511681787014,robocape,4.14525741171,5.30312485681,26.6603890218,0.0,10.0,0.0,0.0,0.0,10.0,0.0,0.0,0.0,10.0,-0.0719053494321,0.015579492377,-0.0142479118319,1.0,0.0,0.0,0.0,1.0,0.0,0.0,0.0,1.0,0.0730480957031,-1.3064831543,10.039921875,0.1,0.0,0.0,0.0,0.1,0.0,0.0,0.0,0.1
1446036511717850758,25,1446036511714679002,robocape,4.06259549494,5.32534634293,26.5987225604,0.0,10.0,0.0,0.0,0.0,10.0,0.0,0.0,0.0,10.0,-0.0370179391521,0.016644756813,-0.00159789665405,1.0,0.0,0.0,0.0,1.0,0.0,0.0,0.0,1.0,0.0886157226563,-0.70892578125,10.0483044434,0.1,0.0,0.0,0.0,0.1,0.0,0.0,0.0,0.1
1446036511751672675,26,1446036511748591899,robocape,4.13619078366,5.35087873936,26.5618064957,0.0,10.0,0.0,0.0,0.0,10.0,0.0,0.0,0.0,10.0,0.0438089999318,0.0195742340121,0.0122505410144,1.0,0.0,0.0,0.0,1.0,0.0,0.0,0.0,1.0,0.108973388672,-1.47533203125,10.0506994629,0.1,0.0,0.0,0.0,0.1,0.0,0.0,0.0,0.1
1446036511784965216,27,1446036511781864881,robocape,4.26384720279,5.37234095442,26.5622771601,0.0,10.0,0.0,0.0,0.0,10.0,0.0,0.0,0.0,10.0,0.0705737688871,0.0191747598486,0.033023197517,1.0,0.0,0.0,0.0,1.0,0.0,0.0,0.0,1.0,0.0514929199219,-0.371228027344,10.0207617188,0.1,0.0,0.0,0.0,0.1,0.0,0.0,0.0,0.1
1446036511823934716,28,1446036511814690113,robocape,4.4009482019,5.39816674851,26.4944243825,0.0,10.0,0.0,0.0,0.0,10.0,0.0,0.0,0.0,10.0,0.0788295682663,0.0183758115215,-0.00466053190764,1.0,0.0,0.0,0.0,1.0,0.0,0.0,0.0,1.0,0.00119750976563,-0.834664306641,10.0746496582,0.1,0.0,0.0,0.0,0.1,0.0,0.0,0.0,0.1
1446036511852045425,29,1446036511849024057,robocape,4.57808248393,5.43799112113,26.2536742669,0.0,10.0,0.0,0.0,0.0,10.0,0.0,0.0,0.0,10.0,0.107991182203,0.01744370514,-0.100134856987,1.0,0.0,0.0,0.0,1.0,0.0,0.0,0.0,1.0,0.117355957031,-0.108973388672,9.96807128906,0.1,0.0,0.0,0.0,0.1,0.0,0.0,0.0,0.1
1446036511884665675,30,1446036511881588935,robocape,4.58665063114,5.47790666466,25.9935546236,0.0,10.0,0.0,0.0,0.0,10.0,0.0,0.0,0.0,10.0,0.0206394984481,0.0162452826495,-0.111719607729,1.0,0.0,0.0,0.0,1.0,0.0,0.0,0.0,1.0,-0.0263452148438,0.270637207031,10.0339343262,0.1,0.0,0.0,0.0,0.1,0.0,0.0,0.0,0.1
1446036511917796550,31,1446036511914571046,robocape,4.3251305162,5.50119759772,25.8373314942,0.0,10.0,0.0,0.0,0.0,10.0,0.0,0.0,0.0,10.0,-0.125967519561,0.0125168571234,-0.0555269087282,1.0,0.0,0.0,0.0,1.0,0.0,0.0,0.0,1.0,0.0431103515625,0.105380859375,10.0530944824,0.1,0.0,0.0,0.0,0.1,0.0,0.0,0.0,0.1
1446036511951136675,32,1446036511948079109,robocape,3.94445044775,5.51299636254,25.6960423122,0.0,10.0,0.0,0.0,0.0,10.0,0.0,0.0,0.0,10.0,-0.189483911559,0.00745685105222,-0.0475374254579,1.0,0.0,0.0,0.0,1.0,0.0,0.0,0.0,1.0,0.131726074219,-0.861009521484,10.0255517578,0.1,0.0,0.0,0.0,0.1,0.0,0.0,0.0,0.1
1446036511984932050,33,1446036511981527090,robocape,3.62540187445,5.52455297921,25.5996252845,0.0,10.0,0.0,0.0,0.0,10.0,0.0,0.0,0.0,10.0,-0.15965650735,0.00958737992429,-0.0229031853747,1.0,0.0,0.0,0.0,1.0,0.0,0.0,0.0,1.0,-0.0538879394531,-1.28373046875,10.060279541,0.1,0.0,0.0,0.0,0.1,0.0,0.0,0.0,0.1
1446036512017900716,34,1446036512014657020,robocape,3.41417721816,5.52963686687,25.5817783236,0.0,10.0,0.0,0.0,0.0,10.0,0.0,0.0,0.0,10.0,-0.107192233876,0.00945422186978,0.0205063403936,1.0,0.0,0.0,0.0,1.0,0.0,0.0,0.0,1.0,0.0239501953125,-1.23702758789,10.0590820312,0.1,0.0,0.0,0.0,0.1,0.0,0.0,0.0,0.1
1446036512051228508,35,1446036512048233985,robocape,3.30043703043,5.5439132337,25.5406248745,0.0,10.0,0.0,0.0,0.0,10.0,0.0,0.0,0.0,10.0,-0.0551274345646,0.0134489635049,0.00772316716123,1.0,0.0,0.0,0.0,1.0,0.0,0.0,0.0,1.0,0.482596435547,-1.11009155273,10.0219592285,0.1,0.0,0.0,0.0,0.1,0.0,0.0,0.0,0.1
1446036512084682925,36,1446036512081666946,robocape,3.28560039057,5.56779498925,25.4911464404,0.0,10.0,0.0,0.0,0.0,10.0,0.0,0.0,0.0,10.0,-0.00292947719909,0.018242653467,0.00306263525359,1.0,0.0,0.0,0.0,1.0,0.0,0.0,0.0,1.0,-0.0299377441406,-1.30528564453,10.0506994629,0.1,0.0,0.0,0.0,0.1,0.0,0.0,0.0,0.1
1446036512119405925,37,1446036512116369009,robocape,3.37131275363,5.5936858927,25.4478907618,0.0,10.0,0.0,0.0,0.0,10.0,0.0,0.0,0.0,10.0,0.0495347962755,0.0195742340121,0.00652474467069,1.0,0.0,0.0,0.0,1.0,0.0,0.0,0.0,1.0,0.233514404297,-1.20948486328,10.0303417969,0.1,0.0,0.0,0.0,0.1,0.0,0.0,0.0,0.1
1446036512151015342,38,1446036512148005008,robocape,3.38928535565,5.61390435404,25.5666653738,0.0,10.0,0.0,0.0,0.0,10.0,0.0,0.0,0.0,10.0,0.00612527050718,0.0226368692657,0.0952080089703,1.0,0.0,0.0,0.0,1.0,0.0,0.0,0.0,1.0,0.0754431152344,-0.437091064453,10.0662670898,0.1,0.0,0.0,0.0,0.1,0.0,0.0,0.0,0.1
1446036512184431342,39,1446036512181263923,robocape,3.5226155725,5.65094684401,25.563346002,0.0,10.0,0.0,0.0,0.0,10.0,0.0,0.0,0.0,10.0,0.0727042977592,0.0270310850643,0.0283626656093,1.0,0.0,0.0,0.0,1.0,0.0,0.0,0.0,1.0,0.184416503906,-1.89326293945,9.93214599609,0.1,0.0,0.0,0.0,0.1,0.0,0.0,0.0,0.1
1446036512217838092,40,1446036512214684963,robocape,3.84718338998,5.69205568334,25.4659472569,0.0,10.0,0.0,0.0,0.0,10.0,0.0,0.0,0.0,10.0,0.177899160817,0.0255663464648,-0.0229031853747,1.0,0.0,0.0,0.0,1.0,0.0,0.0,0.0,1.0,0.340092773437,-0.446671142578,10.0303417969,0.1,0.0,0.0,0.0,0.1,0.0,0.0,0.0,0.1
1446036512251436383,41,1446036512248198032,robocape,4.17781291193,5.73903954452,25.2793583551,0.0,10.0,0.0,0.0,0.0,10.0,0.0,0.0,0.0,10.0,0.185888644088,0.0246342400832,-0.0720385074866,1.0,0.0,0.0,0.0,1.0,0.0,0.0,0.0,1.0,0.0311352539063,-0.70892578125,10.2015856934,0.1,0.0,0.0,0.0,0.1,0.0,0.0,0.0,0.1
1446036512285622967,42,1446036512281836032,robocape,4.27078470733,5.76599224861,25.1841718188,0.0,10.0,0.0,0.0,0.0,10.0,0.0,0.0,0.0,10.0,0.0569916473277,0.0178431793035,-0.0223705531567,1.0,0.0,0.0,0.0,1.0,0.0,0.0,0.0,1.0,-0.238304443359,0.204774169922,10.0279467773,0.1,0.0,0.0,0.0,0.1,0.0,0.0,0.0,0.1
1446036512317630258,43,1446036512314551115,robocape,4.13721431976,5.7867484789,25.1225684558,0.0,10.0,0.0,0.0,0.0,10.0,0.0,0.0,0.0,10.0,-0.0635163919984,0.0159789665405,-0.00466053190764,1.0,0.0,0.0,0.0,1.0,0.0,0.0,0.0,1.0,0.182021484375,-0.233514404297,9.99321899414,0.1,0.0,0.0,0.0,0.1,0.0,0.0,0.0,0.1
1446036512351107675,44,1446036512347996950,robocape,3.95691433577,5.80604817241,25.0442106691,0.0,10.0,0.0,0.0,0.0,10.0,0.0,0.0,0.0,10.0,-0.0873516837546,0.0145142279409,-0.0139815957229,1.0,0.0,0.0,0.0,1.0,0.0,0.0,0.0,1.0,0.0251477050781,-0.828676757813,10.0423168945,0.1,0.0,0.0,0.0,0.1,0.0,0.0,0.0,0.1
1446036512384853342,45,1446036512381442070,robocape,3.82610788593,5.82371804356,24.9835036464,0.0,10.0,0.0,0.0,0.0,10.0,0.0,0.0,0.0,10.0,-0.0624511275624,0.0145142279409,-0.00426105774413,1.0,0.0,0.0,0.0,1.0,0.0,0.0,0.0,1.0,0.05748046875,-1.1460168457,10.0650695801,0.1,0.0,0.0,0.0,0.1,0.0,0.0,0.0,0.1
1446036512418035883,46,1446036512414525985,robocape,3.77203155127,5.84162084432,24.9501708445,0.0,10.0,0.0,0.0,0.0,10.0,0.0,0.0,0.0,10.0,-0.0237021337017,0.015845808486,0.0107858024148,1.0,0.0,0.0,0.0,1.0,0.0,0.0,0.0,1.0,0.132923583984,-1.03704345703,10.0506994629,0.1,0.0,0.0,0.0,0.1,0.0,0.0,0.0,0.1
1446036512451236342,47,1446036512447858095,robocape,3.575774615,5.85009943266,25.0910964116,0.0,10.0,0.0,0.0,0.0,10.0,0.0,0.0,0.0,10.0,-0.10732539193,0.0178431793035,0.105860653331,1.0,0.0,0.0,0.0,1.0,0.0,0.0,0.0,1.0,0.136516113281,-0.269439697266,10.0255517578,0.1,0.0,0.0,0.0,0.1,0.0,0.0,0.0,0.1
1446036512485020175,48,1446036512481404066,robocape,3.6145117198,5.86933553901,25.15853688,0.0,10.0,0.0,0.0,0.0,10.0,0.0,0.0,0.0,10.0,0.0195742340121,0.0206394984481,0.066312711143,1.0,0.0,0.0,0.0,1.0,0.0,0.0,0.0,1.0,0.0682580566406,-1.77231445313,9.94771362305,0.1,0.0,0.0,0.0,0.1,0.0,0.0,0.0,0.1
1446036512518182175,49,1446036512514476060,robocape,3.62857712376,5.88977900577,25.262146168,0.0,10.0,0.0,0.0,0.0,10.0,0.0,0.0,0.0,10.0,0.00479368996214,0.0227700273202,0.0861532612641,1.0,0.0,0.0,0.0,1.0,0.0,0.0,0.0,1.0,0.308957519531,-0.403560791016,10.0016015625,0.1,0.0,0.0,0.0,0.1,0.0,0.0,0.0,0.1
1446036512551117175,50,1446036512547939062,robocape,3.8576096023,5.92935025137,25.2071989463,0.0,10.0,0.0,0.0,0.0,10.0,0.0,0.0,0.0,10.0,0.125834361506,0.0266316109008,-0.000399474163512,1.0,0.0,0.0,0.0,1.0,0.0,0.0,0.0,1.0,-0.0526904296875,-1.36276611328,10.0530944824,0.1,0.0,0.0,0.0,0.1,0.0,0.0,0.0,0.1
1446036512584613925,51,1446036512581470012,robocape,4.18249075982,5.97454364832,25.0102734088,0.0,10.0,0.0,0.0,0.0,10.0,0.0,0.0,0.0,10.0,0.183758115215,0.0234358175927,-0.0780306199393,1.0,0.0,0.0,0.0,1.0,0.0,0.0,0.0,1.0,0.24908203125,-0.51732421875,9.98124389648,0.1,0.0,0.0,0.0,0.1,0.0,0.0,0.0,0.1
1446036512617825425,52,1446036512614646911,robocape,4.32495589808,6.00564498546,24.8334550669,0.0,10.0,0.0,0.0,0.0,10.0,0.0,0.0,0.0,10.0,0.0873516837546,0.0165115987585,-0.067377975579,1.0,0.0,0.0,0.0,1.0,0.0,0.0,0.0,1.0,-0.142503662109,0.470621337891,10.0506994629,0.1,0.0,0.0,0.0,0.1,0.0,0.0,0.0,0.1
1446036512651112967,53,1446036512648102998,robocape,4.15130343577,6.02631984576,24.746143443,0.0,10.0,0.0,0.0,0.0,10.0,0.0,0.0,0.0,10.0,-0.0830906260105,0.0149137021044,-0.0194410759576,1.0,0.0,0.0,0.0,1.0,0.0,0.0,0.0,1.0,-0.0275427246094,0.275427246094,10.0566870117,0.1,0.0,0.0,0.0,0.1,0.0,0.0,0.0,0.1
1446036512684419300,54,1446036512681401014,robocape,3.86916964831,6.0416856633,24.6663616926,0.0,10.0,0.0,0.0,0.0,10.0,0.0,0.0,0.0,10.0,-0.140614905556,0.0125168571234,-0.015579492377,1.0,0.0,0.0,0.0,1.0,0.0,0.0,0.0,1.0,0.0610729980469,-0.792751464844,10.0854272461,0.1,0.0,0.0,0.0,0.1,0.0,0.0,0.0,0.1
1446036512717937425,55,1446036512714761018,robocape,3.64386273906,6.05473627051,24.6087641532,0.0,10.0,0.0,0.0,0.0,10.0,0.0,0.0,0.0,10.0,-0.112252239947,0.0123836990689,-0.0033289513626,1.0,0.0,0.0,0.0,1.0,0.0,0.0,0.0,1.0,-0.0383203125,-1.29091552734,10.0566870117,0.1,0.0,0.0,0.0,0.1,0.0,0.0,0.0,0.1
1446036512752754008,56,1446036512748506069,robocape,3.41186205908,6.05800071857,24.6779940476,0.0,10.0,0.0,0.0,0.0,10.0,0.0,0.0,0.0,10.0,-0.122771726253,0.0122505410144,0.066046395034,1.0,0.0,0.0,0.0,1.0,0.0,0.0,0.0,1.0,0.119750976563,-0.542471923828,10.0722546387,0.1,0.0,0.0,0.0,0.1,0.0,0.0,0.0,0.1
1446036512786011467,57,1446036512782708883,robocape,3.3345454885,6.08046891417,24.6744232913,0.0,10.0,0.0,0.0,0.0,10.0,0.0,0.0,0.0,10.0,-0.0379500455336,0.0195742340121,0.0263652947918,1.0,0.0,0.0,0.0,1.0,0.0,0.0,0.0,1.0,0.457448730469,-2.16030761719,9.94891113281,0.1,0.0,0.0,0.0,0.1,0.0,0.0,0.0,0.1
1446036512824418759,58,1446036512815835952,robocape,3.58525131886,6.12145261072,24.5651288629,0.0,10.0,0.0,0.0,0.0,10.0,0.0,0.0,0.0,10.0,0.139815957229,0.0254331884103,-0.0311589847539,1.0,0.0,0.0,0.0,1.0,0.0,0.0,0.0,1.0,0.257464599609,-0.968785400391,10.1249450684,0.1,0.0,0.0,0.0,0.1,0.0,0.0,0.0,0.1
1446036512853638592,59,1446036512850325107,robocape,3.84091723085,6.15979201253,24.4281994291,0.0,10.0,0.0,0.0,0.0,10.0,0.0,0.0,0.0,10.0,0.144210173028,0.0227700273202,-0.0463390029674,1.0,0.0,0.0,0.0,1.0,0.0,0.0,0.0,1.0,0.0455053710938,-0.144898681641,10.1069824219,0.1,0.0,0.0,0.0,0.1,0.0,0.0,0.0,0.1
1446036512884487509,60,1446036512881385087,robocape,3.79340621973,6.16608041622,24.6023990787,0.0,10.0,0.0,0.0,0.0,10.0,0.0,0.0,0.0,10.0,-0.0314253008629,0.0186421276306,0.123171200416,1.0,0.0,0.0,0.0,1.0,0.0,0.0,0.0,1.0,-0.1149609375,-1.46934448242,10.1141674805,0.1,0.0,0.0,0.0,0.1,0.0,0.0,0.0,0.1
1446036512917824925,61,1446036512914577007,robocape,4.02776752892,6.19464184842,24.5174096552,0.0,10.0,0.0,0.0,0.0,10.0,0.0,0.0,0.0,10.0,0.130494893414,0.0197073920666,-0.017710021249,1.0,0.0,0.0,0.0,1.0,0.0,0.0,0.0,1.0,0.295784912109,-0.524509277344,10.0674645996,0.1,0.0,0.0,0.0,0.1,0.0,0.0,0.0,0.1
1446036512950966342,62,1446036512947897911,robocape,4.22310325761,6.22724442878,24.3812602717,0.0,10.0,0.0,0.0,0.0,10.0,0.0,0.0,0.0,10.0,0.113051188274,0.0194410759576,-0.0459395288039,1.0,0.0,0.0,0.0,1.0,0.0,0.0,0.0,1.0,-0.00359252929688,-0.21076171875,10.039921875,0.1,0.0,0.0,0.0,0.1,0.0,0.0,0.0,0.1
1446036512984511800,63,1446036512981440067,robocape,4.19352649287,6.249941925,24.2942580796,0.0,10.0,0.0,0.0,0.0,10.0,0.0,0.0,0.0,10.0,-0.00745685105222,0.0162452826495,-0.0197073920666,1.0,0.0,0.0,0.0,1.0,0.0,0.0,0.0,1.0,-0.0203576660156,0.0431103515625,9.99920654297,0.1,0.0,0.0,0.0,0.1,0.0,0.0,0.0,0.1
1446036513017575425,64,1446036513014494895,robocape,4.00535065763,6.27019972033,24.1890784518,0.0,10.0,0.0,0.0,0.0,10.0,0.0,0.0,0.0,10.0,-0.0897485287357,0.0141147537774,-0.0300937203179,1.0,0.0,0.0,0.0,1.0,0.0,0.0,0.0,1.0,0.150886230469,-0.393980712891,10.0303417969,0.1,0.0,0.0,0.0,0.1,0.0,0.0,0.0,0.1
1446036513051213134,65,1446036513048219919,robocape,3.63804501268,6.270404074,24.283114324,0.0,10.0,0.0,0.0,0.0,10.0,0.0,0.0,0.0,10.0,-0.194943391794,0.0119842249054,0.0782969360483,1.0,0.0,0.0,0.0,1.0,0.0,0.0,0.0,1.0,-0.0299377441406,-0.413140869141,10.0830322266,0.1,0.0,0.0,0.0,0.1,0.0,0.0,0.0,0.1
1446036513084944759,66,1446036513081908941,robocape,3.53690364337,6.28345141129,24.3293563983,0.0,10.0,0.0,0.0,0.0,10.0,0.0,0.0,0.0,10.0,-0.0529969056926,0.0167779148675,0.0528637476381,1.0,0.0,0.0,0.0,1.0,0.0,0.0,0.0,1.0,-0.00838256835938,-1.84656005859,9.95729370117,0.1,0.0,0.0,0.0,0.1,0.0,0.0,0.0,0.1
1446036513117586675,67,1446036513114599943,robocape,3.42255514058,6.29509932702,24.4235056952,0.0,10.0,0.0,0.0,0.0,10.0,0.0,0.0,0.0,10.0,-0.0627174436714,0.0178431793035,0.0790958843754,1.0,0.0,0.0,0.0,1.0,0.0,0.0,0.0,1.0,0.432301025391,-0.6514453125,9.98483642578,0.1,0.0,0.0,0.0,0.1,0.0,0.0,0.0,0.1
1446036513151870675,68,1446036513148794889,robocape,3.5437835406,6.33256024926,24.3108422025,0.0,10.0,0.0,0.0,0.0,10.0,0.0,0.0,0.0,10.0,0.0723048235957,0.0235689756472,-0.033555829735,1.0,0.0,0.0,0.0,1.0,0.0,0.0,0.0,1.0,0.0299377441406,-1.4525793457,9.97645385742,0.1,0.0,0.0,0.0,0.1,0.0,0.0,0.0,0.1
1446036513184719884,69,1446036513181648969,robocape,3.66255646121,6.34976213221,24.3807466328,0.0,10.0,0.0,0.0,0.0,10.0,0.0,0.0,0.0,10.0,0.0609863889628,0.0201068662301,0.0661795530885,1.0,0.0,0.0,0.0,1.0,0.0,0.0,0.0,1.0,0.112565917969,-0.441881103516,10.0435144043,0.1,0.0,0.0,0.0,0.1,0.0,0.0,0.0,0.1
1446036513218263967,70,1446036513215183973,robocape,3.94585704802,6.38392042473,24.2899731447,0.0,10.0,0.0,0.0,0.0,10.0,0.0,0.0,0.0,10.0,0.156460714042,0.0226368692657,-0.0213052887206,1.0,0.0,0.0,0.0,1.0,0.0,0.0,0.0,1.0,0.116158447266,-1.17595458984,10.0387243652,0.1,0.0,0.0,0.0,0.1,0.0,0.0,0.0,0.1
1446036513253087009,71,1446036513249886035,robocape,4.09830225744,6.41338727145,24.2746813438,0.0,10.0,0.0,0.0,0.0,10.0,0.0,0.0,0.0,10.0,0.0838895743375,0.0233026595382,0.0194410759576,1.0,0.0,0.0,0.0,1.0,0.0,0.0,0.0,1.0,0.119750976563,-0.341290283203,10.0530944824,0.1,0.0,0.0,0.0,0.1,0.0,0.0,0.0,0.1
1446036513284555509,72,1446036513281337022,robocape,4.32271716966,6.44430019192,24.2168596958,0.0,10.0,0.0,0.0,0.0,10.0,0.0,0.0,0.0,10.0,0.124236464852,0.0222373951022,-0.00359526747161,1.0,0.0,0.0,0.0,1.0,0.0,0.0,0.0,1.0,-0.0131726074219,-0.638272705078,10.024354248,0.1,0.0,0.0,0.0,0.1,0.0,0.0,0.0,0.1
1446036513317954550,73,1446036513314796924,robocape,4.54750785372,6.47645690568,24.0365259385,0.0,10.0,0.0,0.0,0.0,10.0,0.0,0.0,0.0,10.0,0.13156015785,0.0170442309765,-0.0703074527781,1.0,0.0,0.0,0.0,1.0,0.0,0.0,0.0,1.0,0.047900390625,-0.086220703125,10.0471069336,0.1,0.0,0.0,0.0,0.1,0.0,0.0,0.0,0.1
1446036513351119675,74,1446036513348056077,robocape,4.40830575623,6.4981753613,24.0473313986,0.0,10.0,0.0,0.0,0.0,10.0,0.0,0.0,0.0,10.0,-0.0700411366691,0.0203731823391,0.032490565299,1.0,0.0,0.0,0.0,1.0,0.0,0.0,0.0,1.0,0.0598754882813,0.740061035156,10.0063916016,0.1,0.0,0.0,0.0,0.1,0.0,0.0,0.0,0.1
1446036513384461342,75,1446036513381350040,robocape,4.14981558947,6.51768965665,23.967528855,0.0,10.0,0.0,0.0,0.0,10.0,0.0,0.0,0.0,10.0,-0.127698574269,0.0149137021044,-0.016911072922,1.0,0.0,0.0,0.0,1.0,0.0,0.0,0.0,1.0,0.0922082519531,-1.22625,10.019564209,0.1,0.0,0.0,0.0,0.1,0.0,0.0,0.0,0.1
1446036513417735384,76,1446036513414520978,robocape,4.15309218594,6.54782180388,23.7665333034,0.0,10.0,0.0,0.0,0.0,10.0,0.0,0.0,0.0,10.0,0.016378440704,0.015313176268,-0.082424835738,1.0,0.0,0.0,0.0,1.0,0.0,0.0,0.0,1.0,0.0993933105469,-1.28852050781,10.0530944824,0.1,0.0,0.0,0.0,0.1,0.0,0.0,0.0,0.1
1446036513450928925,77,1446036513447854042,robocape,4.18950827758,6.5798199067,23.5353692568,0.0,10.0,0.0,0.0,0.0,10.0,0.0,0.0,0.0,10.0,0.0355532005526,0.0149137021044,-0.0990695925509,1.0,0.0,0.0,0.0,1.0,0.0,0.0,0.0,1.0,0.102985839844,-0.453856201172,10.019564209,0.1,0.0,0.0,0.0,0.1,0.0,0.0,0.0,0.1
1446036513485085967,78,1446036513481934070,robocape,4.13042108545,6.60268170691,23.3531486092,0.0,10.0,0.0,0.0,0.0,10.0,0.0,0.0,0.0,10.0,-0.0173105470855,0.0122505410144,-0.0728374558137,1.0,0.0,0.0,0.0,1.0,0.0,0.0,0.0,1.0,0.0778381347656,-0.591569824219,10.0291442871,0.1,0.0,0.0,0.0,0.1,0.0,0.0,0.0,0.1
1446036513518415217,79,1446036513514976024,robocape,4.07976047208,6.62804745009,23.1066154893,0.0,10.0,0.0,0.0,0.0,10.0,0.0,0.0,0.0,10.0,-0.00918790576077,0.0107858024148,-0.107991182203,1.0,0.0,0.0,0.0,1.0,0.0,0.0,0.0,1.0,0.0658630371094,-0.55564453125,10.0566870117,0.1,0.0,0.0,0.0,0.1,0.0,0.0,0.0,0.1
1446036513551187717,80,1446036513547944068,robocape,3.9832543331,6.66143979775,22.8131297339,0.0,10.0,0.0,0.0,0.0,10.0,0.0,0.0,0.0,10.0,-0.0304931944814,0.0130494893414,-0.134090160885,1.0,0.0,0.0,0.0,1.0,0.0,0.0,0.0,1.0,0.0910107421875,-0.180823974609,10.0614770508,0.1,0.0,0.0,0.0,0.1,0.0,0.0,0.0,0.1
1446036513585025551,81,1446036513581665039,robocape,3.7108114285,6.67072284543,22.6907121139,0.0,10.0,0.0,0.0,0.0,10.0,0.0,0.0,0.0,10.0,-0.132891738395,0.00785632521573,-0.0416784710597,1.0,0.0,0.0,0.0,1.0,0.0,0.0,0.0,1.0,0.0107775878906,-0.631087646484,10.0387243652,0.1,0.0,0.0,0.0,0.1,0.0,0.0,0.0,0.1
1446036513618061384,82,1446036513614602088,robocape,3.45354738819,6.69060926586,22.6268953397,0.0,10.0,0.0,0.0,0.0,10.0,0.0,0.0,0.0,10.0,-0.128630680651,0.0159789665405,-0.0103863282513,1.0,0.0,0.0,0.0,1.0,0.0,0.0,0.0,1.0,-0.0526904296875,-1.16637451172,10.1165625,0.1,0.0,0.0,0.0,0.1,0.0,0.0,0.0,0.1
1446036513651173134,83,1446036513648005962,robocape,3.25556304258,6.70138304974,22.5735523738,0.0,10.0,0.0,0.0,0.0,10.0,0.0,0.0,0.0,10.0,-0.0984038022784,0.0117179087963,-0.00439421579863,1.0,0.0,0.0,0.0,1.0,0.0,0.0,0.0,1.0,0.141306152344,-1.00590820312,10.0459094238,0.1,0.0,0.0,0.0,0.1,0.0,0.0,0.0,0.1
1446036513684995092,84,1446036513681787967,robocape,3.09416480345,6.71142031879,22.5440252825,0.0,10.0,0.0,0.0,0.0,10.0,0.0,0.0,0.0,10.0,-0.0808269390839,0.0122505410144,0.00852211548825,1.0,0.0,0.0,0.0,1.0,0.0,0.0,0.0,1.0,0.397573242188,-1.35558105469,10.024354248,0.1,0.0,0.0,0.0,0.1,0.0,0.0,0.0,0.1
1446036513718577509,85,1446036513715297937,robocape,3.07041141353,6.72936976401,22.5038738615,0.0,10.0,0.0,0.0,0.0,10.0,0.0,0.0,0.0,10.0,-0.00812264132474,0.016112124595,0.00279631914458,1.0,0.0,0.0,0.0,1.0,0.0,0.0,0.0,1.0,0.0922082519531,-1.37833374023,10.0387243652,0.1,0.0,0.0,0.0,0.1,0.0,0.0,0.0,0.1
1446036513751555176,86,1446036513747922897,robocape,3.16757981265,6.75838135856,22.4558512155,0.0,10.0,0.0,0.0,0.0,10.0,0.0,0.0,0.0,10.0,0.0557932248372,0.0217047628841,-0.00159789665405,1.0,0.0,0.0,0.0,1.0,0.0,0.0,0.0,1.0,0.219144287109,-1.22385498047,9.95370117188,0.1,0.0,0.0,0.0,0.1,0.0,0.0,0.0,0.1
1446036513785271467,87,1446036513782023906,robocape,3.33764778768,6.79187541673,22.4082469821,0.0,10.0,0.0,0.0,0.0,10.0,0.0,0.0,0.0,10.0,0.0941427445343,0.0241016078652,-0.00146473859954,1.0,0.0,0.0,0.0,1.0,0.0,0.0,0.0,1.0,0.0622705078125,-1.02866088867,10.0506994629,0.1,0.0,0.0,0.0,0.1,0.0,0.0,0.0,0.1
1446036513824968509,88,1446036513814951896,robocape,3.48940149106,6.82163943832,22.3634178959,0.0,10.0,0.0,0.0,0.0,10.0,0.0,0.0,0.0,10.0,0.08455536461,0.0222373951022,0.0,1.0,0.0,0.0,0.0,1.0,0.0,0.0,0.0,1.0,0.137713623047,-0.573607177734,10.0375268555,0.1,0.0,0.0,0.0,0.1,0.0,0.0,0.0,0.1
1446036513852597926,89,1446036513849546909,robocape,3.55538602803,6.84778092062,22.3102303577,0.0,10.0,0.0,0.0,0.0,10.0,0.0,0.0,0.0,10.0,0.0402137324602,0.0199737081756,-0.00466053190764,1.0,0.0,0.0,0.0,1.0,0.0,0.0,0.0,1.0,0.00718505859375,-0.365240478516,10.0327368164,0.1,0.0,0.0,0.0,0.1,0.0,0.0,0.0,0.1
1446036513885928551,90,1446036513882879018,robocape,3.57135164392,6.86967668275,22.2601404075,0.0,10.0,0.0,0.0,0.0,10.0,0.0,0.0,0.0,10.0,0.0138484376684,0.0178431793035,-0.00306263525359,1.0,0.0,0.0,0.0,1.0,0.0,0.0,0.0,1.0,-0.129331054688,-0.678988037109,10.0303417969,0.1,0.0,0.0,0.0,0.1,0.0,0.0,0.0,0.1
1446036513918891342,91,1446036513915771961,robocape,3.52182458468,6.88720038353,22.2319273169,0.0,10.0,0.0,0.0,0.0,10.0,0.0,0.0,0.0,10.0,-0.0218379209386,0.016378440704,0.00865527354276,1.0,0.0,0.0,0.0,1.0,0.0,0.0,0.0,1.0,0.104183349609,-0.643062744141,10.0159716797,0.1,0.0,0.0,0.0,0.1,0.0,0.0,0.0,0.1
1446036513952384842,92,1446036513949351072,robocape,3.40695894414,6.90028621226,22.2060121992,0.0,10.0,0.0,0.0,0.0,10.0,0.0,0.0,0.0,10.0,-0.0563258570552,0.0141147537774,0.00985369603329,1.0,0.0,0.0,0.0,1.0,0.0,0.0,0.0,1.0,0.0514929199219,-0.686173095703,10.039921875,0.1,0.0,0.0,0.0,0.1,0.0,0.0,0.0,0.1
1446036513985843301,93,1446036513982726097,robocape,3.27638794582,6.90877555732,22.1804641232,0.0,10.0,0.0,0.0,0.0,10.0,0.0,0.0,0.0,10.0,-0.0647148144889,0.0117179087963,0.0101200121423,1.0,0.0,0.0,0.0,1.0,0.0,0.0,0.0,1.0,0.143701171875,-0.90052734375,10.0878222656,0.1,0.0,0.0,0.0,0.1,0.0,0.0,0.0,0.1
1446036514019629801,94,1446036514015866041,robocape,3.14177229884,6.91254524834,22.2090217637,0.0,10.0,0.0,0.0,0.0,10.0,0.0,0.0,0.0,10.0,-0.0703074527781,0.0111852765783,0.0394147841332,1.0,0.0,0.0,0.0,1.0,0.0,0.0,0.0,1.0,0.141306152344,-0.918489990234,9.97046630859,0.1,0.0,0.0,0.0,0.1,0.0,0.0,0.0,0.1
1446036514051315176,95,1446036514048320055,robocape,3.01382957276,6.89906414292,22.3545339867,0.0,10.0,0.0,0.0,0.0,10.0,0.0,0.0,0.0,10.0,-0.0741690363587,0.00612527050718,0.103064334186,1.0,0.0,0.0,0.0,1.0,0.0,0.0,0.0,1.0,0.132923583984,-1.1076965332,10.1632653809,0.1,0.0,0.0,0.0,0.1,0.0,0.0,0.0,0.1
1446036514086411884,96,1446036514083367109,robocape,2.90324174492,6.88539361813,22.72124461,0.0,10.0,0.0,0.0,0.0,10.0,0.0,0.0,0.0,10.0,-0.0788295682663,0.0133158054504,0.223039741294,1.0,0.0,0.0,0.0,1.0,0.0,0.0,0.0,1.0,0.28740234375,-2.26209594727,9.81598754883,0.1,0.0,0.0,0.0,0.1,0.0,0.0,0.0,0.1
1446036514119329926,97,1446036514116056919,robocape,3.35610141092,6.94331870392,22.6816527016,0.0,10.0,0.0,0.0,0.0,10.0,0.0,0.0,0.0,10.0,0.241815026979,0.0375505713701,0.0031957933081,1.0,0.0,0.0,0.0,1.0,0.0,0.0,0.0,1.0,0.246687011719,-1.56634277344,10.0255517578,0.1,0.0,0.0,0.0,0.1,0.0,0.0,0.0,0.1
1446036514155308051,98,1446036514151215076,robocape,3.84352637316,6.99652261438,22.5754178056,0.0,10.0,0.0,0.0,0.0,10.0,0.0,0.0,0.0,10.0,0.264585054299,0.032490565299,-0.032756881408,1.0,0.0,0.0,0.0,1.0,0.0,0.0,0.0,1.0,0.215551757813,-0.585582275391,10.0794396973,0.1,0.0,0.0,0.0,0.1,0.0,0.0,0.0,0.1
1446036514185680801,99,1446036514182591915,robocape,4.25182785078,7.0378983279,22.556633991,0.0,10.0,0.0,0.0,0.0,10.0,0.0,0.0,0.0,10.0,0.218246051332,0.0298274042089,0.0145142279409,1.0,0.0,0.0,0.0,1.0,0.0,0.0,0.0,1.0,0.146096191406,-0.111368408203,10.060279541,0.1,0.0,0.0,0.0,0.1,0.0,0.0,0.0,0.1
1446036514223595718,100,1446036514219436883,robocape,4.22289439901,7.04832999069,22.8553072677,0.0,10.0,0.0,0.0,0.0,10.0,0.0,0.0,0.0,10.0,-0.0304931944814,0.0278300333913,0.185888644088,1.0,0.0,0.0,0.0,1.0,0.0,0.0,0.0,1.0,-0.189206542969,-0.391585693359,9.92735595703,0.1,0.0,0.0,0.0,0.1,0.0,0.0,0.0,0.1
1446036514256682093,101,1446036514253427028,robocape,4.36778232481,7.06413780234,23.048972906,0.0,10.0,0.0,0.0,0.0,10.0,0.0,0.0,0.0,10.0,0.0672448175245,0.0262321367373,0.13009541925,1.0,0.0,0.0,0.0,1.0,0.0,0.0,0.0,1.0,0.05748046875,-1.53880004883,9.94651611328,0.1,0.0,0.0,0.0,0.1,0.0,0.0,0.0,0.1
1446036514289506718,102,1446036514284574031,robocape,4.73804359345,7.09207082961,22.9560816955,0.0,10.0,0.0,0.0,0.0,10.0,0.0,0.0,0.0,10.0,0.203465507282,0.0194410759576,-0.0242347659197,1.0,0.0,0.0,0.0,1.0,0.0,0.0,0.0,1.0,0.165256347656,0.076640625,10.0854272461,0.1,0.0,0.0,0.0,0.1,0.0,0.0,0.0,0.1
1446036514322314176,103,1446036514318504095,robocape,4.76128554216,7.10650855565,23.0822583403,0.0,10.0,0.0,0.0,0.0,10.0,0.0,0.0,0.0,10.0,0.00812264132474,0.0230363434292,0.0934769542618,1.0,0.0,0.0,0.0,1.0,0.0,0.0,0.0,1.0,-0.00718505859375,0.0646655273438,10.1069824219,0.1,0.0,0.0,0.0,0.1,0.0,0.0,0.0,0.1
1446036514354597218,104,1446036514351304054,robocape,4.63739638374,7.11655144219,23.1670475669,0.0,10.0,0.0,0.0,0.0,10.0,0.0,0.0,0.0,10.0,-0.066579027252,0.0185089695761,0.0711064011051,1.0,0.0,0.0,0.0,1.0,0.0,0.0,0.0,1.0,0.0550854492188,-0.435893554688,10.0363293457,0.1,0.0,0.0,0.0,0.1,0.0,0.0,0.0,0.1
1446036514388126843,105,1446036514385003089,robocape,4.53729951642,7.13702076933,23.1143114025,0.0,10.0,0.0,0.0,0.0,10.0,0.0,0.0,0.0,10.0,-0.0456732126949,0.017177389031,-0.0033289513626,1.0,0.0,0.0,0.0,1.0,0.0,0.0,0.0,1.0,0.0898132324219,-1.09212890625,10.0087866211,0.1,0.0,0.0,0.0,0.1,0.0,0.0,0.0,0.1
1446036514421443384,106,1446036514417706966,robocape,4.61359117974,7.17010962217,22.8713207236,0.0,10.0,0.0,0.0,0.0,10.0,0.0,0.0,0.0,10.0,0.0587227020362,0.0146473859954,-0.10612696944,1.0,0.0,0.0,0.0,1.0,0.0,0.0,0.0,1.0,0.0407153320313,-0.208366699219,10.0411193848,0.1,0.0,0.0,0.0,0.1,0.0,0.0,0.0,0.1
1446036514454506718,107,1446036514451282978,robocape,4.3671237541,7.17780233703,22.8665741486,0.0,10.0,0.0,0.0,0.0,10.0,0.0,0.0,0.0,10.0,-0.125568045397,0.0126500151779,0.0221042370477,1.0,0.0,0.0,0.0,1.0,0.0,0.0,0.0,1.0,0.0754431152344,-0.560434570312,10.0447119141,0.1,0.0,0.0,0.0,0.1,0.0,0.0,0.0,0.1
1446036514489496426,108,1446036514485446929,robocape,4.3441434597,7.20819182766,22.6237655756,0.0,10.0,0.0,0.0,0.0,10.0,0.0,0.0,0.0,10.0,0.00652474467069,0.0135821215594,-0.106526443603,1.0,0.0,0.0,0.0,1.0,0.0,0.0,0.0,1.0,0.0826281738281,-0.450263671875,10.0734521484,0.1,0.0,0.0,0.0,0.1,0.0,0.0,0.0,0.1
1446036514520146009,109,1446036514516992092,robocape,4.0716971093,7.20894598765,22.6951763809,0.0,10.0,0.0,0.0,0.0,10.0,0.0,0.0,0.0,10.0,-0.144343331082,0.0123836990689,0.0629837597804,1.0,0.0,0.0,0.0,1.0,0.0,0.0,0.0,1.0,0.0646655273438,-1.17475708008,10.0914147949,0.1,0.0,0.0,0.0,0.1,0.0,0.0,0.0,0.1
1446036514554720176,110,1446036514551249027,robocape,3.97156039373,7.22548106208,22.762627416,0.0,10.0,0.0,0.0,0.0,10.0,0.0,0.0,0.0,10.0,-0.0539290120741,0.0205063403936,0.0609863889628,1.0,0.0,0.0,0.0,1.0,0.0,0.0,0.0,1.0,0.0275427246094,-1.65974853516,9.98842895508,0.1,0.0,0.0,0.0,0.1,0.0,0.0,0.0,0.1
1446036514590151051,111,1446036514586934089,robocape,4.17376237225,7.24926690901,22.7404481975,0.0,10.0,0.0,0.0,0.0,10.0,0.0,0.0,0.0,10.0,0.110388027184,0.0206394984481,0.0131826473959,1.0,0.0,0.0,0.0,1.0,0.0,0.0,0.0,1.0,0.373623046875,-1.44898681641,9.96088623047,0.1,0.0,0.0,0.0,0.1,0.0,0.0,0.0,0.1
1446036514621281468,112,1446036514617995023,robocape,4.55220728791,7.29854471996,22.4918742785,0.0,10.0,0.0,0.0,0.0,10.0,0.0,0.0,0.0,10.0,0.217580261059,0.0235689756472,-0.109455920802,1.0,0.0,0.0,0.0,1.0,0.0,0.0,0.0,1.0,0.318537597656,-0.468226318359,10.1033898926,0.1,0.0,0.0,0.0,0.1,0.0,0.0,0.0,0.1
1446036514653853926,113,1446036514650548934,robocape,4.64685989026,7.31757520103,22.4777370442,0.0,10.0,0.0,0.0,0.0,10.0,0.0,0.0,0.0,10.0,0.0540621701286,0.0185089695761,0.016911072922,1.0,0.0,0.0,0.0,1.0,0.0,0.0,0.0,1.0,-0.326920166016,-0.360450439453,10.0518969727,0.1,0.0,0.0,0.0,0.1,0.0,0.0,0.0,0.1
1446036514687851593,114,1446036514684667110,robocape,4.75947481217,7.35034887628,22.313230402,0.0,10.0,0.0,0.0,0.0,10.0,0.0,0.0,0.0,10.0,0.0732369299772,0.018242653467,-0.0645816564344,1.0,0.0,0.0,0.0,1.0,0.0,0.0,0.0,1.0,-0.123343505859,0.13412109375,10.0351318359,0.1,0.0,0.0,0.0,0.1,0.0,0.0,0.0,0.1
1446036514720231759,115,1446036514716979980,robocape,4.5937083802,7.3637457525,22.3790849607,0.0,10.0,0.0,0.0,0.0,10.0,0.0,0.0,0.0,10.0,-0.0876179998636,0.0193079179031,0.0591221761998,1.0,0.0,0.0,0.0,1.0,0.0,0.0,0.0,1.0,0.178428955078,-0.476608886719,10.0770446777,0.1,0.0,0.0,0.0,0.1,0.0,0.0,0.0,0.1
1446036514754695926,116,1446036514750916004,robocape,4.53492412599,7.38611666827,22.2273518066,0.0,10.0,0.0,0.0,0.0,10.0,0.0,0.0,0.0,10.0,-0.0175768631945,0.0134489635049,-0.0579237537092,1.0,0.0,0.0,0.0,1.0,0.0,0.0,0.0,1.0,0.0778381347656,0.028740234375,10.0171691895,0.1,0.0,0.0,0.0,0.1,0.0,0.0,0.0,0.1
1446036514787396259,117,1446036514784260988,robocape,4.10731323832,7.37503618437,22.3858366207,0.0,10.0,0.0,0.0,0.0,10.0,0.0,0.0,0.0,10.0,-0.231428698728,0.0102531701968,0.109056446639,1.0,0.0,0.0,0.0,1.0,0.0,0.0,0.0,1.0,0.0814306640625,-0.577199707031,10.1129699707,0.1,0.0,0.0,0.0,0.1,0.0,0.0,0.0,0.1
1446036514827258843,118,1446036514817013978,robocape,3.78255422213,7.36055230271,22.6952653709,0.0,10.0,0.0,0.0,0.0,10.0,0.0,0.0,0.0,10.0,-0.187752856851,0.0145142279409,0.191348124322,1.0,0.0,0.0,0.0,1.0,0.0,0.0,0.0,1.0,-0.0694555664063,-1.85973266602,10.0123791504,0.1,0.0,0.0,0.0,0.1,0.0,0.0,0.0,0.1
1446036514855038343,119,1446036514851794004,robocape,3.73943179984,7.33792995887,23.0658265157,0.0,10.0,0.0,0.0,0.0,10.0,0.0,0.0,0.0,10.0,-0.0442084740953,0.0125168571234,0.226102376548,1.0,0.0,0.0,0.0,1.0,0.0,0.0,0.0,1.0,0.110170898438,-1.78907958984,9.98603393555,0.1,0.0,0.0,0.0,0.1,0.0,0.0,0.0,0.1
1446036514887606635,120,1446036514884567022,robocape,3.95821101719,7.33581033254,23.4880318241,0.0,10.0,0.0,0.0,0.0,10.0,0.0,0.0,0.0,10.0,0.0900148448447,0.0260989786828,0.254997674375,1.0,0.0,0.0,0.0,1.0,0.0,0.0,0.0,1.0,0.583187255859,-2.21659057617,9.95609619141,0.1,0.0,0.0,0.0,0.1,0.0,0.0,0.0,0.1
1446036514919762051,121,1446036514916688919,robocape,4.47284056605,7.32125761333,23.9729356305,0.0,10.0,0.0,0.0,0.0,10.0,0.0,0.0,0.0,10.0,0.241815026979,0.0243679239742,0.2912166652,1.0,0.0,0.0,0.0,1.0,0.0,0.0,0.0,1.0,-0.0275427246094,-2.1040246582,9.97525634766,0.1,0.0,0.0,0.0,0.1,0.0,0.0,0.0,0.1
1446036514952662510,122,1446036514949372053,robocape,5.42533562564,7.29116192156,24.1864564057,0.0,10.0,0.0,0.0,0.0,10.0,0.0,0.0,0.0,10.0,0.490154798629,0.00599211245268,0.147405966336,1.0,0.0,0.0,0.0,1.0,0.0,0.0,0.0,1.0,-0.182021484375,-1.98786621094,10.1848205566,0.1,0.0,0.0,0.0,0.1,0.0,0.0,0.0,0.1
1446036514988091135,123,1446036514984682083,robocape,6.81843472293,7.30160731951,24.1299897476,0.0,10.0,0.0,0.0,0.0,10.0,0.0,0.0,0.0,10.0,0.740225624988,0.0135821215594,0.00239684498107,1.0,0.0,0.0,0.0,1.0,0.0,0.0,0.0,1.0,0.283809814453,-1.29331054688,9.80161743164,0.1,0.0,0.0,0.0,0.1,0.0,0.0,0.0,0.1
1446036515018787885,124,1446036515015749931,robocape,8.10928886889,7.26465556529,24.2048124646,0.0,10.0,0.0,0.0,0.0,10.0,0.0,0.0,0.0,10.0,0.680837132679,-0.000932106381528,0.0774979877213,1.0,0.0,0.0,0.0,1.0,0.0,0.0,0.0,1.0,-0.336500244141,1.07416625977,10.0123791504,0.1,0.0,0.0,0.0,0.1,0.0,0.0,0.0,0.1
1446036515052607135,125,1446036515049509048,robocape,9.04969719827,7.24997171851,24.1159397728,0.0,10.0,0.0,0.0,0.0,10.0,0.0,0.0,0.0,10.0,0.508397452096,-0.00239684498107,-0.0122505410144,1.0,0.0,0.0,0.0,1.0,0.0,0.0,0.0,1.0,-0.156873779297,1.60226806641,9.99082397461,0.1,0.0,0.0,0.0,0.1,0.0,0.0,0.0,0.1
1446036515085388760,126,1446036515081743001,robocape,9.62052619152,7.25464905354,24.0694936536,0.0,10.0,0.0,0.0,0.0,10.0,0.0,0.0,0.0,10.0,0.312655111975,0.0106526443603,0.00732369299772,1.0,0.0,0.0,0.0,1.0,0.0,0.0,0.0,1.0,0.831071777344,1.50167724609,9.93813354492,0.1,0.0,0.0,0.0,0.1,0.0,0.0,0.0,0.1
1446036515118542676,127,1446036515115225076,robocape,9.75784860712,7.27173064893,24.0604091493,0.0,10.0,0.0,0.0,0.0,10.0,0.0,0.0,0.0,10.0,0.082691151847,0.0195742340121,0.0233026595382,1.0,0.0,0.0,0.0,1.0,0.0,0.0,0.0,1.0,-0.100590820313,2.06450683594,9.99561401367,0.1,0.0,0.0,0.0,0.1,0.0,0.0,0.0,0.1
1446036515151309551,128,1446036515148298978,robocape,9.43401717561,7.30353676082,24.0535231623,0.0,10.0,0.0,0.0,0.0,10.0,0.0,0.0,0.0,10.0,-0.160455455677,0.0260989786828,0.0197073920666,1.0,0.0,0.0,0.0,1.0,0.0,0.0,0.0,1.0,0.411943359375,1.27534790039,9.82077758789,0.1,0.0,0.0,0.0,0.1,0.0,0.0,0.0,0.1
1446036515185567718,129,1446036515181925058,robocape,8.87600950477,7.35352483638,24.0438302493,0.0,10.0,0.0,0.0,0.0,10.0,0.0,0.0,0.0,10.0,-0.284026130257,0.034621094171,0.0151800182135,1.0,0.0,0.0,0.0,1.0,0.0,0.0,0.0,1.0,0.0407153320313,0.584384765625,10.0662670898,0.1,0.0,0.0,0.0,0.1,0.0,0.0,0.0,0.1
1446036515217753676,130,1446036515214745044,robocape,8.29273224684,7.39624623742,23.9991703227,0.0,10.0,0.0,0.0,0.0,10.0,0.0,0.0,0.0,10.0,-0.295744039053,0.0278300333913,-0.00279631914458,1.0,0.0,0.0,0.0,1.0,0.0,0.0,0.0,1.0,-0.0538879394531,-0.331710205078,10.0926123047,0.1,0.0,0.0,0.0,0.1,0.0,0.0,0.0,0.1
1446036515251101718,131,1446036515247942924,robocape,7.96323693905,7.45709175641,23.7827691865,0.0,10.0,0.0,0.0,0.0,10.0,0.0,0.0,0.0,10.0,-0.152066498244,0.0239684498107,-0.0944090606433,1.0,0.0,0.0,0.0,1.0,0.0,0.0,0.0,1.0,0.0694555664063,-0.831071777344,10.0830322266,0.1,0.0,0.0,0.0,0.1,0.0,0.0,0.0,0.1
1446036515286013218,132,1446036515282416105,robocape,7.78750838795,7.51828864011,23.4854498084,0.0,10.0,0.0,0.0,0.0,10.0,0.0,0.0,0.0,10.0,-0.066312711143,0.0185089695761,-0.137152796139,1.0,0.0,0.0,0.0,1.0,0.0,0.0,0.0,1.0,-0.0969982910156,-0.197589111328,10.0483044434,0.1,0.0,0.0,0.0,0.1,0.0,0.0,0.0,0.1
1446036515317811635,133,1446036515314709901,robocape,7.48986349222,7.55533668861,23.3583089462,0.0,10.0,0.0,0.0,0.0,10.0,0.0,0.0,0.0,10.0,-0.141280695829,0.0194410759576,-0.0452737385313,1.0,0.0,0.0,0.0,1.0,0.0,0.0,0.0,1.0,0.148491210938,-0.396375732422,10.0111816406,0.1,0.0,0.0,0.0,0.1,0.0,0.0,0.0,0.1
1446036515351299926,134,1446036515348234891,robocape,7.21982236755,7.57189001707,23.2912041938,0.0,10.0,0.0,0.0,0.0,10.0,0.0,0.0,0.0,10.0,-0.130894367577,0.0135821215594,-0.0117179087963,1.0,0.0,0.0,0.0,1.0,0.0,0.0,0.0,1.0,0.0682580566406,-1.17595458984,9.99321899414,0.1,0.0,0.0,0.0,0.1,0.0,0.0,0.0,0.1
1446036515385574385,135,1446036515382015943,robocape,7.13311986769,7.59591663744,23.2284802081,0.0,10.0,0.0,0.0,0.0,10.0,0.0,0.0,0.0,10.0,-0.0350205683345,0.018242653467,-0.00892158965177,1.0,0.0,0.0,0.0,1.0,0.0,0.0,0.0,1.0,-0.0407153320313,-1.06099365234,10.0722546387,0.1,0.0,0.0,0.0,0.1,0.0,0.0,0.0,0.1
1446036515418014260,136,1446036515414949893,robocape,7.34111554915,7.63239012203,23.1045772735,0.0,10.0,0.0,0.0,0.0,10.0,0.0,0.0,0.0,10.0,0.123836990689,0.0207726565026,-0.0411458388417,1.0,0.0,0.0,0.0,1.0,0.0,0.0,0.0,1.0,0.0934057617188,-1.25259521484,10.0914147949,0.1,0.0,0.0,0.0,0.1,0.0,0.0,0.0,0.1
1446036515451243593,137,1446036515448168039,robocape,7.56151055804,7.65588785407,23.0051961195,0.0,10.0,0.0,0.0,0.0,10.0,0.0,0.0,0.0,10.0,0.129030154814,0.0157126504315,-0.0272974011733,1.0,0.0,0.0,0.0,1.0,0.0,0.0,0.0,1.0,0.0742456054688,-0.140108642578,10.1045874023,0.1,0.0,0.0,0.0,0.1,0.0,0.0,0.0,0.1
1446036515485555718,138,1446036515481822013,robocape,7.54453826336,7.67211663179,23.0091384114,0.0,10.0,0.0,0.0,0.0,10.0,0.0,0.0,0.0,10.0,-0.00226368692657,0.0193079179031,0.0271642431188,1.0,0.0,0.0,0.0,1.0,0.0,0.0,0.0,1.0,0.0814306640625,0.243094482422,10.0027990723,0.1,0.0,0.0,0.0,0.1,0.0,0.0,0.0,0.1
1446036515517722218,139,1446036515514698028,robocape,7.55703099617,7.68964696606,22.9580427777,0.0,10.0,0.0,0.0,0.0,10.0,0.0,0.0,0.0,10.0,0.0167779148675,0.015845808486,-0.00226368692657,1.0,0.0,0.0,0.0,1.0,0.0,0.0,0.0,1.0,0.207169189453,-0.119750976563,10.0997973633,0.1,0.0,0.0,0.0,0.1,0.0,0.0,0.0,0.1
1446036515551192010,140,1446036515548187017,robocape,7.48040646255,7.70518689583,22.9663870174,0.0,10.0,0.0,0.0,0.0,10.0,0.0,0.0,0.0,10.0,-0.0339553038985,0.0191747598486,0.0291616139364,1.0,0.0,0.0,0.0,1.0,0.0,0.0,0.0,1.0,-0.0047900390625,-0.0203576660156,10.0818347168,0.1,0.0,0.0,0.0,0.1,0.0,0.0,0.0,0.1
1446036515585220427,141,1446036515581780910,robocape,7.49369753913,7.72970046705,22.8983539497,0.0,10.0,0.0,0.0,0.0,10.0,0.0,0.0,0.0,10.0,0.018242653467,0.018242653467,-0.0118510668509,1.0,0.0,0.0,0.0,1.0,0.0,0.0,0.0,1.0,0.0993933105469,-0.549656982422,10.1177600098,0.1,0.0,0.0,0.0,0.1,0.0,0.0,0.0,0.1
1446036515617620927,142,1446036515614622116,robocape,7.47265920256,7.74183304398,22.9126452902,0.0,10.0,0.0,0.0,0.0,10.0,0.0,0.0,0.0,10.0,-0.00519316412565,0.017976337358,0.032756881408,1.0,0.0,0.0,0.0,1.0,0.0,0.0,0.0,1.0,0.0107775878906,-0.193996582031,9.97884887695,0.1,0.0,0.0,0.0,0.1,0.0,0.0,0.0,0.1
1446036515651214802,143,1446036515648217916,robocape,7.49110294332,7.74440301261,22.97727564,0.0,10.0,0.0,0.0,0.0,10.0,0.0,0.0,0.0,10.0,0.0122505410144,0.016911072922,0.0605869147993,1.0,0.0,0.0,0.0,1.0,0.0,0.0,0.0,1.0,0.124541015625,-0.676593017578,10.0423168945,0.1,0.0,0.0,0.0,0.1,0.0,0.0,0.0,0.1
1446036515685307843,144,1446036515681716918,robocape,7.70459175953,7.75789091425,22.9421706526,0.0,10.0,0.0,0.0,0.0,10.0,0.0,0.0,0.0,10.0,0.121440145708,0.0154463343225,0.00759000910673,1.0,0.0,0.0,0.0,1.0,0.0,0.0,0.0,1.0,-0.143701171875,-0.234711914063,10.0650695801,0.1,0.0,0.0,0.0,0.1,0.0,0.0,0.0,0.1
1446036515717824093,145,1446036515714787960,robocape,7.79938136406,7.77230344914,22.9293083956,0.0,10.0,0.0,0.0,0.0,10.0,0.0,0.0,0.0,10.0,0.0577905956547,0.01744370514,0.0187752856851,1.0,0.0,0.0,0.0,1.0,0.0,0.0,0.0,1.0,0.0850231933594,0.320932617188,10.0111816406,0.1,0.0,0.0,0.0,0.1,0.0,0.0,0.0,0.1
1446036515750905302,146,1446036515747911930,robocape,7.82356102748,7.79404557704,22.8713698211,0.0,10.0,0.0,0.0,0.0,10.0,0.0,0.0,0.0,10.0,0.0237021337017,0.0175768631945,-0.00625842856169,1.0,0.0,0.0,0.0,1.0,0.0,0.0,0.0,1.0,0.176033935547,0.0922082519531,10.0638720703,0.1,0.0,0.0,0.0,0.1,0.0,0.0,0.0,0.1
1446036515784873427,147,1446036515781610012,robocape,7.67882472467,7.81357782305,22.8613565227,0.0,10.0,0.0,0.0,0.0,10.0,0.0,0.0,0.0,10.0,-0.0683100819605,0.0198405501211,0.0185089695761,1.0,0.0,0.0,0.0,1.0,0.0,0.0,0.0,1.0,0.0586779785156,-0.0443078613281,9.9980090332,0.1,0.0,0.0,0.0,0.1,0.0,0.0,0.0,0.1
1446036515822923343,148,1446036515814491033,robocape,7.55407834952,7.84397713305,22.7825544296,0.0,10.0,0.0,0.0,0.0,10.0,0.0,0.0,0.0,10.0,-0.0533963798561,0.0202400242846,-0.0189084437396,1.0,0.0,0.0,0.0,1.0,0.0,0.0,0.0,1.0,0.112565917969,-0.720900878906,10.0423168945,0.1,0.0,0.0,0.0,0.1,0.0,0.0,0.0,0.1
1446036515851775718,149,1446036515848514080,robocape,7.5671737852,7.87830201278,22.6329228663,0.0,10.0,0.0,0.0,0.0,10.0,0.0,0.0,0.0,10.0,0.0237021337017,0.017177389031,-0.0564590151097,1.0,0.0,0.0,0.0,1.0,0.0,0.0,0.0,1.0,-0.00359252929688,-0.141306152344,9.98723144531,0.1,0.0,0.0,0.0,0.1,0.0,0.0,0.0,0.1
1446036515885184218,150,1446036515881540060,robocape,7.50588006503,7.91547465793,22.4743306438,0.0,10.0,0.0,0.0,0.0,10.0,0.0,0.0,0.0,10.0,-0.0147805440499,0.0178431793035,-0.0620516533988,1.0,0.0,0.0,0.0,1.0,0.0,0.0,0.0,1.0,0.129331054688,-0.0610729980469,10.0471069336,0.1,0.0,0.0,0.0,0.1,0.0,0.0,0.0,0.1
1446036515918067010,151,1446036515914571046,robocape,7.41721350337,7.95096717778,22.3269414661,0.0,10.0,0.0,0.0,0.0,10.0,0.0,0.0,0.0,10.0,-0.0299605622634,0.0178431793035,-0.0563258570552,1.0,0.0,0.0,0.0,1.0,0.0,0.0,0.0,1.0,0.101788330078,-0.142503662109,10.0662670898,0.1,0.0,0.0,0.0,0.1,0.0,0.0,0.0,0.1
1446036515951372510,152,1446036515947954893,robocape,7.15650020087,7.96960644651,22.3148643849,0.0,10.0,0.0,0.0,0.0,10.0,0.0,0.0,0.0,10.0,-0.129695945087,0.0189084437396,0.0159789665405,1.0,0.0,0.0,0.0,1.0,0.0,0.0,0.0,1.0,0.0143701171875,-0.235909423828,9.99920654297,0.1,0.0,0.0,0.0,0.1,0.0,0.0,0.0,0.1
1446036515984787760,153,1446036515981580018,robocape,6.91703363896,7.95513943957,22.5132831023,0.0,10.0,0.0,0.0,0.0,10.0,0.0,0.0,0.0,10.0,-0.133158054504,0.0167779148675,0.130761209523,1.0,0.0,0.0,0.0,1.0,0.0,0.0,0.0,1.0,0.0227526855469,-0.8047265625,10.0075891113,0.1,0.0,0.0,0.0,0.1,0.0,0.0,0.0,0.1
1446036516017861677,154,1446036516014655113,robocape,6.95006583829,7.97741153993,22.458363417,0.0,10.0,0.0,0.0,0.0,10.0,0.0,0.0,0.0,10.0,0.0271642431188,0.0183758115215,-0.00532632218016,1.0,0.0,0.0,0.0,1.0,0.0,0.0,0.0,1.0,0.0586779785156,-1.50287475586,10.0818347168,0.1,0.0,0.0,0.0,0.1,0.0,0.0,0.0,0.1
1446036516051097885,155,1446036516047903060,robocape,7.47586416541,8.02171666006,22.2206464634,0.0,10.0,0.0,0.0,0.0,10.0,0.0,0.0,0.0,10.0,0.298806674307,0.0173105470855,-0.102265385859,1.0,0.0,0.0,0.0,1.0,0.0,0.0,0.0,1.0,0.0850231933594,-0.537681884766,10.0722546387,0.1,0.0,0.0,0.0,0.1,0.0,0.0,0.0,0.1
1446036516084848718,156,1446036516081823110,robocape,7.73064710513,8.0534822235,22.0836888921,0.0,10.0,0.0,0.0,0.0,10.0,0.0,0.0,0.0,10.0,0.150069127426,0.0173105470855,-0.049135322112,1.0,0.0,0.0,0.0,1.0,0.0,0.0,0.0,1.0,-0.0682580566406,0.735270996094,10.0051940918,0.1,0.0,0.0,0.0,0.1,0.0,0.0,0.0,0.1
1446036516117678802,157,1446036516114655971,robocape,7.6765916849,8.07743740677,22.0207476757,0.0,10.0,0.0,0.0,0.0,10.0,0.0,0.0,0.0,10.0,-0.017177389031,0.018242653467,-0.0109189604693,1.0,0.0,0.0,0.0,1.0,0.0,0.0,0.0,1.0,0.185614013672,0.644260253906,9.99321899414,0.1,0.0,0.0,0.0,0.1,0.0,0.0,0.0,0.1
1446036516150983843,158,1446036516148010015,robocape,7.36105046947,8.0907537904,22.0321309722,0.0,10.0,0.0,0.0,0.0,10.0,0.0,0.0,0.0,10.0,-0.159922823459,0.0178431793035,0.0279631914458,1.0,0.0,0.0,0.0,1.0,0.0,0.0,0.0,1.0,0.0910107421875,0.274229736328,9.98244140625,0.1,0.0,0.0,0.0,0.1,0.0,0.0,0.0,0.1
1446036516185089968,159,1446036516181631088,robocape,7.13545685096,8.10900400378,22.0066158973,0.0,10.0,0.0,0.0,0.0,10.0,0.0,0.0,0.0,10.0,-0.110388027184,0.0178431793035,0.00852211548825,1.0,0.0,0.0,0.0,1.0,0.0,0.0,0.0,1.0,0.0263452148438,-1.18553466797,10.100994873,0.1,0.0,0.0,0.0,0.1,0.0,0.0,0.0,0.1
1446036516218337468,160,1446036516214802980,robocape,7.25453676663,8.1527145836,21.8115801585,0.0,10.0,0.0,0.0,0.0,10.0,0.0,0.0,0.0,10.0,0.082424835738,0.0194410759576,-0.0818922035199,1.0,0.0,0.0,0.0,1.0,0.0,0.0,0.0,1.0,0.0802331542969,-1.13643676758,10.0866247559,0.1,0.0,0.0,0.0,0.1,0.0,0.0,0.0,0.1
1446036516252030510,161,1446036516248050928,robocape,7.2250519887,8.15549895458,21.8921898668,0.0,10.0,0.0,0.0,0.0,10.0,0.0,0.0,0.0,10.0,-0.0147805440499,0.017976337358,0.0667121853065,1.0,0.0,0.0,0.0,1.0,0.0,0.0,0.0,1.0,0.0299377441406,0.304167480469,10.0255517578,0.1,0.0,0.0,0.0,0.1,0.0,0.0,0.0,0.1
1446036516286271427,162,1446036516282591104,robocape,7.25235443132,8.14145086121,22.068546802,0.0,10.0,0.0,0.0,0.0,10.0,0.0,0.0,0.0,10.0,0.00838895743375,0.016378440704,0.119309616836,1.0,0.0,0.0,0.0,1.0,0.0,0.0,0.0,1.0,0.100590820313,-0.920885009766,9.99561401367,0.1,0.0,0.0,0.0,0.1,0.0,0.0,0.0,0.1
1446036516319186469,163,1446036516315912008,robocape,7.56222773744,8.1428331272,22.1339767571,0.0,10.0,0.0,0.0,0.0,10.0,0.0,0.0,0.0,10.0,0.164849671476,0.0170442309765,0.0608532309083,1.0,0.0,0.0,0.0,1.0,0.0,0.0,0.0,1.0,0.076640625,-0.741258544922,10.0435144043,0.1,0.0,0.0,0.0,0.1,0.0,0.0,0.0,0.1
1446036516352562885,164,1446036516348695039,robocape,7.87555428906,8.14586266564,22.1702508612,0.0,10.0,0.0,0.0,0.0,10.0,0.0,0.0,0.0,10.0,0.16911072922,0.0159789665405,0.0454068965859,1.0,0.0,0.0,0.0,1.0,0.0,0.0,0.0,1.0,-0.0227526855469,-0.0239501953125,10.0483044434,0.1,0.0,0.0,0.0,0.1,0.0,0.0,0.0,0.1
1446036516386657427,165,1446036516383337020,robocape,8.1261582891,8.16840221592,22.0660564752,0.0,10.0,0.0,0.0,0.0,10.0,0.0,0.0,0.0,10.0,0.146207543845,0.0149137021044,-0.0310258266994,1.0,0.0,0.0,0.0,1.0,0.0,0.0,0.0,1.0,0.105380859375,0.780776367188,10.0638720703,0.1,0.0,0.0,0.0,0.1,0.0,0.0,0.0,0.1
1446036516420003844,166,1446036516416289091,robocape,8.13540900655,8.19100349983,21.9758525231,0.0,10.0,0.0,0.0,0.0,10.0,0.0,0.0,0.0,10.0,0.0185089695761,0.0154463343225,-0.0250337142467,1.0,0.0,0.0,0.0,1.0,0.0,0.0,0.0,1.0,0.229921875,1.32684082031,9.94292358398,0.1,0.0,0.0,0.0,0.1,0.0,0.0,0.0,0.1
1446036516452874635,167,1446036516449732065,robocape,7.79360393681,8.21929582506,21.9790203363,0.0,10.0,0.0,0.0,0.0,10.0,0.0,0.0,0.0,10.0,-0.172705996692,0.0251668723012,0.0222373951022,1.0,0.0,0.0,0.0,1.0,0.0,0.0,0.0,1.0,0.259859619141,0.0227526855469,10.1309326172,0.1,0.0,0.0,0.0,0.1,0.0,0.0,0.0,0.1
1446036516486567594,168,1446036516483427047,robocape,7.5875444888,8.25389492614,21.8504562706,0.0,10.0,0.0,0.0,0.0,10.0,0.0,0.0,0.0,10.0,-0.0924116898257,0.0185089695761,-0.0475374254579,1.0,0.0,0.0,0.0,1.0,0.0,0.0,0.0,1.0,-0.165256347656,0.0562829589844,9.97286132813,0.1,0.0,0.0,0.0,0.1,0.0,0.0,0.0,0.1
1446036516521591385,169,1446036516517549037,robocape,7.32938793412,8.26500972,21.8911975403,0.0,10.0,0.0,0.0,0.0,10.0,0.0,0.0,0.0,10.0,-0.131959632013,0.0191747598486,0.0438089999318,1.0,0.0,0.0,0.0,1.0,0.0,0.0,0.0,1.0,0.0526904296875,-0.653840332031,10.024354248,0.1,0.0,0.0,0.0,0.1,0.0,0.0,0.0,0.1
1446036516554609594,170,1446036516550884008,robocape,7.21329692258,8.27561679066,21.9018616914,0.0,10.0,0.0,0.0,0.0,10.0,0.0,0.0,0.0,10.0,-0.0553937506736,0.016911072922,0.0286289817184,1.0,0.0,0.0,0.0,1.0,0.0,0.0,0.0,1.0,0.141306152344,-0.6514453125,10.0351318359,0.1,0.0,0.0,0.0,0.1,0.0,0.0,0.0,0.1
1446036516588708635,171,1446036516584429979,robocape,7.22064180075,8.29293390805,21.8704460496,0.0,10.0,0.0,0.0,0.0,10.0,0.0,0.0,0.0,10.0,0.0123836990689,0.0175768631945,0.00639158661619,1.0,0.0,0.0,0.0,1.0,0.0,0.0,0.0,1.0,0.0969982910156,-0.743653564453,10.0423168945,0.1,0.0,0.0,0.0,0.1,0.0,0.0,0.0,0.1
1446036516621066969,172,1446036516617804050,robocape,7.46290757817,8.3455659055,21.603159595,0.0,10.0,0.0,0.0,0.0,10.0,0.0,0.0,0.0,10.0,0.152732288516,0.0189084437396,-0.120508039326,1.0,0.0,0.0,0.0,1.0,0.0,0.0,0.0,1.0,0.0610729980469,-1.19750976562,10.0746496582,0.1,0.0,0.0,0.0,0.1,0.0,0.0,0.0,0.1
1446036516654057885,173,1446036516650962114,robocape,7.59643089738,8.3680987876,21.496167645,0.0,10.0,0.0,0.0,0.0,10.0,0.0,0.0,0.0,10.0,0.0844222065555,0.0147805440499,-0.034088461953,1.0,0.0,0.0,0.0,1.0,0.0,0.0,0.0,1.0,0.0323327636719,1.36635864258,9.94052856445,0.1,0.0,0.0,0.0,0.1,0.0,0.0,0.0,0.1
1446036516690248594,174,1446036516684916973,robocape,7.33930834552,8.3730556562,21.5916083336,0.0,10.0,0.0,0.0,0.0,10.0,0.0,0.0,0.0,10.0,-0.135421741431,0.0201068662301,0.0727042977592,1.0,0.0,0.0,0.0,1.0,0.0,0.0,0.0,1.0,0.137713623047,-0.320932617188,10.0435144043,0.1,0.0,0.0,0.0,0.1,0.0,0.0,0.0,0.1
1446036516721823427,175,1446036516718523025,robocape,7.18762266739,8.37617517785,21.6524346834,0.0,10.0,0.0,0.0,0.0,10.0,0.0,0.0,0.0,10.0,-0.0777643038303,0.016644756813,0.0551274345646,1.0,0.0,0.0,0.0,1.0,0.0,0.0,0.0,1.0,0.0634680175781,-0.548459472656,10.0027990723,0.1,0.0,0.0,0.0,0.1,0.0,0.0,0.0,0.1
1446036516754240594,176,1446036516751007080,robocape,7.1904255162,8.38366084808,21.6854080069,0.0,10.0,0.0,0.0,0.0,10.0,0.0,0.0,0.0,10.0,0.00532632218016,0.017177389031,0.0408795227327,1.0,0.0,0.0,0.0,1.0,0.0,0.0,0.0,1.0,0.0467028808594,-1.13044921875,10.0423168945,0.1,0.0,0.0,0.0,0.1,0.0,0.0,0.0,0.1
1446036516789051885,177,1446036516784652948,robocape,7.54160598498,8.42436510155,21.4984272654,0.0,10.0,0.0,0.0,0.0,10.0,0.0,0.0,0.0,10.0,0.204397613664,0.0189084437396,-0.0766990393943,1.0,0.0,0.0,0.0,1.0,0.0,0.0,0.0,1.0,0.154478759766,-0.564027099609,10.0770446777,0.1,0.0,0.0,0.0,0.1,0.0,0.0,0.0,0.1
1446036516830278344,178,1446036516820904970,robocape,7.61301009456,8.44223667065,21.4314914933,0.0,10.0,0.0,0.0,0.0,10.0,0.0,0.0,0.0,10.0,0.0490021640575,0.015313176268,-0.0129163312869,1.0,0.0,0.0,0.0,1.0,0.0,0.0,0.0,1.0,-0.0143701171875,1.12446166992,9.97765136719,0.1,0.0,0.0,0.0,0.1,0.0,0.0,0.0,0.1
1446036516855264385,179,1446036516851490020,robocape,7.38457217788,8.45930556673,21.4660422609,0.0,10.0,0.0,0.0,0.0,10.0,0.0,0.0,0.0,10.0,-0.115980665473,0.0219710789932,0.0395479421877,1.0,0.0,0.0,0.0,1.0,0.0,0.0,0.0,1.0,0.219144287109,0.0586779785156,10.075847168,0.1,0.0,0.0,0.0,0.1,0.0,0.0,0.0,0.1
1446036516888992635,180,1446036516885324001,robocape,7.24591194166,8.47569615663,21.4229512586,0.0,10.0,0.0,0.0,0.0,10.0,0.0,0.0,0.0,10.0,-0.0633832339439,0.0159789665405,-0.00119842249054,1.0,0.0,0.0,0.0,1.0,0.0,0.0,0.0,1.0,0.0143701171875,0.203576660156,9.98723144531,0.1,0.0,0.0,0.0,0.1,0.0,0.0,0.0,0.1
1446036516920999427,181,1446036516917784929,robocape,7.0270880057,8.47475147619,21.5264499887,0.0,10.0,0.0,0.0,0.0,10.0,0.0,0.0,0.0,10.0,-0.116380139636,0.01744370514,0.0774979877213,1.0,0.0,0.0,0.0,1.0,0.0,0.0,0.0,1.0,0.028740234375,-0.331710205078,10.0339343262,0.1,0.0,0.0,0.0,0.1,0.0,0.0,0.0,0.1
1446036516953893927,182,1446036516950683116,robocape,6.85781372419,8.481688403,21.5842150679,0.0,10.0,0.0,0.0,0.0,10.0,0.0,0.0,0.0,10.0,-0.0872185257001,0.018242653467,0.0531300637471,1.0,0.0,0.0,0.0,1.0,0.0,0.0,0.0,1.0,0.0993933105469,-1.149609375,10.0710571289,0.1,0.0,0.0,0.0,0.1,0.0,0.0,0.0,0.1
1446036516988034927,183,1446036516984545946,robocape,7.14405667604,8.56140695127,21.129907178,0.0,10.0,0.0,0.0,0.0,10.0,0.0,0.0,0.0,10.0,0.189617069614,0.0206394984481,-0.221841318804,1.0,0.0,0.0,0.0,1.0,0.0,0.0,0.0,1.0,0.149688720703,-1.70046386719,10.0650695801,0.1,0.0,0.0,0.0,0.1,0.0,0.0,0.0,0.1
1446036517021356094,184,1446036517018273115,robocape,7.36392682085,8.62133232094,20.7242117462,0.0,10.0,0.0,0.0,0.0,10.0,0.0,0.0,0.0,10.0,0.15166702408,0.0127831732324,-0.195476024012,1.0,0.0,0.0,0.0,1.0,0.0,0.0,0.0,1.0,-0.0718505859375,1.609453125,10.0866247559,0.1,0.0,0.0,0.0,0.1,0.0,0.0,0.0,0.1
1446036517054374927,185,1446036517051245927,robocape,7.22416738639,8.67812497292,20.3457392299,0.0,10.0,0.0,0.0,0.0,10.0,0.0,0.0,0.0,10.0,-0.0390153099697,0.0122505410144,-0.182826008834,1.0,0.0,0.0,0.0,1.0,0.0,0.0,0.0,1.0,0.182021484375,1.24301513672,10.0111816406,0.1,0.0,0.0,0.0,0.1,0.0,0.0,0.0,0.1
1446036517087109052,186,1446036517083590984,robocape,6.74845178606,8.73119082785,19.9345904689,0.0,10.0,0.0,0.0,0.0,10.0,0.0,0.0,0.0,10.0,-0.213052887206,0.00825579937925,-0.201734452574,1.0,0.0,0.0,0.0,1.0,0.0,0.0,0.0,1.0,0.257464599609,1.33881591797,9.8830480957,0.1,0.0,0.0,0.0,0.1,0.0,0.0,0.0,0.1
1446036517120635802,187,1446036517117532968,robocape,5.98111389161,8.73698295014,19.811944785,0.0,10.0,0.0,0.0,0.0,10.0,0.0,0.0,0.0,10.0,-0.388422044988,0.00399474163512,-0.0476705835124,1.0,0.0,0.0,0.0,1.0,0.0,0.0,0.0,1.0,-0.00119750976563,0.622705078125,10.0650695801,0.1,0.0,0.0,0.0,0.1,0.0,0.0,0.0,0.1
1446036517154080344,188,1446036517150986909,robocape,4.9379601144,8.71360119446,19.8432596126,0.0,10.0,0.0,0.0,0.0,10.0,0.0,0.0,0.0,10.0,-0.545681707357,-0.00199737081756,0.034621094171,1.0,0.0,0.0,0.0,1.0,0.0,0.0,0.0,1.0,-0.149688720703,-0.0203576660156,10.0411193848,0.1,0.0,0.0,0.0,0.1,0.0,0.0,0.0,0.1
1446036517188021136,189,1446036517184225082,robocape,3.70797272909,8.67671069399,20.0414943233,0.0,10.0,0.0,0.0,0.0,10.0,0.0,0.0,0.0,10.0,-0.657534473141,-0.00173105470855,0.124103306798,1.0,0.0,0.0,0.0,1.0,0.0,0.0,0.0,1.0,-0.211959228516,0.0694555664063,9.94172607422,0.1,0.0,0.0,0.0,0.1,0.0,0.0,0.0,0.1
1446036517219765844,190,1446036517216732978,robocape,2.8410897991,8.65098496952,19.9999554114,0.0,10.0,0.0,0.0,0.0,10.0,0.0,0.0,0.0,10.0,-0.449408433951,-0.00599211245268,-0.00213052887206,1.0,0.0,0.0,0.0,1.0,0.0,0.0,0.0,1.0,-0.136516113281,-2.41896972656,9.99441650391,0.1,0.0,0.0,0.0,0.1,0.0,0.0,0.0,0.1
1446036517252988261,191,1446036517249943017,robocape,2.2548067943,8.60227212088,20.0614394958,0.0,10.0,0.0,0.0,0.0,10.0,0.0,0.0,0.0,10.0,-0.311057215321,-0.0145142279409,0.0539290120741,1.0,0.0,0.0,0.0,1.0,0.0,0.0,0.0,1.0,0.506546630859,-2.42615478516,10.0447119141,0.1,0.0,0.0,0.0,0.1,0.0,0.0,0.0,0.1
1446036517286291094,192,1446036517282872915,robocape,2.1792654571,8.63432419516,19.9320705078,0.0,10.0,0.0,0.0,0.0,10.0,0.0,0.0,0.0,10.0,-0.0287621397729,0.0227700273202,-0.0486026898939,1.0,0.0,0.0,0.0,1.0,0.0,0.0,0.0,1.0,0.294587402344,-2.77942016602,9.99920654297,0.1,0.0,0.0,0.0,0.1,0.0,0.0,0.0,0.1
1446036517318454219,193,1446036517315371990,robocape,2.48043108697,8.68081287887,19.7991070518,0.0,10.0,0.0,0.0,0.0,10.0,0.0,0.0,0.0,10.0,0.16911072922,0.0302268783724,-0.050733218766,1.0,0.0,0.0,0.0,1.0,0.0,0.0,0.0,1.0,0.0395178222656,-1.43701171875,9.94292358398,0.1,0.0,0.0,0.0,0.1,0.0,0.0,0.0,0.1
1446036517352161136,194,1446036517349009037,robocape,2.7846885742,8.70953705729,19.8815335236,0.0,10.0,0.0,0.0,0.0,10.0,0.0,0.0,0.0,10.0,0.154197027116,0.0272974011733,0.0643153403254,1.0,0.0,0.0,0.0,1.0,0.0,0.0,0.0,1.0,0.223934326172,-1.86332519531,9.97525634766,0.1,0.0,0.0,0.0,0.1,0.0,0.0,0.0,0.1
1446036517385904761,195,1446036517382791042,robocape,3.39513310583,8.76325128736,19.8332990429,0.0,10.0,0.0,0.0,0.0,10.0,0.0,0.0,0.0,10.0,0.325438285208,0.0364853069341,-0.00559263828917,1.0,0.0,0.0,0.0,1.0,0.0,0.0,0.0,1.0,0.152083740234,-0.644260253906,10.1021923828,0.1,0.0,0.0,0.0,0.1,0.0,0.0,0.0,0.1
1446036517422638302,196,1446036517418831110,robocape,3.82187107302,8.79098198611,19.9551563611,0.0,10.0,0.0,0.0,0.0,10.0,0.0,0.0,0.0,10.0,0.216381838569,0.0295610880999,0.0854874709915,1.0,0.0,0.0,0.0,1.0,0.0,0.0,0.0,1.0,0.119750976563,-1.20589233398,10.0327368164,0.1,0.0,0.0,0.0,0.1,0.0,0.0,0.0,0.1
1446036517451592469,197,1446036517448427915,robocape,4.33198953015,8.81945972205,19.869808647,0.0,10.0,0.0,0.0,0.0,10.0,0.0,0.0,0.0,10.0,0.276835595314,0.0215716048296,-0.0246342400832,1.0,0.0,0.0,0.0,1.0,0.0,0.0,0.0,1.0,0.105380859375,-0.138911132813,10.0339343262,0.1,0.0,0.0,0.0,0.1,0.0,0.0,0.0,0.1
1446036517484726802,198,1446036517481689929,robocape,4.48027747841,8.83317001317,20.0275220623,0.0,10.0,0.0,0.0,0.0,10.0,0.0,0.0,0.0,10.0,0.068443240015,0.0249005561922,0.104529072786,1.0,0.0,0.0,0.0,1.0,0.0,0.0,0.0,1.0,-0.110170898438,0.00239501953125,10.0698596191,0.1,0.0,0.0,0.0,0.1,0.0,0.0,0.0,0.1
1446036517518572844,199,1446036517515531063,robocape,4.49297671989,8.8368255409,20.1911236496,0.0,10.0,0.0,0.0,0.0,10.0,0.0,0.0,0.0,10.0,-0.00306263525359,0.0199737081756,0.107991182203,1.0,0.0,0.0,0.0,1.0,0.0,0.0,0.0,1.0,0.101788330078,-0.352067871094,10.0698596191,0.1,0.0,0.0,0.0,0.1,0.0,0.0,0.0,0.1
1446036517551255219,200,1446036517548221111,robocape,4.57765643374,8.85614965518,20.1454941814,0.0,10.0,0.0,0.0,0.0,10.0,0.0,0.0,0.0,10.0,0.0511326929295,0.018242653467,-0.00359526747161,1.0,0.0,0.0,0.0,1.0,0.0,0.0,0.0,1.0,0.141306152344,-0.681383056641,10.0542919922,0.1,0.0,0.0,0.0,0.1,0.0,0.0,0.0,0.1
1446036517584616052,201,1446036517581491947,robocape,4.58782407135,8.87230054149,20.1353639058,0.0,10.0,0.0,0.0,0.0,10.0,0.0,0.0,0.0,10.0,0.00932106381528,0.018242653467,0.0151800182135,1.0,0.0,0.0,0.0,1.0,0.0,0.0,0.0,1.0,0.124541015625,0.0419128417969,9.97765136719,0.1,0.0,0.0,0.0,0.1,0.0,0.0,0.0,0.1
1446036517619177177,202,1446036517616122961,robocape,4.3372805945,8.87431682904,20.2606963505,0.0,10.0,0.0,0.0,0.0,10.0,0.0,0.0,0.0,10.0,-0.138218060575,0.0170442309765,0.0872185257001,1.0,0.0,0.0,0.0,1.0,0.0,0.0,0.0,1.0,0.0383203125,-0.240699462891,10.0147741699,0.1,0.0,0.0,0.0,0.1,0.0,0.0,0.0,0.1
1446036517651114677,203,1446036517648125886,robocape,4.29204718405,8.89818849115,20.1301665219,0.0,10.0,0.0,0.0,0.0,10.0,0.0,0.0,0.0,10.0,-0.0105194863058,0.016644756813,-0.049135322112,1.0,0.0,0.0,0.0,1.0,0.0,0.0,0.0,1.0,0.0682580566406,-1.31845825195,10.0542919922,0.1,0.0,0.0,0.0,0.1,0.0,0.0,0.0,0.1
1446036517685053803,204,1446036517681581020,robocape,4.32202035827,8.93301841858,19.8488036173,0.0,10.0,0.0,0.0,0.0,10.0,0.0,0.0,0.0,10.0,0.0408795227327,0.0154463343225,-0.129829103141,1.0,0.0,0.0,0.0,1.0,0.0,0.0,0.0,1.0,0.0934057617188,-0.252674560547,10.060279541,0.1,0.0,0.0,0.0,0.1,0.0,0.0,0.0,0.1
1446036517718171594,205,1446036517715073108,robocape,4.19503194492,8.95789309065,19.6331132043,0.0,10.0,0.0,0.0,0.0,10.0,0.0,0.0,0.0,10.0,-0.0466053190764,0.0131826473959,-0.0952080089703,1.0,0.0,0.0,0.0,1.0,0.0,0.0,0.0,1.0,0.076640625,-0.106578369141,10.0483044434,0.1,0.0,0.0,0.0,0.1,0.0,0.0,0.0,0.1
1446036517751497469,206,1446036517748136997,robocape,3.90308534834,8.96769776193,19.4929849447,0.0,10.0,0.0,0.0,0.0,10.0,0.0,0.0,0.0,10.0,-0.139283325011,0.00878843159726,-0.0551274345646,1.0,0.0,0.0,0.0,1.0,0.0,0.0,0.0,1.0,0.0395178222656,-0.639470214844,10.0219592285,0.1,0.0,0.0,0.0,0.1,0.0,0.0,0.0,0.1
1446036517784821344,207,1446036517781735897,robocape,3.51827493678,8.95750195352,19.5538506023,0.0,10.0,0.0,0.0,0.0,10.0,0.0,0.0,0.0,10.0,-0.204397613664,0.0067910607797,0.052064799311,1.0,0.0,0.0,0.0,1.0,0.0,0.0,0.0,1.0,0.0179626464844,-0.793948974609,10.1405126953,0.1,0.0,0.0,0.0,0.1,0.0,0.0,0.0,0.1
1446036517822960636,208,1446036517814830064,robocape,3.22862448141,8.97000426841,19.5520719769,0.0,10.0,0.0,0.0,0.0,10.0,0.0,0.0,0.0,10.0,-0.149802811317,0.0162452826495,0.0185089695761,1.0,0.0,0.0,0.0,1.0,0.0,0.0,0.0,1.0,-0.0299377441406,-1.99145874023,10.0315393066,0.1,0.0,0.0,0.0,0.1,0.0,0.0,0.0,0.1
1446036517852093053,209,1446036517849103927,robocape,3.12151678431,8.97124865246,19.656181412,0.0,10.0,0.0,0.0,0.0,10.0,0.0,0.0,0.0,10.0,-0.0628506017259,0.0142479118319,0.0755006169037,1.0,0.0,0.0,0.0,1.0,0.0,0.0,0.0,1.0,0.499361572266,-1.0765612793,9.99441650391,0.1,0.0,0.0,0.0,0.1,0.0,0.0,0.0,0.1
1446036517884655261,210,1446036517881500005,robocape,3.30065119619,9.00619446347,19.592253113,0.0,10.0,0.0,0.0,0.0,10.0,0.0,0.0,0.0,10.0,0.100800647259,0.0260989786828,-0.0142479118319,1.0,0.0,0.0,0.0,1.0,0.0,0.0,0.0,1.0,0.214354248047,-1.51484985352,10.0219592285,0.1,0.0,0.0,0.0,0.1,0.0,0.0,0.0,0.1
1446036517918405469,211,1446036517915406942,robocape,3.47186279045,9.02997483759,19.6243338676,0.0,10.0,0.0,0.0,0.0,10.0,0.0,0.0,0.0,10.0,0.0890827384632,0.0238352917562,0.0370179391521,1.0,0.0,0.0,0.0,1.0,0.0,0.0,0.0,1.0,0.0993933105469,-0.385598144531,10.0303417969,0.1,0.0,0.0,0.0,0.1,0.0,0.0,0.0,0.1
1446036517951142136,212,1446036517948088884,robocape,3.57352657735,9.04133406167,19.7802008513,0.0,10.0,0.0,0.0,0.0,10.0,0.0,0.0,0.0,10.0,0.0427437354958,0.0222373951022,0.103197492241,1.0,0.0,0.0,0.0,1.0,0.0,0.0,0.0,1.0,0.0203576660156,-1.01788330078,10.0614770508,0.1,0.0,0.0,0.0,0.1,0.0,0.0,0.0,0.1
1446036517984512178,213,1446036517981290102,robocape,3.74871124036,9.05679060756,19.8843193053,0.0,10.0,0.0,0.0,0.0,10.0,0.0,0.0,0.0,10.0,0.085620629046,0.0226368692657,0.0759000910673,1.0,0.0,0.0,0.0,1.0,0.0,0.0,0.0,1.0,0.162861328125,-0.889749755859,10.0566870117,0.1,0.0,0.0,0.0,0.1,0.0,0.0,0.0,0.1
1446036518017958469,214,1446036518014887094,robocape,4.06055228155,9.0888284783,19.7563290327,0.0,10.0,0.0,0.0,0.0,10.0,0.0,0.0,0.0,10.0,0.176301264163,0.0218379209386,-0.0478037415669,1.0,0.0,0.0,0.0,1.0,0.0,0.0,0.0,1.0,0.17244140625,-0.980760498047,10.0471069336,0.1,0.0,0.0,0.0,0.1,0.0,0.0,0.0,0.1
1446036518050970636,215,1446036518047957897,robocape,4.43687081454,9.12906412839,19.4155505351,0.0,10.0,0.0,0.0,0.0,10.0,0.0,0.0,0.0,10.0,0.227700273202,0.016112124595,-0.161254404004,1.0,0.0,0.0,0.0,1.0,0.0,0.0,0.0,1.0,0.0694555664063,0.0838256835938,9.97166381836,0.1,0.0,0.0,0.0,0.1,0.0,0.0,0.0,0.1
1446036518084423969,216,1446036518081175088,robocape,4.26780813669,9.1396045563,19.4253895893,0.0,10.0,0.0,0.0,0.0,10.0,0.0,0.0,0.0,10.0,-0.0865527354276,0.016112124595,0.0245010820287,1.0,0.0,0.0,0.0,1.0,0.0,0.0,0.0,1.0,-0.222736816406,0.640667724609,9.98842895508,0.1,0.0,0.0,0.0,0.1,0.0,0.0,0.0,0.1
1446036518117920386,217,1446036518114916086,robocape,3.92974712603,9.1503630377,19.4164804343,0.0,10.0,0.0,0.0,0.0,10.0,0.0,0.0,0.0,10.0,-0.173904419182,0.0151800182135,0.0142479118319,1.0,0.0,0.0,0.0,1.0,0.0,0.0,0.0,1.0,0.101788330078,-0.882564697266,10.100994873,0.1,0.0,0.0,0.0,0.1,0.0,0.0,0.0,0.1
1446036518151075053,218,1446036518148065090,robocape,3.71003916611,9.17008707051,19.1912074168,0.0,10.0,0.0,0.0,0.0,10.0,0.0,0.0,0.0,10.0,-0.0944090606433,0.0109189604693,-0.100667489205,1.0,0.0,0.0,0.0,1.0,0.0,0.0,0.0,1.0,0.112565917969,-0.652642822266,10.0459094238,0.1,0.0,0.0,0.0,0.1,0.0,0.0,0.0,0.1
1446036518184555969,219,1446036518181252956,robocape,3.46439211485,9.18379228726,18.9751470418,0.0,10.0,0.0,0.0,0.0,10.0,0.0,0.0,0.0,10.0,-0.108923288584,0.00852211548825,-0.0958737992429,1.0,0.0,0.0,0.0,1.0,0.0,0.0,0.0,1.0,0.0263452148438,-0.634680175781,10.0291442871,0.1,0.0,0.0,0.0,0.1,0.0,0.0,0.0,0.1
1446036518217978219,220,1446036518214637994,robocape,3.22390058068,9.19429104067,18.796186643,0.0,10.0,0.0,0.0,0.0,10.0,0.0,0.0,0.0,10.0,-0.109455920802,0.00865527354276,-0.0762995652308,1.0,0.0,0.0,0.0,1.0,0.0,0.0,0.0,1.0,0.00359252929688,-1.00830322266,10.0483044434,0.1,0.0,0.0,0.0,0.1,0.0,0.0,0.0,0.1
1446036518251440344,221,1446036518248068094,robocape,2.77514815331,9.1846746027,18.9033552145,0.0,10.0,0.0,0.0,0.0,10.0,0.0,0.0,0.0,10.0,-0.242613975306,0.00825579937925,0.0756337749583,1.0,0.0,0.0,0.0,1.0,0.0,0.0,0.0,1.0,-0.0646655273438,-0.225131835938,10.1417102051,0.1,0.0,0.0,0.0,0.1,0.0,0.0,0.0,0.1
1446036518284655094,222,1446036518281260013,robocape,2.51153952839,9.17027305817,18.9753254278,0.0,10.0,0.0,0.0,0.0,10.0,0.0,0.0,0.0,10.0,-0.143011750537,0.00439421579863,0.0575242795457,1.0,0.0,0.0,0.0,1.0,0.0,0.0,0.0,1.0,0.585582275391,-2.10162963867,9.84592529297,0.1,0.0,0.0,0.0,0.1,0.0,0.0,0.0,0.1
1446036518318233136,223,1446036518314992904,robocape,2.4064932666,9.18698490067,19.0036220834,0.0,10.0,0.0,0.0,0.0,10.0,0.0,0.0,0.0,10.0,-0.0564590151097,0.0194410759576,0.034088461953,1.0,0.0,0.0,0.0,1.0,0.0,0.0,0.0,1.0,-0.0335302734375,-1.2645703125,10.1333276367,0.1,0.0,0.0,0.0,0.1,0.0,0.0,0.0,0.1
1446036518351261136,224,1446036518348028898,robocape,2.46626144455,9.19357444992,19.1256634396,0.0,10.0,0.0,0.0,0.0,10.0,0.0,0.0,0.0,10.0,0.0221042370477,0.016911072922,0.084289048501,1.0,0.0,0.0,0.0,1.0,0.0,0.0,0.0,1.0,0.258662109375,-2.0728894043,10.0315393066,0.1,0.0,0.0,0.0,0.1,0.0,0.0,0.0,0.1
1446036518384727511,225,1446036518381537914,robocape,2.78902614875,9.17254581528,19.1735165619,0.0,10.0,0.0,0.0,0.0,10.0,0.0,0.0,0.0,10.0,0.166314410075,0.000399474163512,0.0456732126949,1.0,0.0,0.0,0.0,1.0,0.0,0.0,0.0,1.0,0.253872070313,-1.56275024414,9.98603393555,0.1,0.0,0.0,0.0,0.1,0.0,0.0,0.0,0.1
1446036518417986761,226,1446036518414866924,robocape,3.38901241256,9.23048944855,19.0671916271,0.0,10.0,0.0,0.0,0.0,10.0,0.0,0.0,0.0,10.0,0.32490565299,0.0370179391521,-0.0375505713701,1.0,0.0,0.0,0.0,1.0,0.0,0.0,0.0,1.0,0.1149609375,-1.41066650391,9.96088623047,0.1,0.0,0.0,0.0,0.1,0.0,0.0,0.0,0.1
1446036518451241470,227,1446036518448184967,robocape,3.87105050904,9.2690354323,19.0078492528,0.0,10.0,0.0,0.0,0.0,10.0,0.0,0.0,0.0,10.0,0.259791364337,0.0283626656093,-0.0123836990689,1.0,0.0,0.0,0.0,1.0,0.0,0.0,0.0,1.0,0.241896972656,0.0526904296875,10.0542919922,0.1,0.0,0.0,0.0,0.1,0.0,0.0,0.0,0.1
1446036518484658553,228,1446036518481478929,robocape,4.21344358174,9.29128595474,18.9621712976,0.0,10.0,0.0,0.0,0.0,10.0,0.0,0.0,0.0,10.0,0.185888644088,0.0202400242846,-0.00492684801665,1.0,0.0,0.0,0.0,1.0,0.0,0.0,0.0,1.0,-0.0838256835938,-0.486188964844,10.0650695801,0.1,0.0,0.0,0.0,0.1,0.0,0.0,0.0,0.1
1446036518517815095,229,1446036518514741897,robocape,4.46894767867,9.3240314945,18.780168262,0.0,10.0,0.0,0.0,0.0,10.0,0.0,0.0,0.0,10.0,0.151933340189,0.0193079179031,-0.0777643038303,1.0,0.0,0.0,0.0,1.0,0.0,0.0,0.0,1.0,-0.101788330078,0.307760009766,10.055489502,0.1,0.0,0.0,0.0,0.1,0.0,0.0,0.0,0.1
1446036518551099136,230,1446036518548042058,robocape,4.30291463485,9.33964675829,18.8059563004,0.0,10.0,0.0,0.0,0.0,10.0,0.0,0.0,0.0,10.0,-0.0862864193186,0.0195742340121,0.0318247750264,1.0,0.0,0.0,0.0,1.0,0.0,0.0,0.0,1.0,0.106578369141,0.821491699219,9.98723144531,0.1,0.0,0.0,0.0,0.1,0.0,0.0,0.0,0.1
1446036518585818636,231,1446036518582592964,robocape,3.86143209322,9.34323636995,18.8027559956,0.0,10.0,0.0,0.0,0.0,10.0,0.0,0.0,0.0,10.0,-0.228632379583,0.0115847507418,0.016378440704,1.0,0.0,0.0,0.0,1.0,0.0,0.0,0.0,1.0,0.201181640625,-0.764011230469,9.98962646484,0.1,0.0,0.0,0.0,0.1,0.0,0.0,0.0,0.1
1446036518620630261,232,1446036518617397069,robocape,3.61880752803,9.35651381022,18.5999784452,0.0,10.0,0.0,0.0,0.0,10.0,0.0,0.0,0.0,10.0,-0.107991182203,0.00865527354276,-0.0892158965177,1.0,0.0,0.0,0.0,1.0,0.0,0.0,0.0,1.0,0.0514929199219,-0.895737304688,10.0291442871,0.1,0.0,0.0,0.0,0.1,0.0,0.0,0.0,0.1
1446036518652411595,233,1446036518649308919,robocape,3.27487236645,9.35204227279,18.5849061617,0.0,10.0,0.0,0.0,0.0,10.0,0.0,0.0,0.0,10.0,-0.17710021249,0.00692421883421,0.0103863282513,1.0,0.0,0.0,0.0,1.0,0.0,0.0,0.0,1.0,-0.0550854492188,-0.698148193359,10.0770446777,0.1,0.0,0.0,0.0,0.1,0.0,0.0,0.0,0.1
1446036518685118636,234,1446036518681763887,robocape,3.07935633419,9.361849025,18.5388350116,0.0,10.0,0.0,0.0,0.0,10.0,0.0,0.0,0.0,10.0,-0.0969390636789,0.0134489635049,-0.00612527050718,1.0,0.0,0.0,0.0,1.0,0.0,0.0,0.0,1.0,-0.13412109375,-1.05979614258,10.003996582,0.1,0.0,0.0,0.0,0.1,0.0,0.0,0.0,0.1
1446036518719624470,235,1446036518716590881,robocape,2.81098705695,9.34387750324,18.7082016648,0.0,10.0,0.0,0.0,0.0,10.0,0.0,0.0,0.0,10.0,-0.153531236843,0.00612527050718,0.108656972475,1.0,0.0,0.0,0.0,1.0,0.0,0.0,0.0,1.0,0.45984375,-1.73519165039,9.98363891602,0.1,0.0,0.0,0.0,0.1,0.0,0.0,0.0,0.1
1446036518751390595,236,1446036518748264074,robocape,2.92029284755,9.37763933712,18.582661622,0.0,10.0,0.0,0.0,0.0,10.0,0.0,0.0,0.0,10.0,0.0692421883421,0.0237021337017,-0.0482032157304,1.0,0.0,0.0,0.0,1.0,0.0,0.0,0.0,1.0,0.214354248047,-1.762734375,10.0890197754,0.1,0.0,0.0,0.0,0.1,0.0,0.0,0.0,0.1
1446036518785474261,237,1446036518781892061,robocape,3.19905105265,9.41668187381,18.4488525034,0.0,10.0,0.0,0.0,0.0,10.0,0.0,0.0,0.0,10.0,0.158990717078,0.0260989786828,-0.0527305895836,1.0,0.0,0.0,0.0,1.0,0.0,0.0,0.0,1.0,0.0946032714844,-0.667012939453,10.0135766602,0.1,0.0,0.0,0.0,0.1,0.0,0.0,0.0,0.1
1446036518826134011,238,1446036518816512107,robocape,3.18219394144,9.41064715753,18.7261436774,0.0,10.0,0.0,0.0,0.0,10.0,0.0,0.0,0.0,10.0,-0.0306263525359,0.016911072922,0.165781777857,1.0,0.0,0.0,0.0,1.0,0.0,0.0,0.0,1.0,-0.0910107421875,-0.449066162109,10.0614770508,0.1,0.0,0.0,0.0,0.1,0.0,0.0,0.0,0.1
1446036518855282636,239,1446036518850970983,robocape,3.32402694353,9.42109503183,18.8623200424,0.0,10.0,0.0,0.0,0.0,10.0,0.0,0.0,0.0,10.0,0.0645816564344,0.0207726565026,0.0912132673352,1.0,0.0,0.0,0.0,1.0,0.0,0.0,0.0,1.0,0.0790356445313,-1.90643554688,9.93933105469,0.1,0.0,0.0,0.0,0.1,0.0,0.0,0.0,0.1
1446036518885784511,240,1446036518882596969,robocape,3.68448034192,9.45773785752,18.7539296276,0.0,10.0,0.0,0.0,0.0,10.0,0.0,0.0,0.0,10.0,0.200136555919,0.0255663464648,-0.0387489938607,1.0,0.0,0.0,0.0,1.0,0.0,0.0,0.0,1.0,0.411943359375,-0.376018066406,10.0207617188,0.1,0.0,0.0,0.0,0.1,0.0,0.0,0.0,0.1
1446036518922332636,241,1446036518919313907,robocape,3.84773407268,9.47618448377,18.8355112921,0.0,10.0,0.0,0.0,0.0,10.0,0.0,0.0,0.0,10.0,0.0809600971384,0.0235689756472,0.0620516533988,1.0,0.0,0.0,0.0,1.0,0.0,0.0,0.0,1.0,-0.104183349609,-0.5748046875,10.1345251465,0.1,0.0,0.0,0.0,0.1,0.0,0.0,0.0,0.1
1446036518954215511,242,1446036518951165914,robocape,4.02682963233,9.49670653739,18.8647146386,0.0,10.0,0.0,0.0,0.0,10.0,0.0,0.0,0.0,10.0,0.0938764284253,0.0226368692657,0.034354778062,1.0,0.0,0.0,0.0,1.0,0.0,0.0,0.0,1.0,-0.108973388672,-1.15559692383,10.0135766602,0.1,0.0,0.0,0.0,0.1,0.0,0.0,0.0,0.1
1446036518986686845,243,1446036518983155012,robocape,4.34966070167,9.53028894921,18.6187577557,0.0,10.0,0.0,0.0,0.0,10.0,0.0,0.0,0.0,10.0,0.192812862922,0.0173105470855,-0.111586449674,1.0,0.0,0.0,0.0,1.0,0.0,0.0,0.0,1.0,0.122145996094,-0.51732421875,10.0483044434,0.1,0.0,0.0,0.0,0.1,0.0,0.0,0.0,0.1
1446036519022544595,244,1446036519019345998,robocape,4.52759887836,9.56901499584,18.3459198181,0.0,10.0,0.0,0.0,0.0,10.0,0.0,0.0,0.0,10.0,0.11944277489,0.0181094954125,-0.126500151779,1.0,0.0,0.0,0.0,1.0,0.0,0.0,0.0,1.0,0.09580078125,0.399968261719,10.0219592285,0.1,0.0,0.0,0.0,0.1,0.0,0.0,0.0,0.1
1446036519054909011,245,1446036519051088094,robocape,4.28942416019,9.5835151793,18.3036492763,0.0,10.0,0.0,0.0,0.0,10.0,0.0,0.0,0.0,10.0,-0.118377510454,0.015845808486,-0.00492684801665,1.0,0.0,0.0,0.0,1.0,0.0,0.0,0.0,1.0,0.132923583984,0.622705078125,10.0315393066,0.1,0.0,0.0,0.0,0.1,0.0,0.0,0.0,0.1
1446036519088263887,246,1446036519084518909,robocape,3.59935157764,9.55640329002,18.5782068068,0.0,10.0,0.0,0.0,0.0,10.0,0.0,0.0,0.0,10.0,-0.382962564753,0.00719053494321,0.163118616767,1.0,0.0,0.0,0.0,1.0,0.0,0.0,0.0,1.0,0.0155676269531,-0.425115966797,9.9980090332,0.1,0.0,0.0,0.0,0.1,0.0,0.0,0.0,0.1
1446036519122041053,247,1446036519118685007,robocape,3.09732623344,9.53221151298,18.779928923,0.0,10.0,0.0,0.0,0.0,10.0,0.0,0.0,0.0,10.0,-0.278699808077,0.00479368996214,0.125568045397,1.0,0.0,0.0,0.0,1.0,0.0,0.0,0.0,1.0,-0.173638916016,-1.87649780273,9.99202148437,0.1,0.0,0.0,0.0,0.1,0.0,0.0,0.0,0.1
1446036519154076137,248,1446036519150100946,robocape,2.92104532312,9.52077863404,18.8404263255,0.0,10.0,0.0,0.0,0.0,10.0,0.0,0.0,0.0,10.0,-0.0961401153519,0.00625842856169,0.051265850984,1.0,0.0,0.0,0.0,1.0,0.0,0.0,0.0,1.0,0.445473632813,-1.93637329102,10.1045874023,0.1,0.0,0.0,0.0,0.1,0.0,0.0,0.0,0.1
1446036519189152762,249,1446036519185790061,robocape,3.00032320422,9.56069957672,18.771958502,0.0,10.0,0.0,0.0,0.0,10.0,0.0,0.0,0.0,10.0,0.048869006003,0.0290284558819,-0.0178431793035,1.0,0.0,0.0,0.0,1.0,0.0,0.0,0.0,1.0,0.431103515625,-2.01780395508,9.97525634766,0.1,0.0,0.0,0.0,0.1,0.0,0.0,0.0,0.1
1446036519221939012,250,1446036519218730926,robocape,3.48373182084,9.61879051693,18.4948743664,0.0,10.0,0.0,0.0,0.0,10.0,0.0,0.0,0.0,10.0,0.278966124186,0.0310258266994,-0.128630680651,1.0,0.0,0.0,0.0,1.0,0.0,0.0,0.0,1.0,-0.0131726074219,-0.838256835938,10.0566870117,0.1,0.0,0.0,0.0,0.1,0.0,0.0,0.0,0.1
1446036519255370678,251,1446036519252100944,robocape,3.68911392554,9.63715851468,18.5383784829,0.0,10.0,0.0,0.0,0.0,10.0,0.0,0.0,0.0,10.0,0.105993811385,0.0219710789932,0.0415453130052,1.0,0.0,0.0,0.0,1.0,0.0,0.0,0.0,1.0,0.0838256835938,-0.404758300781,10.0087866211,0.1,0.0,0.0,0.0,0.1,0.0,0.0,0.0,0.1
1446036519288188470,252,1446036519284987926,robocape,3.81425024712,9.65256908068,18.627096291,0.0,10.0,0.0,0.0,0.0,10.0,0.0,0.0,0.0,10.0,0.0601874406358,0.0223705531567,0.0655137628159,1.0,0.0,0.0,0.0,1.0,0.0,0.0,0.0,1.0,-0.125738525391,-0.581989746094,9.97405883789,0.1,0.0,0.0,0.0,0.1,0.0,0.0,0.0,0.1
1446036519321650387,253,1446036519318459033,robocape,3.92095038113,9.66991106825,18.6036092479,0.0,10.0,0.0,0.0,0.0,10.0,0.0,0.0,0.0,10.0,0.0603205986903,0.0187752856851,0.00612527050718,1.0,0.0,0.0,0.0,1.0,0.0,0.0,0.0,1.0,0.15328125,-0.469423828125,10.0087866211,0.1,0.0,0.0,0.0,0.1,0.0,0.0,0.0,0.1
1446036519354569470,254,1446036519351499080,robocape,4.03146887477,9.69084950934,18.4166289116,0.0,10.0,0.0,0.0,0.0,10.0,0.0,0.0,0.0,10.0,0.0765658813398,0.0135821215594,-0.0805606229749,1.0,0.0,0.0,0.0,1.0,0.0,0.0,0.0,1.0,0.05748046875,0.383203125,10.0662670898,0.1,0.0,0.0,0.0,0.1,0.0,0.0,0.0,0.1
1446036519388343803,255,1446036519385193109,robocape,3.75228376778,9.69761599249,18.4480231444,0.0,10.0,0.0,0.0,0.0,10.0,0.0,0.0,0.0,10.0,-0.146740176063,0.0151800182135,0.0344879361165,1.0,0.0,0.0,0.0,1.0,0.0,0.0,0.0,1.0,0.0359252929688,-0.102985839844,10.0782421875,0.1,0.0,0.0,0.0,0.1,0.0,0.0,0.0,0.1
1446036519420747970,256,1446036519417711019,robocape,3.46913100754,9.69545115307,18.4628779782,0.0,10.0,0.0,0.0,0.0,10.0,0.0,0.0,0.0,10.0,-0.147672282445,0.00972053797879,0.0260989786828,1.0,0.0,0.0,0.0,1.0,0.0,0.0,0.0,1.0,-0.009580078125,-1.17954711914,10.0542919922,0.1,0.0,0.0,0.0,0.1,0.0,0.0,0.0,0.1
1446036519453267803,257,1446036519450148105,robocape,3.55441605889,9.73285523119,18.1733749281,0.0,10.0,0.0,0.0,0.0,10.0,0.0,0.0,0.0,10.0,0.0719053494321,0.0189084437396,-0.135421741431,1.0,0.0,0.0,0.0,1.0,0.0,0.0,0.0,1.0,0.0550854492188,-1.68130371094,10.0087866211,0.1,0.0,0.0,0.0,0.1,0.0,0.0,0.0,0.1
1446036519486825387,258,1446036519483799934,robocape,3.62144274068,9.77081960532,17.8280755975,0.0,10.0,0.0,0.0,0.0,10.0,0.0,0.0,0.0,10.0,0.067377975579,0.0167779148675,-0.165249145639,1.0,0.0,0.0,0.0,1.0,0.0,0.0,0.0,1.0,0.401165771484,0.572409667969,10.019564209,0.1,0.0,0.0,0.0,0.1,0.0,0.0,0.0,0.1
1446036519520551720,259,1446036519517471075,robocape,3.28406116746,9.75812130963,17.9299115947,0.0,10.0,0.0,0.0,0.0,10.0,0.0,0.0,0.0,10.0,-0.18389127327,0.00732369299772,0.0713727172141,1.0,0.0,0.0,0.0,1.0,0.0,0.0,0.0,1.0,-0.113763427734,-1.26696533203,10.0974023437,0.1,0.0,0.0,0.0,0.1,0.0,0.0,0.0,0.1
1446036519553187387,260,1446036519550175905,robocape,3.20392264587,9.77858621708,17.8775238523,0.0,10.0,0.0,0.0,0.0,10.0,0.0,0.0,0.0,10.0,-0.0356863586071,0.0191747598486,-0.0103863282513,1.0,0.0,0.0,0.0,1.0,0.0,0.0,0.0,1.0,-0.0407153320313,-1.06458618164,10.0411193848,0.1,0.0,0.0,0.0,0.1,0.0,0.0,0.0,0.1
1446036519586316303,261,1446036519582938909,robocape,2.9948971696,9.76455747669,18.0134183113,0.0,10.0,0.0,0.0,0.0,10.0,0.0,0.0,0.0,10.0,-0.119975407108,0.00759000910673,0.0897485287357,1.0,0.0,0.0,0.0,1.0,0.0,0.0,0.0,1.0,0.182021484375,-1.28852050781,10.0495019531,0.1,0.0,0.0,0.0,0.1,0.0,0.0,0.0,0.1
1446036519619592095,262,1446036519616342067,robocape,3.08626878554,9.79633276702,17.9333703227,0.0,10.0,0.0,0.0,0.0,10.0,0.0,0.0,0.0,10.0,0.0564590151097,0.0243679239742,-0.0249005561922,1.0,0.0,0.0,0.0,1.0,0.0,0.0,0.0,1.0,0.354462890625,-1.04901855469,10.0902172852,0.1,0.0,0.0,0.0,0.1,0.0,0.0,0.0,0.1
1446036519652701762,263,1446036519649302005,robocape,3.11907474752,9.80280188522,18.040434499,0.0,10.0,0.0,0.0,0.0,10.0,0.0,0.0,0.0,10.0,0.00932106381528,0.0175768631945,0.0744353524677,1.0,0.0,0.0,0.0,1.0,0.0,0.0,0.0,1.0,-0.0646655273438,-1.32564331055,10.0063916016,0.1,0.0,0.0,0.0,0.1,0.0,0.0,0.0,0.1
1446036519685800053,264,1446036519682468891,robocape,3.3686084444,9.8262995667,17.9516369595,0.0,10.0,0.0,0.0,0.0,10.0,0.0,0.0,0.0,10.0,0.140348589447,0.0197073920666,-0.0291616139364,1.0,0.0,0.0,0.0,1.0,0.0,0.0,0.0,1.0,0.380808105469,-0.510139160156,10.0854272461,0.1,0.0,0.0,0.0,0.1,0.0,0.0,0.0,0.1
1446036519719012553,265,1446036519715766906,robocape,3.38208105546,9.84279570196,18.0750936967,0.0,10.0,0.0,0.0,0.0,10.0,0.0,0.0,0.0,10.0,-0.00199737081756,0.0238352917562,0.0828243099015,1.0,0.0,0.0,0.0,1.0,0.0,0.0,0.0,1.0,0.0263452148438,-0.434696044922,10.0614770508,0.1,0.0,0.0,0.0,0.1,0.0,0.0,0.0,0.1
1446036519751373262,266,1446036519748253107,robocape,3.39432136977,9.84950087686,18.2483110934,0.0,10.0,0.0,0.0,0.0,10.0,0.0,0.0,0.0,10.0,-0.00705737688871,0.0206394984481,0.109589078857,1.0,0.0,0.0,0.0,1.0,0.0,0.0,0.0,1.0,-0.0790356445313,-1.12925170898,9.96807128906,0.1,0.0,0.0,0.0,0.1,0.0,0.0,0.0,0.1
1446036519785059804,267,1446036519781979084,robocape,3.49364591463,9.86442344237,18.3240208512,0.0,10.0,0.0,0.0,0.0,10.0,0.0,0.0,0.0,10.0,0.0472711093489,0.0214384467751,0.0581900698182,1.0,0.0,0.0,0.0,1.0,0.0,0.0,0.0,1.0,0.267044677734,-0.756826171875,10.0351318359,0.1,0.0,0.0,0.0,0.1,0.0,0.0,0.0,0.1
1446036519824646929,268,1446036519814950942,robocape,3.65560402081,9.88820817193,18.2772415967,0.0,10.0,0.0,0.0,0.0,10.0,0.0,0.0,0.0,10.0,0.0910801092807,0.0214384467751,-0.0066579027252,1.0,0.0,0.0,0.0,1.0,0.0,0.0,0.0,1.0,0.165256347656,-0.822689208984,10.0459094238,0.1,0.0,0.0,0.0,0.1,0.0,0.0,0.0,0.1
1446036519852105470,269,1446036519849078893,robocape,4.04136096202,9.93033203384,17.8759912702,0.0,10.0,0.0,0.0,0.0,10.0,0.0,0.0,0.0,10.0,0.240083972271,0.0162452826495,-0.194277601521,1.0,0.0,0.0,0.0,1.0,0.0,0.0,0.0,1.0,0.116158447266,-0.67060546875,10.100994873,0.1,0.0,0.0,0.0,0.1,0.0,0.0,0.0,0.1
1446036519884528637,270,1446036519881377935,robocape,4.15845958732,9.96726067576,17.5333531496,0.0,10.0,0.0,0.0,0.0,10.0,0.0,0.0,0.0,10.0,0.0944090606433,0.0150468601589,-0.163917565094,1.0,0.0,0.0,0.0,1.0,0.0,0.0,0.0,1.0,-0.0550854492188,0.886157226563,9.97046630859,0.1,0.0,0.0,0.0,0.1,0.0,0.0,0.0,0.1
1446036519918222137,271,1446036519915136098,robocape,3.77232939147,9.97345289917,17.4584929387,0.0,10.0,0.0,0.0,0.0,10.0,0.0,0.0,0.0,10.0,-0.19334549514,0.0102531701968,-0.0230363434292,1.0,0.0,0.0,0.0,1.0,0.0,0.0,0.0,1.0,-0.00718505859375,0.238304443359,10.0123791504,0.1,0.0,0.0,0.0,0.1,0.0,0.0,0.0,0.1
1446036519950928470,272,1446036519947854042,robocape,3.29705683879,9.96386322362,17.3941929581,0.0,10.0,0.0,0.0,0.0,10.0,0.0,0.0,0.0,10.0,-0.241415552816,0.00253000303558,-0.017177389031,1.0,0.0,0.0,0.0,1.0,0.0,0.0,0.0,1.0,-0.0143701171875,-0.805924072266,10.0974023437,0.1,0.0,0.0,0.0,0.1,0.0,0.0,0.0,0.1
1446036519984575637,273,1446036519981338977,robocape,2.89748269866,9.95645406312,17.3418703628,0.0,10.0,0.0,0.0,0.0,10.0,0.0,0.0,0.0,10.0,-0.203199191173,0.00439421579863,-0.0107858024148,1.0,0.0,0.0,0.0,1.0,0.0,0.0,0.0,1.0,-0.0814306640625,-1.45377685547,10.0387243652,0.1,0.0,0.0,0.0,0.1,0.0,0.0,0.0,0.1
1446036520018044137,274,1446036520015010118,robocape,2.49975892168,9.93734183027,17.467924454,0.0,10.0,0.0,0.0,0.0,10.0,0.0,0.0,0.0,10.0,-0.218645525496,0.00399474163512,0.0836232582285,1.0,0.0,0.0,0.0,1.0,0.0,0.0,0.0,1.0,0.484991455078,-0.773591308594,10.0255517578,0.1,0.0,0.0,0.0,0.1,0.0,0.0,0.0,0.1
1446036520051409554,275,1446036520047954082,robocape,2.46220408112,9.95131571094,17.4787590163,0.0,10.0,0.0,0.0,0.0,10.0,0.0,0.0,0.0,10.0,-0.0197073920666,0.017976337358,0.0227700273202,1.0,0.0,0.0,0.0,1.0,0.0,0.0,0.0,1.0,0.247884521484,-2.73391479492,9.97286132813,0.1,0.0,0.0,0.0,0.1,0.0,0.0,0.0,0.1
1446036520084465220,276,1446036520081269025,robocape,2.76029729737,9.99230045729,17.3715712873,0.0,10.0,0.0,0.0,0.0,10.0,0.0,0.0,0.0,10.0,0.166980200348,0.0287621397729,-0.0398142582967,1.0,0.0,0.0,0.0,1.0,0.0,0.0,0.0,1.0,0.229921875,-1.32324829102,10.0375268555,0.1,0.0,0.0,0.0,0.1,0.0,0.0,0.0,0.1
1446036520117841220,277,1446036520114811897,robocape,2.98232547934,10.0279925655,17.4308560635,0.0,10.0,0.0,0.0,0.0,10.0,0.0,0.0,0.0,10.0,0.112385398001,0.0312921428084,0.0479368996214,1.0,0.0,0.0,0.0,1.0,0.0,0.0,0.0,1.0,0.01916015625,-0.258662109375,10.1225500488,0.1,0.0,0.0,0.0,0.1,0.0,0.0,0.0,0.1
1446036520151236804,278,1446036520148149967,robocape,3.09405445021,10.0293283353,17.7596749081,0.0,10.0,0.0,0.0,0.0,10.0,0.0,0.0,0.0,10.0,0.0303600364269,0.0226368692657,0.190948650159,1.0,0.0,0.0,0.0,1.0,0.0,0.0,0.0,1.0,0.0934057617188,-1.48251708984,9.97286132813,0.1,0.0,0.0,0.0,0.1,0.0,0.0,0.0,0.1
1446036520184599012,279,1446036520181416034,robocape,3.54856156744,10.078064686,17.6855656134,0.0,10.0,0.0,0.0,0.0,10.0,0.0,0.0,0.0,10.0,0.246741874996,0.033822145844,-0.0221042370477,1.0,0.0,0.0,0.0,1.0,0.0,0.0,0.0,1.0,0.269439697266,-1.18912719727,9.93334350586,0.1,0.0,0.0,0.0,0.1,0.0,0.0,0.0,0.1
1446036520217963554,280,1446036520214937925,robocape,4.09515840386,10.1179179587,17.4515044708,0.0,10.0,0.0,0.0,0.0,10.0,0.0,0.0,0.0,10.0,0.309991950885,0.0223705531567,-0.106260127494,1.0,0.0,0.0,0.0,1.0,0.0,0.0,0.0,1.0,0.117355957031,-0.229921875,10.0351318359,0.1,0.0,0.0,0.0,0.1,0.0,0.0,0.0,0.1
1446036520251057720,281,1446036520247988939,robocape,4.30863147132,10.143931304,17.3258926937,0.0,10.0,0.0,0.0,0.0,10.0,0.0,0.0,0.0,10.0,0.125967519561,0.0190416017941,-0.049401638221,1.0,0.0,0.0,0.0,1.0,0.0,0.0,0.0,1.0,-0.461041259766,0.706530761719,10.0315393066,0.1,0.0,0.0,0.0,0.1,0.0,0.0,0.0,0.1
1446036520284658762,282,1446036520281609058,robocape,4.20875118961,10.1638204554,17.2849772384,0.0,10.0,0.0,0.0,0.0,10.0,0.0,0.0,0.0,10.0,-0.0459395288039,0.0193079179031,-0.00532632218016,1.0,0.0,0.0,0.0,1.0,0.0,0.0,0.0,1.0,0.0790356445313,0.223934326172,9.98962646484,0.1,0.0,0.0,0.0,0.1,0.0,0.0,0.0,0.1
1446036520317823012,283,1446036520314754009,robocape,3.78539857828,10.1609388054,17.3892472336,0.0,10.0,0.0,0.0,0.0,10.0,0.0,0.0,0.0,10.0,-0.229031853747,0.0133158054504,0.0712395591596,1.0,0.0,0.0,0.0,1.0,0.0,0.0,0.0,1.0,-0.0263452148438,0.334105224609,9.99920654297,0.1,0.0,0.0,0.0,0.1,0.0,0.0,0.0,0.1
1446036520351129262,284,1446036520348037958,robocape,3.38085747107,10.1493256432,17.4671690583,0.0,10.0,0.0,0.0,0.0,10.0,0.0,0.0,0.0,10.0,-0.217180786896,0.00732369299772,0.0579237537092,1.0,0.0,0.0,0.0,1.0,0.0,0.0,0.0,1.0,0.0562829589844,-1.41904907227,10.0997973633,0.1,0.0,0.0,0.0,0.1,0.0,0.0,0.0,0.1
1446036520384511970,285,1446036520381391048,robocape,3.08352168939,10.1434078325,17.5691294081,0.0,10.0,0.0,0.0,0.0,10.0,0.0,0.0,0.0,10.0,-0.163518090931,0.0110521185238,0.0708400849961,1.0,0.0,0.0,0.0,1.0,0.0,0.0,0.0,1.0,0.0311352539063,-1.01908081055,10.1704504395,0.1,0.0,0.0,0.0,0.1,0.0,0.0,0.0,0.1
1446036520417781304,286,1446036520414725065,robocape,2.87318700184,10.1412837819,17.671868587,0.0,10.0,0.0,0.0,0.0,10.0,0.0,0.0,0.0,10.0,-0.1182443524,0.0129163312869,0.0715058752686,1.0,0.0,0.0,0.0,1.0,0.0,0.0,0.0,1.0,0.358055419922,-1.65016845703,9.92615844727,0.1,0.0,0.0,0.0,0.1,0.0,0.0,0.0,0.1
1446036520450932720,287,1446036520447880029,robocape,3.00471464781,10.1624454465,17.6938202665,0.0,10.0,0.0,0.0,0.0,10.0,0.0,0.0,0.0,10.0,0.0683100819605,0.0226368692657,0.0288952978274,1.0,0.0,0.0,0.0,1.0,0.0,0.0,0.0,1.0,0.137713623047,-1.80943725586,9.96926879883,0.1,0.0,0.0,0.0,0.1,0.0,0.0,0.0,0.1
1446036520484521096,288,1446036520481302976,robocape,3.32470805869,10.1969540924,17.6804251981,0.0,10.0,0.0,0.0,0.0,10.0,0.0,0.0,0.0,10.0,0.17057546782,0.0286289817184,0.0101200121423,1.0,0.0,0.0,0.0,1.0,0.0,0.0,0.0,1.0,0.156873779297,-1.09572143555,10.0279467773,0.1,0.0,0.0,0.0,0.1,0.0,0.0,0.0,0.1
1446036520518048137,289,1446036520514868021,robocape,3.65720463589,10.2270870409,17.6928985796,0.0,10.0,0.0,0.0,0.0,10.0,0.0,0.0,0.0,10.0,0.175102841673,0.0274305592278,0.0238352917562,1.0,0.0,0.0,0.0,1.0,0.0,0.0,0.0,1.0,0.138911132813,-0.839454345703,10.0698596191,0.1,0.0,0.0,0.0,0.1,0.0,0.0,0.0,0.1
1446036520551146096,290,1446036520547920942,robocape,4.06318549041,10.2547343552,17.5952318681,0.0,10.0,0.0,0.0,0.0,10.0,0.0,0.0,0.0,10.0,0.22410500573,0.0217047628841,-0.034088461953,1.0,0.0,0.0,0.0,1.0,0.0,0.0,0.0,1.0,0.146096191406,-0.876577148438,10.0363293457,0.1,0.0,0.0,0.0,0.1,0.0,0.0,0.0,0.1
1446036520584642637,291,1446036520581139087,robocape,4.48116668039,10.287577576,17.2977694813,0.0,10.0,0.0,0.0,0.0,10.0,0.0,0.0,0.0,10.0,0.249138719977,0.0150468601589,-0.13954964112,1.0,0.0,0.0,0.0,1.0,0.0,0.0,0.0,1.0,-0.159268798828,0.458646240234,9.95010864258,0.1,0.0,0.0,0.0,0.1,0.0,0.0,0.0,0.1
1446036520618039096,292,1446036520614684104,robocape,4.36532699634,10.30569998,17.3505092543,0.0,10.0,0.0,0.0,0.0,10.0,0.0,0.0,0.0,10.0,-0.0627174436714,0.0229031853747,0.0439421579863,1.0,0.0,0.0,0.0,1.0,0.0,0.0,0.0,1.0,-0.0514929199219,0.813109130859,10.0483044434,0.1,0.0,0.0,0.0,0.1,0.0,0.0,0.0,0.1
1446036520651201804,293,1446036520647891998,robocape,4.00082792382,10.3103212789,17.3248998717,0.0,10.0,0.0,0.0,0.0,10.0,0.0,0.0,0.0,10.0,-0.186154960197,0.0118510668509,0.00279631914458,1.0,0.0,0.0,0.0,1.0,0.0,0.0,0.0,1.0,0.141306152344,-0.506546630859,10.0063916016,0.1,0.0,0.0,0.0,0.1,0.0,0.0,0.0,0.1
1446036520684752887,294,1446036520681433916,robocape,3.74174690317,10.3234476049,17.1293014374,0.0,10.0,0.0,0.0,0.0,10.0,0.0,0.0,0.0,10.0,-0.115448033255,0.00932106381528,-0.0866858934821,1.0,0.0,0.0,0.0,1.0,0.0,0.0,0.0,1.0,0.0395178222656,-0.719703369141,10.0435144043,0.1,0.0,0.0,0.0,0.1,0.0,0.0,0.0,0.1
1446036520717903679,295,1446036520714760065,robocape,3.32498747249,10.3139224771,17.1334544334,0.0,10.0,0.0,0.0,0.0,10.0,0.0,0.0,0.0,10.0,-0.216914470787,0.00559263828917,0.0186421276306,1.0,0.0,0.0,0.0,1.0,0.0,0.0,0.0,1.0,-0.0826281738281,-0.596359863281,10.0926123047,0.1,0.0,0.0,0.0,0.1,0.0,0.0,0.0,0.1
1446036520750928262,296,1446036520747849941,robocape,3.06411982895,10.3038739942,17.1868161517,0.0,10.0,0.0,0.0,0.0,10.0,0.0,0.0,0.0,10.0,-0.140082273338,0.00719053494321,0.0448742643678,1.0,0.0,0.0,0.0,1.0,0.0,0.0,0.0,1.0,0.100590820313,-1.8741027832,10.0483044434,0.1,0.0,0.0,0.0,0.1,0.0,0.0,0.0,0.1
1446036520784965846,297,1446036520781785011,robocape,3.06364605304,10.3321437387,17.0241400254,0.0,10.0,0.0,0.0,0.0,10.0,0.0,0.0,0.0,10.0,0.016378440704,0.0199737081756,-0.0693753463966,1.0,0.0,0.0,0.0,1.0,0.0,0.0,0.0,1.0,0.579594726562,-1.42264160156,9.93933105469,0.1,0.0,0.0,0.0,0.1,0.0,0.0,0.0,0.1
1446036520822717929,298,1446036520814640998,robocape,3.23948289314,10.368669962,16.7771075331,0.0,10.0,0.0,0.0,0.0,10.0,0.0,0.0,0.0,10.0,0.1167796138,0.0213052887206,-0.113983294655,1.0,0.0,0.0,0.0,1.0,0.0,0.0,0.0,1.0,-0.00718505859375,-0.925675048828,10.0423168945,0.1,0.0,0.0,0.0,0.1,0.0,0.0,0.0,0.1
1446036520856552846,299,1446036520853259086,robocape,3.14900605012,10.3741595621,16.855749439,0.0,10.0,0.0,0.0,0.0,10.0,0.0,0.0,0.0,10.0,-0.0531300637471,0.016378440704,0.0575242795457,1.0,0.0,0.0,0.0,1.0,0.0,0.0,0.0,1.0,-0.0143701171875,-0.0694555664063,10.152487793,0.1,0.0,0.0,0.0,0.1,0.0,0.0,0.0,0.1
1446036520884814554,300,1446036520881548881,robocape,2.9027758847,10.3475042607,17.2668477629,0.0,10.0,0.0,0.0,0.0,10.0,0.0,0.0,0.0,10.0,-0.166048093966,0.0106526443603,0.233292911491,1.0,0.0,0.0,0.0,1.0,0.0,0.0,0.0,1.0,0.148491210938,-1.71363647461,9.98723144531,0.1,0.0,0.0,0.0,0.1,0.0,0.0,0.0,0.1
1446036520918089971,301,1446036520914995908,robocape,3.02348925953,10.3648436955,17.4261296776,0.0,10.0,0.0,0.0,0.0,10.0,0.0,0.0,0.0,10.0,0.0498011123845,0.0254331884103,0.100800647259,1.0,0.0,0.0,0.0,1.0,0.0,0.0,0.0,1.0,0.269439697266,-1.82739990234,10.0123791504,0.1,0.0,0.0,0.0,0.1,0.0,0.0,0.0,0.1
1446036520952320846,302,1446036520949270963,robocape,3.47030413671,10.4003832354,17.3841815174,0.0,10.0,0.0,0.0,0.0,10.0,0.0,0.0,0.0,10.0,0.239817656162,0.0283626656093,-0.00519316412565,1.0,0.0,0.0,0.0,1.0,0.0,0.0,0.0,1.0,-0.0371228027344,-1.02985839844,9.83155517578,0.1,0.0,0.0,0.0,0.1,0.0,0.0,0.0,0.1
1446036520985277096,303,1446036520981574058,robocape,3.90362329469,10.4884541679,17.3150020701,0.0,10.0,0.0,0.0,0.0,10.0,0.0,0.0,0.0,10.0,0.235822914527,0.0549942765101,-0.0210389726116,1.0,0.0,0.0,0.0,1.0,0.0,0.0,0.0,1.0,-3.54343139648,-0.138911132813,11.0374475098,0.1,0.0,0.0,0.0,0.1,0.0,0.0,0.0,0.1
1446036521019483346,304,1446036521016196012,robocape,4.08232566212,10.6235602033,17.3624663074,0.0,10.0,0.0,0.0,0.0,10.0,0.0,0.0,0.0,10.0,0.0917458995532,0.0846885226645,0.0383495196971,1.0,0.0,0.0,0.0,1.0,0.0,0.0,0.0,1.0,-5.36484375,-0.738863525391,10.9739794922,0.1,0.0,0.0,0.0,0.1,0.0,0.0,0.0,0.1
1446036521052526637,305,1446036521049390077,robocape,4.40090201347,10.8128266642,17.0671574724,0.0,10.0,0.0,0.0,0.0,10.0,0.0,0.0,0.0,10.0,0.198139185102,0.0980043281149,-0.143544382755,1.0,0.0,0.0,0.0,1.0,0.0,0.0,0.0,1.0,-7.74788818359,-0.51732421875,12.4026086426,0.1,0.0,0.0,0.0,0.1,0.0,0.0,0.0,0.1
1446036521086869012,306,1446036521083453893,robocape,4.71346168713,10.6476134742,16.6721045531,0.0,10.0,0.0,0.0,0.0,10.0,0.0,0.0,0.0,10.0,0.204397613664,-0.0944090606433,-0.184157589379,1.0,0.0,0.0,0.0,1.0,0.0,0.0,0.0,1.0,-12.4421264648,0.365240478516,10.26984375,0.1,0.0,0.0,0.0,0.1,0.0,0.0,0.0,0.1
1446036521118653804,307,1446036521115164041,robocape,5.04291095733,10.6453164187,16.1546732178,0.0,10.0,0.0,0.0,0.0,10.0,0.0,0.0,0.0,10.0,0.225037112112,-0.0159789665405,-0.254198726048,1.0,0.0,0.0,0.0,1.0,0.0,0.0,0.0,1.0,-8.60051513672,-1.04662353516,12.3702758789,0.1,0.0,0.0,0.0,0.1,0.0,0.0,0.0,0.1
1446036521151930096,308,1446036521148766040,robocape,5.78917505461,10.8805979138,15.8406770468,0.0,10.0,0.0,0.0,0.0,10.0,0.0,0.0,0.0,10.0,0.425706300249,0.118776984618,-0.157259662369,1.0,0.0,0.0,0.0,1.0,0.0,0.0,0.0,1.0,-13.1223120117,0.961600341797,11.9655175781,0.1,0.0,0.0,0.0,0.1,0.0,0.0,0.0,0.1
1446036521186324346,309,1446036521183128118,robocape,5.90295843739,11.0040092073,15.5011962533,0.0,10.0,0.0,0.0,0.0,10.0,0.0,0.0,0.0,10.0,0.0970722217334,0.0564590151097,-0.167512832566,1.0,0.0,0.0,0.0,1.0,0.0,0.0,0.0,1.0,-7.46527587891,-0.308957519531,10.7668103027,0.1,0.0,0.0,0.0,0.1,0.0,0.0,0.0,0.1
1446036521221807388,310,1446036521217713117,robocape,6.69211094212,11.0699164773,14.9847431871,0.0,10.0,0.0,0.0,0.0,10.0,0.0,0.0,0.0,10.0,0.469382142126,0.0150468601589,-0.255530306593,1.0,0.0,0.0,0.0,1.0,0.0,0.0,0.0,1.0,-7.78381347656,-1.84536254883,10.8195007324,0.1,0.0,0.0,0.0,0.1,0.0,0.0,0.0,0.1
1446036521254353096,311,1446036521250811100,robocape,7.95000045415,11.1549322168,14.6789785794,0.0,10.0,0.0,0.0,0.0,10.0,0.0,0.0,0.0,10.0,0.696682941165,0.0372842552611,-0.146074385791,1.0,0.0,0.0,0.0,1.0,0.0,0.0,0.0,1.0,-6.50247802734,-0.0275427246094,9.80041992188,0.1,0.0,0.0,0.0,0.1,0.0,0.0,0.0,0.1
1446036521288106638,312,1446036521284750938,robocape,9.66670085533,11.3625410006,14.1647483014,0.0,10.0,0.0,0.0,0.0,10.0,0.0,0.0,0.0,10.0,0.961667469628,0.0820253615744,-0.261256102937,1.0,0.0,0.0,0.0,1.0,0.0,0.0,0.0,1.0,-9.5381652832,-0.922082519531,11.5200439453,0.1,0.0,0.0,0.0,0.1,0.0,0.0,0.0,0.1
1446036521323300054,313,1446036521318083047,robocape,11.5046907205,11.5339380363,13.6220236959,0.0,10.0,0.0,0.0,0.0,10.0,0.0,0.0,0.0,10.0,1.03290702879,0.0544616442921,-0.272840853679,1.0,0.0,0.0,0.0,1.0,0.0,0.0,0.0,1.0,-8.17420166016,0.452658691406,11.1188781738,0.1,0.0,0.0,0.0,0.1,0.0,0.0,0.0,0.1
1446036521354949513,314,1446036521350804090,robocape,13.1718415031,11.2147901794,13.4282619511,0.0,10.0,0.0,0.0,0.0,10.0,0.0,0.0,0.0,10.0,0.910268460589,-0.166181252021,-0.0434095257683,1.0,0.0,0.0,0.0,1.0,0.0,0.0,0.0,1.0,-4.26433227539,-0.289797363281,9.24836791992,0.1,0.0,0.0,0.0,0.1,0.0,0.0,0.0,0.1
1446036521387574388,315,1446036521383702993,robocape,15.1972212969,11.6380569752,12.98809884,0.0,10.0,0.0,0.0,0.0,10.0,0.0,0.0,0.0,10.0,1.13330820188,0.184823379651,-0.250869774685,1.0,0.0,0.0,0.0,1.0,0.0,0.0,0.0,1.0,-6.79467041016,-0.904119873047,12.3044128418,0.1,0.0,0.0,0.0,0.1,0.0,0.0,0.0,0.1
1446036521419925013,316,1446036521416794061,robocape,18.0832144181,11.7965296527,12.1199880601,0.0,10.0,0.0,0.0,0.0,10.0,0.0,0.0,0.0,10.0,1.64330355063,-0.0170442309765,-0.425706300249,1.0,0.0,0.0,0.0,1.0,0.0,0.0,0.0,1.0,-4.75052124023,-2.21299804688,8.66877319336,0.1,0.0,0.0,0.0,0.1,0.0,0.0,0.0,0.1
1446036521454253638,317,1446036521451138019,robocape,22.2117315374,11.7435269654,11.0272496883,0.0,10.0,0.0,0.0,0.0,10.0,0.0,0.0,0.0,10.0,2.35263650698,-0.173371786964,-0.484828476449,1.0,0.0,0.0,0.0,1.0,0.0,0.0,0.0,1.0,-3.45122314453,-0.797541503906,9.00407592773,0.1,0.0,0.0,0.0,0.1,0.0,0.0,0.0,0.1
1446036521487915763,318,1446036521484617948,robocape,26.6730224525,11.4246808076,10.787966143,0.0,10.0,0.0,0.0,0.0,10.0,0.0,0.0,0.0,10.0,2.48699298397,-0.137552270303,-0.000932106381528,1.0,0.0,0.0,0.0,1.0,0.0,0.0,0.0,1.0,-3.53983886719,1.44898681641,8.83402954102,0.1,0.0,0.0,0.0,0.1,0.0,0.0,0.0,0.1
1446036521521582221,319,1446036521518115043,robocape,30.2353735359,11.1785796258,11.9360874964,0.0,10.0,0.0,0.0,0.0,10.0,0.0,0.0,0.0,10.0,1.90602439217,0.244744504178,0.62943812364,1.0,0.0,0.0,0.0,1.0,0.0,0.0,0.0,1.0,-5.82588500977,2.69200195313,9.82317260742,0.1,0.0,0.0,0.0,0.1,0.0,0.0,0.0,0.1
1446036521554170554,320,1446036521550494909,robocape,33.0157794831,11.7403703185,14.1749109226,0.0,10.0,0.0,0.0,0.0,10.0,0.0,0.0,0.0,10.0,1.40894537471,0.946221135305,0.885234746342,1.0,0.0,0.0,0.0,1.0,0.0,0.0,0.0,1.0,-2.24772583008,3.1458581543,14.4192150879,0.1,0.0,0.0,0.0,0.1,0.0,0.0,0.0,0.1
1446036521588486804,321,1446036521585314989,robocape,35.2113735952,12.3998365183,16.0386179701,0.0,10.0,0.0,0.0,0.0,10.0,0.0,0.0,0.0,10.0,1.13370767605,0.917592153587,0.661795530885,1.0,0.0,0.0,0.0,1.0,0.0,0.0,0.0,1.0,-2.97940429688,0.667012939453,10.6398742676,0.1,0.0,0.0,0.0,0.1,0.0,0.0,0.0,0.1
1446036521621468263,322,1446036521618225097,robocape,37.8327477557,13.1173678005,17.755136185,0.0,10.0,0.0,0.0,0.0,10.0,0.0,0.0,0.0,10.0,1.41134221969,0.947020083632,0.565389099424,1.0,0.0,0.0,0.0,1.0,0.0,0.0,0.0,1.0,2.51596801758,1.03943847656,11.6469799805,0.1,0.0,0.0,0.0,0.1,0.0,0.0,0.0,0.1
1446036521653883388,323,1446036521650599956,robocape,39.2681488836,12.9659057089,19.6972087029,0.0,10.0,0.0,0.0,0.0,10.0,0.0,0.0,0.0,10.0,0.715857701013,0.658732895631,0.900148448447,1.0,0.0,0.0,0.0,1.0,0.0,0.0,0.0,1.0,8.13109130859,6.3994921875,13.4959350586,0.1,0.0,0.0,0.0,0.1,0.0,0.0,0.0,0.1
1446036521713259304,324,1446036521683753013,robocape,38.6532945699,12.8138036839,23.3902680128,0.0,10.0,0.0,0.0,0.0,10.0,0.0,0.0,0.0,10.0,-0.630503388076,1.19749038415,1.57645820727,1.0,0.0,0.0,0.0,1.0,0.0,0.0,0.0,1.0,1.57712036133,5.24868530273,13.432467041,0.1,0.0,0.0,0.0,0.1,0.0,0.0,0.0,0.1
1446036521736426971,325,1446036521733198881,robocape,35.6192156612,12.4557847435,26.9029221038,0.0,10.0,0.0,0.0,0.0,10.0,0.0,0.0,0.0,10.0,-1.98472080238,0.939696390634,1.54982659637,1.0,0.0,0.0,0.0,1.0,0.0,0.0,0.0,1.0,-6.25339599609,1.99145874023,12.8983776855,0.1,0.0,0.0,0.0,0.1,0.0,0.0,0.0,0.1
1446036521758936638,326,1446036521755897045,robocape,32.1424825074,11.9137690794,29.6826293029,0.0,10.0,0.0,0.0,0.0,10.0,0.0,0.0,0.0,10.0,-2.13146097844,0.5558017195,1.3378389736,1.0,0.0,0.0,0.0,1.0,0.0,0.0,0.0,1.0,-6.08215209961,1.3759387207,9.15975219727,0.1,0.0,0.0,0.0,0.1,0.0,0.0,0.0,0.1
1446036521784749263,327,1446036521781280994,robocape,28.4483115112,11.7054552745,31.9299586863,0.0,10.0,0.0,0.0,0.0,10.0,0.0,0.0,0.0,10.0,-2.17593576865,0.487358479485,1.05048389198,1.0,0.0,0.0,0.0,1.0,0.0,0.0,0.0,1.0,-2.80337036133,0.850231933594,9.40643920898,0.1,0.0,0.0,0.0,0.1,0.0,0.0,0.0,0.1
1446036521824294346,328,1446036521814819097,robocape,24.2598886723,11.156301435,33.7543925492,0.0,10.0,0.0,0.0,0.0,10.0,0.0,0.0,0.0,10.0,-2.3888554978,0.15313176268,0.95967009881,1.0,0.0,0.0,0.0,1.0,0.0,0.0,0.0,1.0,-3.48954345703,1.15439941406,10.3081640625,0.1,0.0,0.0,0.0,0.1,0.0,0.0,0.0,0.1
1446036521851054054,329,1446036521847944021,robocape,19.7572604182,11.157779588,35.4957385484,0.0,10.0,0.0,0.0,0.0,10.0,0.0,0.0,0.0,10.0,-2.53013619363,0.342615674239,0.841026272247,1.0,0.0,0.0,0.0,1.0,0.0,0.0,0.0,1.0,-1.82859741211,0.937650146484,11.2733569336,0.1,0.0,0.0,0.0,0.1,0.0,0.0,0.0,0.1
1446036521885177596,330,1446036521881931066,robocape,15.0535813482,10.5565763282,36.6995404761,0.0,10.0,0.0,0.0,0.0,10.0,0.0,0.0,0.0,10.0,-2.57967098991,-0.10998855302,0.69654978311,1.0,0.0,0.0,0.0,1.0,0.0,0.0,0.0,1.0,-0.849034423828,-0.0538879394531,6.66893188477,0.1,0.0,0.0,0.0,0.1,0.0,0.0,0.0,0.1
1446036521917837346,331,1446036521914674997,robocape,10.3048279284,9.9789442031,37.4885738193,0.0,10.0,0.0,0.0,0.0,10.0,0.0,0.0,0.0,10.0,-2.55756675286,-0.196807604557,0.486160056994,1.0,0.0,0.0,0.0,1.0,0.0,0.0,0.0,1.0,0.117355957031,-0.102985839844,9.08430908203,0.1,0.0,0.0,0.0,0.1,0.0,0.0,0.0,0.1
1446036521952716388,332,1446036521949596881,robocape,5.76342527429,9.73722692803,37.8992470682,0.0,10.0,0.0,0.0,0.0,10.0,0.0,0.0,0.0,10.0,-2.41348973788,-0.0813595713019,0.269245586207,1.0,0.0,0.0,0.0,1.0,0.0,0.0,0.0,1.0,-1.85614013672,-0.6514453125,8.26281738281,0.1,0.0,0.0,0.0,0.1,0.0,0.0,0.0,0.1
1446036521986639555,333,1446036521983500003,robocape,1.63040552471,9.3964504617,37.9168075125,0.0,10.0,0.0,0.0,0.0,10.0,0.0,0.0,0.0,10.0,-2.16874523371,-0.162852300658,0.0708400849961,1.0,0.0,0.0,0.0,1.0,0.0,0.0,0.0,1.0,-6.16118774414,-2.1459375,9.5417578125,0.1,0.0,0.0,0.0,0.1,0.0,0.0,0.0,0.1
1446036522019428763,334,1446036522016343116,robocape,-1.43565514073,9.24670695384,37.1683608993,0.0,10.0,0.0,0.0,0.0,10.0,0.0,0.0,0.0,10.0,-1.54569869668,-0.0716390333231,-0.357529376343,1.0,0.0,0.0,0.0,1.0,0.0,0.0,0.0,1.0,-5.67739379883,-3.37937255859,8.67236572266,0.1,0.0,0.0,0.0,0.1,0.0,0.0,0.0,0.1
1446036522052256513,335,1446036522049161911,robocape,-3.28955061734,9.61480897178,35.9336606665,0.0,10.0,0.0,0.0,0.0,10.0,0.0,0.0,0.0,10.0,-0.866992092875,0.222107634913,-0.616255476244,1.0,0.0,0.0,0.0,1.0,0.0,0.0,0.0,1.0,-4.55532714844,-3.31470703125,11.3559851074,0.1,0.0,0.0,0.0,0.1,0.0,0.0,0.0,0.1
1446036522085666805,336,1446036522082375049,robocape,-4.55458499676,9.8699504834,34.885464825,0.0,10.0,0.0,0.0,0.0,10.0,0.0,0.0,0.0,10.0,-0.573911214912,0.175502315836,-0.509196400423,1.0,0.0,0.0,0.0,1.0,0.0,0.0,0.0,1.0,-1.85254760742,-2.06091430664,10.0926123047,0.1,0.0,0.0,0.0,0.1,0.0,0.0,0.0,0.1
1446036522118597138,337,1446036522115499973,robocape,-4.89518919945,10.4695471841,33.5145428171,0.0,10.0,0.0,0.0,0.0,10.0,0.0,0.0,0.0,10.0,-0.052064799311,0.371644130121,-0.676176600771,1.0,0.0,0.0,0.0,1.0,0.0,0.0,0.0,1.0,0.756826171875,-2.40459960937,11.3416149902,0.1,0.0,0.0,0.0,0.1,0.0,0.0,0.0,0.1
1446036522151416638,338,1446036522148400068,robocape,-4.19620600516,10.7801913386,31.9553679162,0.0,10.0,0.0,0.0,0.0,10.0,0.0,0.0,0.0,10.0,0.521047467274,0.219710789932,-0.808402548894,1.0,0.0,0.0,0.0,1.0,0.0,0.0,0.0,1.0,2.8776159668,-2.78660522461,11.5020812988,0.1,0.0,0.0,0.0,0.1,0.0,0.0,0.0,0.1
1446036522184470305,339,1446036522181469917,robocape,-2.17440550511,10.9723265767,30.3390621562,0.0,10.0,0.0,0.0,0.0,10.0,0.0,0.0,0.0,10.0,1.223988837,0.13568805754,-0.859535241823,1.0,0.0,0.0,0.0,1.0,0.0,0.0,0.0,1.0,1.23942260742,-1.44419677734,10.3955822754,0.1,0.0,0.0,0.0,0.1,0.0,0.0,0.0,0.1
1446036522218001596,340,1446036522215002059,robocape,0.433530366796,11.1865154178,29.1359025869,0.0,10.0,0.0,0.0,0.0,10.0,0.0,0.0,0.0,10.0,1.48804125908,0.116246981582,-0.631701810567,1.0,0.0,0.0,0.0,1.0,0.0,0.0,0.0,1.0,-1.75674682617,-1.06099365234,9.31063842773,0.1,0.0,0.0,0.0,0.1,0.0,0.0,0.0,0.1
1446036522250977263,341,1446036522247970104,robocape,3.8738637067,11.0782471945,27.8893541728,0.0,10.0,0.0,0.0,0.0,10.0,0.0,0.0,0.0,10.0,1.92746283894,-0.0861532612641,-0.651941834851,1.0,0.0,0.0,0.0,1.0,0.0,0.0,0.0,1.0,-7.25092163086,-1.8812878418,10.8793762207,0.1,0.0,0.0,0.0,0.1,0.0,0.0,0.0,0.1
1446036522284582888,342,1446036522281349897,robocape,7.64576068203,10.5159857654,26.9296073876,0.0,10.0,0.0,0.0,0.0,10.0,0.0,0.0,0.0,10.0,2.0710072217,-0.340218829258,-0.456066336676,1.0,0.0,0.0,0.0,1.0,0.0,0.0,0.0,1.0,-6.27974121094,1.44778930664,8.00415527344,0.1,0.0,0.0,0.0,0.1,0.0,0.0,0.0,0.1
1446036522317727721,343,1446036522314599037,robocape,10.6508850897,11.9812630751,26.9306159823,0.0,10.0,0.0,0.0,0.0,10.0,0.0,0.0,0.0,10.0,1.59323612214,0.790958843754,-0.0580569117637,1.0,0.0,0.0,0.0,1.0,0.0,0.0,0.0,1.0,-4.99840576172,1.57951538086,13.7270544434,0.1,0.0,0.0,0.0,0.1,0.0,0.0,0.0,0.1
1446036522351121055,344,1446036522348046064,robocape,12.9417837544,12.0825307189,27.1228285076,0.0,10.0,0.0,0.0,0.0,10.0,0.0,0.0,0.0,10.0,1.20188459995,0.105993811385,0.146607018009,1.0,0.0,0.0,0.0,1.0,0.0,0.0,0.0,1.0,-0.623902587891,2.00463134766,4.09189086914,0.1,0.0,0.0,0.0,0.1,0.0,0.0,0.0,0.1
1446036522384629221,345,1446036522381376981,robocape,13.8944794923,11.8697174034,28.1019427065,0.0,10.0,0.0,0.0,0.0,10.0,0.0,0.0,0.0,10.0,0.421977874723,0.04966795433,0.588025968689,1.0,0.0,0.0,0.0,1.0,0.0,0.0,0.0,1.0,0.106578369141,2.72792724609,14.1198376465,0.1,0.0,0.0,0.0,0.1,0.0,0.0,0.0,0.1
1446036522417913180,346,1446036522414688110,robocape,13.6726829316,11.5051337211,29.2753382531,0.0,10.0,0.0,0.0,0.0,10.0,0.0,0.0,0.0,10.0,-0.214384467751,-0.00386158358061,0.7006776828,1.0,0.0,0.0,0.0,1.0,0.0,0.0,0.0,1.0,0.452658691406,1.48371459961,6.53241577148,0.1,0.0,0.0,0.0,0.1,0.0,0.0,0.0,0.1
1446036522451463013,347,1446036522448390007,robocape,12.558925347,11.0253808835,29.8782645943,0.0,10.0,0.0,0.0,0.0,10.0,0.0,0.0,0.0,10.0,-0.630370230022,-0.151800182135,0.403202589038,1.0,0.0,0.0,0.0,1.0,0.0,0.0,0.0,1.0,1.04063598633,-0.821491699219,8.81965942383,0.1,0.0,0.0,0.0,0.1,0.0,0.0,0.0,0.1
1446036522488899388,348,1446036522485766887,robocape,12.2424790178,11.1673190533,29.6492198506,0.0,10.0,0.0,0.0,0.0,10.0,0.0,0.0,0.0,10.0,-0.131959632013,0.0637827081074,-0.0978711700604,1.0,0.0,0.0,0.0,1.0,0.0,0.0,0.0,1.0,-0.0634680175781,-2.25970092773,12.8804150391,0.1,0.0,0.0,0.0,0.1,0.0,0.0,0.0,0.1
1446036522520617138,349,1446036522517544984,robocape,13.1124119855,11.1773427606,28.8605307906,0.0,10.0,0.0,0.0,0.0,10.0,0.0,0.0,0.0,10.0,0.544616442921,-0.0712395591596,-0.371510972066,1.0,0.0,0.0,0.0,1.0,0.0,0.0,0.0,1.0,0.825084228516,-2.61057128906,7.07009765625,0.1,0.0,0.0,0.0,0.1,0.0,0.0,0.0,0.1
1446036522554958930,350,1446036522551595926,robocape,15.3358818037,11.419047078,27.901165302,0.0,10.0,0.0,0.0,0.0,10.0,0.0,0.0,0.0,10.0,1.27991521989,0.0213052887206,-0.472045303217,1.0,0.0,0.0,0.0,1.0,0.0,0.0,0.0,1.0,0.324525146484,-1.28612548828,12.2074145508,0.1,0.0,0.0,0.0,0.1,0.0,0.0,0.0,0.1
1446036522586543222,351,1446036522583470106,robocape,17.8860704337,11.4309878348,27.8357014316,0.0,10.0,0.0,0.0,0.0,10.0,0.0,0.0,0.0,10.0,1.38258007991,0.0370179391521,0.0374174133156,1.0,0.0,0.0,0.0,1.0,0.0,0.0,0.0,1.0,1.82739990234,1.84775756836,8.00774780273,0.1,0.0,0.0,0.0,0.1,0.0,0.0,0.0,0.1
1446036522622218638,352,1446036522618864059,robocape,18.9344092144,11.6101374363,29.0316269273,0.0,10.0,0.0,0.0,0.0,10.0,0.0,0.0,0.0,10.0,0.478969522051,0.339553038985,0.647813935162,1.0,0.0,0.0,0.0,1.0,0.0,0.0,0.0,1.0,1.77590698242,3.19375854492,11.0087072754,0.1,0.0,0.0,0.0,0.1,0.0,0.0,0.0,0.1
1446036522655129638,353,1446036522652061939,robocape,18.7236076079,11.7988572196,30.4045920928,0.0,10.0,0.0,0.0,0.0,10.0,0.0,0.0,0.0,10.0,-0.209590777789,0.372176762339,0.720917707084,1.0,0.0,0.0,0.0,1.0,0.0,0.0,0.0,1.0,4.93134521484,1.25139770508,11.4505883789,0.1,0.0,0.0,0.0,0.1,0.0,0.0,0.0,0.1
1446036522684060347,354,1446036522681103944,robocape,18.2761894405,12.0180869956,31.0813754128,0.0,10.0,0.0,0.0,0.0,10.0,0.0,0.0,0.0,10.0,-0.274571908387,0.256728729084,0.35712990218,1.0,0.0,0.0,0.0,1.0,0.0,0.0,0.0,1.0,-0.420325927734,-0.130528564453,9.23040527344,0.1,0.0,0.0,0.0,0.1,0.0,0.0,0.0,0.1
1446036522718256305,355,1446036522715173006,robocape,17.6635252216,12.0751340959,31.6441516515,0.0,10.0,0.0,0.0,0.0,10.0,0.0,0.0,0.0,10.0,-0.354333583035,0.151267549917,0.324239862717,1.0,0.0,0.0,0.0,1.0,0.0,0.0,0.0,1.0,-0.583187255859,0.936452636719,12.1140087891,0.1,0.0,0.0,0.0,0.1,0.0,0.0,0.0,0.1
1446036522750941930,356,1446036522747899055,robocape,16.5250102403,11.5771518877,32.4134144062,0.0,10.0,0.0,0.0,0.0,10.0,0.0,0.0,0.0,10.0,-0.655403944269,-0.103197492241,0.509595874587,1.0,0.0,0.0,0.0,1.0,0.0,0.0,0.0,1.0,1.40827148438,1.36995117188,8.20892944336,0.1,0.0,0.0,0.0,0.1,0.0,0.0,0.0,0.1
1446036522785268430,357,1446036522782135009,robocape,14.3782889349,11.4947061761,33.6581283716,0.0,10.0,0.0,0.0,0.0,10.0,0.0,0.0,0.0,10.0,-1.23224463638,0.162852300658,0.694552412293,1.0,0.0,0.0,0.0,1.0,0.0,0.0,0.0,1.0,2.35669921875,1.96511352539,11.9679125977,0.1,0.0,0.0,0.0,0.1,0.0,0.0,0.0,0.1
1446036522822649638,358,1446036522814490079,robocape,11.5374985256,10.4069167253,34.3798180277,0.0,10.0,0.0,0.0,0.0,10.0,0.0,0.0,0.0,10.0,-1.55129133497,-0.45646581084,0.524909050855,1.0,0.0,0.0,0.0,1.0,0.0,0.0,0.0,1.0,-4.76369384766,-0.413140869141,5.52531005859,0.1,0.0,0.0,0.0,0.1,0.0,0.0,0.0,0.1
1446036522852326222,359,1446036522848983049,robocape,9.37786422263,10.541576844,34.3347706645,0.0,10.0,0.0,0.0,0.0,10.0,0.0,0.0,0.0,10.0,-1.12092450281,0.0781637779938,-0.00399474163512,1.0,0.0,0.0,0.0,1.0,0.0,0.0,0.0,1.0,0.655037841797,-2.15791259766,12.6672583008,0.1,0.0,0.0,0.0,0.1,0.0,0.0,0.0,0.1
1446036522884756388,360,1446036522881455898,robocape,8.37903551497,11.1674325408,33.6563480001,0.0,10.0,0.0,0.0,0.0,10.0,0.0,0.0,0.0,10.0,-0.452604227259,0.279232440295,-0.372842552611,1.0,0.0,0.0,0.0,1.0,0.0,0.0,0.0,1.0,-0.359252929688,-2.60099121094,7.9358972168,0.1,0.0,0.0,0.0,0.1,0.0,0.0,0.0,0.1
1446036522918112638,361,1446036522914638996,robocape,8.1431711414,11.317045937,33.216283828,0.0,10.0,0.0,0.0,0.0,10.0,0.0,0.0,0.0,10.0,-0.0736364041407,0.0591221761998,-0.200935504246,1.0,0.0,0.0,0.0,1.0,0.0,0.0,0.0,1.0,-1.57352783203,-0.446671142578,11.9667150879,0.1,0.0,0.0,0.0,0.1,0.0,0.0,0.0,0.1
1446036522951215305,362,1446036522947827100,robocape,7.58291191253,11.1648633639,33.278090773,0.0,10.0,0.0,0.0,0.0,10.0,0.0,0.0,0.0,10.0,-0.293347194072,-0.0540621701286,0.0926780059348,1.0,0.0,0.0,0.0,1.0,0.0,0.0,0.0,1.0,4.30504760742,1.56394775391,9.4998449707,0.1,0.0,0.0,0.0,0.1,0.0,0.0,0.0,0.1
1446036522986321888,363,1446036522983187913,robocape,6.14612437698,11.15285967,34.0508754325,0.0,10.0,0.0,0.0,0.0,10.0,0.0,0.0,0.0,10.0,-0.824381515434,0.0732369299772,0.475906886797,1.0,0.0,0.0,0.0,1.0,0.0,0.0,0.0,1.0,2.4908203125,1.51844238281,8.7789440918,0.1,0.0,0.0,0.0,0.1,0.0,0.0,0.0,0.1
1446036523021026972,364,1446036523017700910,robocape,3.33265527679,11.3756645419,34.8176217227,0.0,10.0,0.0,0.0,0.0,10.0,0.0,0.0,0.0,10.0,-1.55248975746,0.181494428289,0.468982667963,1.0,0.0,0.0,0.0,1.0,0.0,0.0,0.0,1.0,1.93517578125,1.21068237305,12.2074145508,0.1,0.0,0.0,0.0,0.1,0.0,0.0,0.0,0.1
1446036523053358597,365,1446036523050323009,robocape,-0.199771135872,11.3880008056,35.3777274515,0.0,10.0,0.0,0.0,0.0,10.0,0.0,0.0,0.0,10.0,-1.91774230097,0.0452737385313,0.376970452301,1.0,0.0,0.0,0.0,1.0,0.0,0.0,0.0,1.0,1.6825012207,-0.538879394531,8.38376586914,0.1,0.0,0.0,0.0,0.1,0.0,0.0,0.0,0.1
1446036523086313388,366,1446036523083256959,robocape,-4.01435697094,11.5294974346,35.5029444223,0.0,10.0,0.0,0.0,0.0,10.0,0.0,0.0,0.0,10.0,-2.03052717313,0.100800647259,0.159789665405,1.0,0.0,0.0,0.0,1.0,0.0,0.0,0.0,1.0,0.910107421875,-2.04893920898,9.76090209961,0.1,0.0,0.0,0.0,0.1,0.0,0.0,0.0,0.1
1446036523118061347,367,1446036523114744901,robocape,-6.99796900498,10.9926761162,34.79516209,0.0,10.0,0.0,0.0,0.0,10.0,0.0,0.0,0.0,10.0,-1.50402022562,-0.232094489,-0.341150935639,1.0,0.0,0.0,0.0,1.0,0.0,0.0,0.0,1.0,-3.35661987305,-4.05357055664,6.79706542969,0.1,0.0,0.0,0.0,0.1,0.0,0.0,0.0,0.1
1446036523150901097,368,1446036523147878885,robocape,-8.79202177883,11.2247369913,33.2392035528,0.0,10.0,0.0,0.0,0.0,10.0,0.0,0.0,0.0,10.0,-0.7864314699,0.233292911491,-0.763528284526,1.0,0.0,0.0,0.0,1.0,0.0,0.0,0.0,1.0,-3.66797241211,-0.434696044922,15.2490893555,0.1,0.0,0.0,0.0,0.1,0.0,0.0,0.0,0.1
1446036523185732930,369,1446036523182591915,robocape,-10.5640442932,12.0595710993,31.0008091683,0.0,10.0,0.0,0.0,0.0,10.0,0.0,0.0,0.0,10.0,-0.689891880385,0.62291337897,-1.06180232661,1.0,0.0,0.0,0.0,1.0,0.0,0.0,0.0,1.0,-6.11208984375,-8.06043823242,6.13723754883,0.1,0.0,0.0,0.0,0.1,0.0,0.0,0.0,0.1
1446036523219785972,370,1446036523216550111,robocape,-9.57831110183,12.0895989026,30.2150186419,0.0,10.0,0.0,0.0,0.0,10.0,0.0,0.0,0.0,10.0,0.601608090249,0.0862864193186,-0.391884154405,1.0,0.0,0.0,0.0,1.0,0.0,0.0,0.0,1.0,-5.28341308594,-1.13404174805,14.1557629395,0.1,0.0,0.0,0.0,0.1,0.0,0.0,0.0,0.1
1446036523252131180,371,1446036523249089002,robocape,-9.03533249228,12.3461930104,29.8371224784,0.0,10.0,0.0,0.0,0.0,10.0,0.0,0.0,0.0,10.0,0.314519324738,0.17323862891,-0.139017008902,1.0,0.0,0.0,0.0,1.0,0.0,0.0,0.0,1.0,-3.65360229492,-0.180823974609,7.53592895508,0.1,0.0,0.0,0.0,0.1,0.0,0.0,0.0,0.1
1446036523285358472,372,1446036523282191991,robocape,-9.31889479296,12.5917014021,29.5621593867,0.0,10.0,0.0,0.0,0.0,10.0,0.0,0.0,0.0,10.0,-0.136087531703,0.164583355367,-0.0717721913776,1.0,0.0,0.0,0.0,1.0,0.0,0.0,0.0,1.0,-2.14354248047,-0.508941650391,14.0372094727,0.1,0.0,0.0,0.0,0.1,0.0,0.0,0.0,0.1
1446036523318309930,373,1446036523315155029,robocape,-9.68674426334,12.3256760399,28.9458607243,0.0,10.0,0.0,0.0,0.0,10.0,0.0,0.0,0.0,10.0,-0.133291212558,-0.0773648296668,-0.309326160613,1.0,0.0,0.0,0.0,1.0,0.0,0.0,0.0,1.0,1.16038696289,-3.21291870117,8.09995605469,0.1,0.0,0.0,0.0,0.1,0.0,0.0,0.0,0.1
1446036523351392805,374,1446036523348310947,robocape,-8.58087171849,12.2887909306,27.1711995693,0.0,10.0,0.0,0.0,0.0,10.0,0.0,0.0,0.0,10.0,0.791491475972,0.112385398001,-0.935834807054,1.0,0.0,0.0,0.0,1.0,0.0,0.0,0.0,1.0,-0.132923583984,-4.64993041992,11.0099047852,0.1,0.0,0.0,0.0,0.1,0.0,0.0,0.0,0.1
1446036523384978430,375,1446036523381702899,robocape,-5.61862108348,12.6910153213,24.93392003,0.0,10.0,0.0,0.0,0.0,10.0,0.0,0.0,0.0,10.0,1.82373271449,0.325305127153,-1.1707256152,1.0,0.0,0.0,0.0,1.0,0.0,0.0,0.0,1.0,-0.123343505859,-3.79131591797,12.875625,0.1,0.0,0.0,0.0,0.1,0.0,0.0,0.0,0.1
1446036523419851347,376,1446036523416579008,robocape,-1.42143359614,13.1097705261,23.4586109219,0.0,10.0,0.0,0.0,0.0,10.0,0.0,0.0,0.0,10.0,2.37700443095,0.247940297486,-0.774180928886,1.0,0.0,0.0,0.0,1.0,0.0,0.0,0.0,1.0,-2.7626550293,-0.148491210938,8.5418371582,0.1,0.0,0.0,0.0,0.1,0.0,0.0,0.0,0.1
1446036523452840889,377,1446036523449557065,robocape,1.97125372864,13.5264974309,23.4011227856,0.0,10.0,0.0,0.0,0.0,10.0,0.0,0.0,0.0,10.0,1.78325266592,0.229031853747,-0.0107858024148,1.0,0.0,0.0,0.0,1.0,0.0,0.0,0.0,1.0,-0.944835205078,2.30041625977,10.0219592285,0.1,0.0,0.0,0.0,0.1,0.0,0.0,0.0,0.1
1446036523485443180,378,1446036523481978893,robocape,3.93198958903,13.2968186546,23.8679564653,0.0,10.0,0.0,0.0,0.0,10.0,0.0,0.0,0.0,10.0,0.971521165661,-0.0874848418091,0.27909928224,1.0,0.0,0.0,0.0,1.0,0.0,0.0,0.0,1.0,-0.445473632813,2.23934326172,11.3691577148,0.1,0.0,0.0,0.0,0.1,0.0,0.0,0.0,0.1
1446036523521877514,379,1446036523516980886,robocape,4.43339061815,13.0009785115,24.5316220598,0.0,10.0,0.0,0.0,0.0,10.0,0.0,0.0,0.0,10.0,0.186021802142,-0.105594337222,0.391218364133,1.0,0.0,0.0,0.0,1.0,0.0,0.0,0.0,1.0,0.904119873047,1.74237670898,8.18018920898,0.1,0.0,0.0,0.0,0.1,0.0,0.0,0.0,0.1
1446036523554618889,380,1446036523551462888,robocape,3.92153694888,12.7276766044,25.1808388618,0.0,10.0,0.0,0.0,0.0,10.0,0.0,0.0,0.0,10.0,-0.342083042021,-0.0949416928613,0.383894671135,1.0,0.0,0.0,0.0,1.0,0.0,0.0,0.0,1.0,4.29307250977,0.166453857422,10.1177600098,0.1,0.0,0.0,0.0,0.1,0.0,0.0,0.0,0.1
1446036523588492514,381,1446036523585138082,robocape,3.34100931299,12.5707092033,24.8239465953,0.0,10.0,0.0,0.0,0.0,10.0,0.0,0.0,0.0,10.0,-0.262587683482,-0.082691151847,-0.156727030151,1.0,0.0,0.0,0.0,1.0,0.0,0.0,0.0,1.0,5.07025634766,-1.80823974609,11.266171875,0.1,0.0,0.0,0.0,0.1,0.0,0.0,0.0,0.1
1446036523620789472,382,1446036523617532968,robocape,3.35608947963,12.8601759458,24.4546409786,0.0,10.0,0.0,0.0,0.0,10.0,0.0,0.0,0.0,10.0,0.0511326929295,0.154197027116,-0.172173364474,1.0,0.0,0.0,0.0,1.0,0.0,0.0,0.0,1.0,4.65831298828,-0.348475341797,8.82684448242,0.1,0.0,0.0,0.0,0.1,0.0,0.0,0.0,0.1
1446036523654128014,383,1446036523650990962,robocape,3.0576954403,12.9188705845,24.6530332543,0.0,10.0,0.0,0.0,0.0,10.0,0.0,0.0,0.0,10.0,-0.179097583308,0.0563258570552,0.135288583376,1.0,0.0,0.0,0.0,1.0,0.0,0.0,0.0,1.0,0.36404296875,0.577199707031,11.5487841797,0.1,0.0,0.0,0.0,0.1,0.0,0.0,0.0,0.1
1446036523687662389,384,1446036523684357881,robocape,2.44642448558,13.0335679024,24.8247818691,0.0,10.0,0.0,0.0,0.0,10.0,0.0,0.0,0.0,10.0,-0.34088461953,0.0844222065555,0.121173829599,1.0,0.0,0.0,0.0,1.0,0.0,0.0,0.0,1.0,2.36508178711,-1.16637451172,9.92376342773,0.1,0.0,0.0,0.0,0.1,0.0,0.0,0.0,0.1
1446036523717753055,385,1446036523714474916,robocape,2.25784251653,13.6847984414,24.2794855829,0.0,10.0,0.0,0.0,0.0,10.0,0.0,0.0,0.0,10.0,-0.033289513626,0.344213570893,-0.266049792899,1.0,0.0,0.0,0.0,1.0,0.0,0.0,0.0,1.0,-5.29059814453,-1.64657592773,10.9787695313,0.1,0.0,0.0,0.0,0.1,0.0,0.0,0.0,0.1
1446036523750766555,386,1446036523747807025,robocape,2.52592554902,14.2840272431,23.6901872693,0.0,10.0,0.0,0.0,0.0,10.0,0.0,0.0,0.0,10.0,0.21465078386,0.315584589174,-0.288819820219,1.0,0.0,0.0,0.0,1.0,0.0,0.0,0.0,1.0,-4.58047485352,-0.777183837891,10.6698120117,0.1,0.0,0.0,0.0,0.1,0.0,0.0,0.0,0.1
1446036523784918555,387,1446036523781333923,robocape,2.57579734337,14.9669143937,23.9261270542,0.0,10.0,0.0,0.0,0.0,10.0,0.0,0.0,0.0,10.0,-0.00599211245268,0.391218364133,0.14753912439,1.0,0.0,0.0,0.0,1.0,0.0,0.0,0.0,1.0,2.15791259766,1.23942260742,10.7739953613,0.1,0.0,0.0,0.0,0.1,0.0,0.0,0.0,0.1
1446036523821926514,388,1446036523814835071,robocape,1.73708406488,15.3730471962,24.7292065457,0.0,10.0,0.0,0.0,0.0,10.0,0.0,0.0,0.0,10.0,-0.553005400355,0.264451896245,0.454068965859,1.0,0.0,0.0,0.0,1.0,0.0,0.0,0.0,1.0,2.59141113281,2.23096069336,8.42927124023,0.1,0.0,0.0,0.0,0.1,0.0,0.0,0.0,0.1
1446036523851789430,389,1446036523848715066,robocape,-0.365238283934,15.6610140943,25.3992081495,0.0,10.0,0.0,0.0,0.0,10.0,0.0,0.0,0.0,10.0,-1.20374881272,0.191614440431,0.394414157441,1.0,0.0,0.0,0.0,1.0,0.0,0.0,0.0,1.0,2.27167602539,0.09580078125,10.0985998535,0.1,0.0,0.0,0.0,0.1,0.0,0.0,0.0,0.1
1446036523884414930,390,1446036523881198883,robocape,-2.27007845316,15.4656638236,25.0383294389,0.0,10.0,0.0,0.0,0.0,10.0,0.0,0.0,0.0,10.0,-0.953278512194,-0.0804274649204,-0.155262291552,1.0,0.0,0.0,0.0,1.0,0.0,0.0,0.0,1.0,-1.97708862305,-3.30153442383,7.27367431641,0.1,0.0,0.0,0.0,0.1,0.0,0.0,0.0,0.1
1446036523917910555,391,1446036523914875984,robocape,-2.45957093597,15.4850097413,23.4512506345,0.0,10.0,0.0,0.0,0.0,10.0,0.0,0.0,0.0,10.0,0.123836990689,0.0395479421877,-0.805606229749,1.0,0.0,0.0,0.0,1.0,0.0,0.0,0.0,1.0,-3.50630859375,-4.62358520508,12.3463256836,0.1,0.0,0.0,0.0,0.1,0.0,0.0,0.0,0.1
1446036523950915847,392,1446036523947838068,robocape,-0.674294812543,16.1185835958,21.3863181601,0.0,10.0,0.0,0.0,0.0,10.0,0.0,0.0,0.0,10.0,1.23184516222,0.348607786691,-1.04742125673,1.0,0.0,0.0,0.0,1.0,0.0,0.0,0.0,1.0,-7.15631835938,-4.03201538086,8.64482299805,0.1,0.0,0.0,0.0,0.1,0.0,0.0,0.0,0.1
1446036523984453222,393,1446036523981256961,robocape,2.93177927822,16.6445735715,19.7573110017,0.0,10.0,0.0,0.0,0.0,10.0,0.0,0.0,0.0,10.0,2.12946360763,0.252201355231,-0.832903630922,1.0,0.0,0.0,0.0,1.0,0.0,0.0,0.0,1.0,-7.41258544922,-2.43693237305,13.4827624512,0.1,0.0,0.0,0.0,0.1,0.0,0.0,0.0,0.1
