%time,field.header.seq,field.header.stamp,field.header.frame_id,field.orientation.x,field.orientation.y,field.orientation.z,field.orientation.w,field.orientation_covariance0,field.orientation_covariance1,field.orientation_covariance2,field.orientation_covariance3,field.orientation_covariance4,field.orientation_covariance5,field.orientation_covariance6,field.orientation_covariance7,field.orientation_covariance8,field.angular_velocity.x,field.angular_velocity.y,field.angular_velocity.z,field.angular_velocity_covariance0,field.angular_velocity_covariance1,field.angular_velocity_covariance2,field.angular_velocity_covariance3,field.angular_velocity_covariance4,field.angular_velocity_covariance5,field.angular_velocity_covariance6,field.angular_velocity_covariance7,field.angular_velocity_covariance8,field.linear_acceleration.x,field.linear_acceleration.y,field.linear_acceleration.z,field.linear_acceleration_covariance0,field.linear_acceleration_covariance1,field.linear_acceleration_covariance2,field.linear_acceleration_covariance3,field.linear_acceleration_covariance4,field.linear_acceleration_covariance5,field.linear_acceleration_covariance6,field.linear_acceleration_covariance7,field.linear_acceleration_covariance8
1446041345821254496,1,1446041345814685106,robocape,-6.66578095844,1.90515533543,-31.9210673025,0.0,10.0,0.0,0.0,0.0,10.0,0.0,0.0,0.0,10.0,-0.248872403868,0.332096187933,-1.91414703349,1.0,0.0,0.0,0.0,1.0,0.0,0.0,0.0,1.0,-1.40108642578,-1.88009033203,10.019564209,0.1,0.0,0.0,0.0,0.1,0.0,0.0,0.0,0.1
1446041345843389204,2,1446041345840337038,robocape,-7.13377320738,2.06590360688,-35.3357390897,0.0,10.0,0.0,0.0,0.0,10.0,0.0,0.0,0.0,10.0,-0.203332349228,0.311989321703,-1.87699593629,1.0,0.0,0.0,0.0,1.0,0.0,0.0,0.0,1.0,-1.49688720703,-1.44898681641,9.87706054688,0.1,0.0,0.0,0.0,0.1,0.0,0.0,0.0,0.1
1446041345874602204,3,1446041345871646881,robocape,-7.63213187795,2.27663624836,-38.5749769424,0.0,10.0,0.0,0.0,0.0,10.0,0.0,0.0,0.0,10.0,-0.21877868355,0.343281464511,-1.79457110055,1.0,0.0,0.0,0.0,1.0,0.0,0.0,0.0,1.0,-1.53520751953,-1.29450805664,9.8902331543,0.1,0.0,0.0,0.0,0.1,0.0,0.0,0.0,0.1
1446041345913849788,4,1446041345905283927,robocape,-8.17095478577,2.59713772747,-41.7269079472,0.0,10.0,0.0,0.0,0.0,10.0,0.0,0.0,0.0,10.0,-0.236488704799,0.412257336744,-1.75622158085,1.0,0.0,0.0,0.0,1.0,0.0,0.0,0.0,1.0,-1.81901733398,-1.28013793945,9.85909790039,0.1,0.0,0.0,0.0,0.1,0.0,0.0,0.0,0.1
1446041345941392371,5,1446041345938443899,robocape,-8.75003413774,2.95703280003,-44.9007135053,0.0,10.0,0.0,0.0,0.0,10.0,0.0,0.0,0.0,10.0,-0.250869774685,0.454867914186,-1.78684793339,1.0,0.0,0.0,0.0,1.0,0.0,0.0,0.0,1.0,-2.28125610352,-1.36995117188,9.89143066406,0.1,0.0,0.0,0.0,0.1,0.0,0.0,0.0,0.1
1446041345974839079,6,1446041345971721887,robocape,-9.30473547715,3.26699671526,-48.1554659309,0.0,10.0,0.0,0.0,0.0,10.0,0.0,0.0,0.0,10.0,-0.230496592346,0.457797391385,-1.86248170835,1.0,0.0,0.0,0.0,1.0,0.0,0.0,0.0,1.0,-2.96263916016,-1.25020019531,10.0614770508,0.1,0.0,0.0,0.0,0.1,0.0,0.0,0.0,0.1
1446041346008018454,7,1446041346004961013,robocape,-9.89793715033,3.29876419003,-51.5315666845,0.0,10.0,0.0,0.0,0.0,10.0,0.0,0.0,0.0,10.0,-0.247940297486,0.348341470582,-1.99124554705,1.0,0.0,0.0,0.0,1.0,0.0,0.0,0.0,1.0,-3.24285644531,-1.0382409668,10.177635498,0.1,0.0,0.0,0.0,0.1,0.0,0.0,0.0,0.1
1446041346041120163,8,1446041346038153886,robocape,-10.5078501857,3.19590888999,-54.9777024067,0.0,10.0,0.0,0.0,0.0,10.0,0.0,0.0,0.0,10.0,-0.262188209318,0.310524583103,-2.08432302715,1.0,0.0,0.0,0.0,1.0,0.0,0.0,0.0,1.0,-3.01772460938,-0.907712402344,10.2949914551,0.1,0.0,0.0,0.0,0.1,0.0,0.0,0.0,0.1
1446041346074672746,9,1446041346071783065,robocape,-11.1774996583,3.06825469175,-58.4434710859,0.0,10.0,0.0,0.0,0.0,10.0,0.0,0.0,0.0,10.0,-0.303467206215,0.326503549644,-2.14171414864,1.0,0.0,0.0,0.0,1.0,0.0,0.0,0.0,1.0,-2.96144165039,-0.866997070313,10.6566394043,0.1,0.0,0.0,0.0,0.1,0.0,0.0,0.0,0.1
1446041346109321330,10,1446041346106172084,robocape,-11.808175141,2.95015877326,-61.8924866252,0.0,10.0,0.0,0.0,0.0,10.0,0.0,0.0,0.0,10.0,-0.293480352127,0.356730428016,-2.17260681729,1.0,0.0,0.0,0.0,1.0,0.0,0.0,0.0,1.0,-3.47397583008,-1.22864501953,10.7596252441,0.1,0.0,0.0,0.0,0.1,0.0,0.0,0.0,0.1
1446041346141174246,11,1446041346138268947,robocape,-12.3352678141,2.65378514132,-65.3084648354,0.0,10.0,0.0,0.0,0.0,10.0,0.0,0.0,0.0,10.0,-0.251935039121,0.285624026911,-2.21601634305,1.0,0.0,0.0,0.0,1.0,0.0,0.0,0.0,1.0,-3.90268432617,-0.929267578125,10.5320983887,0.1,0.0,0.0,0.0,0.1,0.0,0.0,0.0,0.1
1446041346174789413,12,1446041346171497106,robocape,-12.7774764034,2.04859227565,-68.6252920693,0.0,10.0,0.0,0.0,0.0,10.0,0.0,0.0,0.0,10.0,-0.227833431256,0.133957002831,-2.23359320625,1.0,0.0,0.0,0.0,1.0,0.0,0.0,0.0,1.0,-3.36619995117,-0.920885009766,10.290201416,0.1,0.0,0.0,0.0,0.1,0.0,0.0,0.0,0.1
1446041346208321705,13,1446041346205259084,robocape,-13.000451583,1.35404624563,-71.9017432298,0.0,10.0,0.0,0.0,0.0,10.0,0.0,0.0,0.0,10.0,-0.13835121863,0.0962732734064,-2.26368692657,1.0,0.0,0.0,0.0,1.0,0.0,0.0,0.0,1.0,-2.40459960937,-1.20349731445,10.0890197754,0.1,0.0,0.0,0.0,0.1,0.0,0.0,0.0,0.1
1446041346241225288,14,1446041346238272905,robocape,-12.979592623,0.907288464489,-75.228343396,0.0,10.0,0.0,0.0,0.0,10.0,0.0,0.0,0.0,10.0,-0.0334226716805,0.236755020908,-2.31668383226,1.0,0.0,0.0,0.0,1.0,0.0,0.0,0.0,1.0,-1.44898681641,-1.34001342773,9.8447277832,0.1,0.0,0.0,0.0,0.1,0.0,0.0,0.0,0.1
1446041346274540580,15,1446041346271469116,robocape,-12.8604576993,1.00085737211,-78.5777153753,0.0,10.0,0.0,0.0,0.0,10.0,0.0,0.0,0.0,10.0,0.0099868540878,0.519050096456,-2.31215645841,1.0,0.0,0.0,0.0,1.0,0.0,0.0,0.0,1.0,-1.10530151367,-0.890947265625,9.61600341797,0.1,0.0,0.0,0.0,0.1,0.0,0.0,0.0,0.1
1446041346308108913,16,1446041346305085897,robocape,-12.9804460259,1.49500052626,-81.817413465,0.0,10.0,0.0,0.0,0.0,10.0,0.0,0.0,0.0,10.0,-0.105328021113,0.715058752686,-2.22813372601,1.0,0.0,0.0,0.0,1.0,0.0,0.0,0.0,1.0,-2.13276489258,-0.376018066406,9.24597290039,0.1,0.0,0.0,0.0,0.1,0.0,0.0,0.0,0.1
1446041346341401330,17,1446041346338406085,robocape,-13.4647858848,1.96465170329,-84.9248751728,0.0,10.0,0.0,0.0,0.0,10.0,0.0,0.0,0.0,10.0,-0.282561391657,0.701343473072,-2.18419156803,1.0,0.0,0.0,0.0,1.0,0.0,0.0,0.0,1.0,-2.69559448242,-0.652642822266,9.01126098633,0.1,0.0,0.0,0.0,0.1,0.0,0.0,0.0,0.1
1446041346374697413,18,1446041346371534109,robocape,-14.1456964822,2.27063846668,-87.9813456227,0.0,10.0,0.0,0.0,0.0,10.0,0.0,0.0,0.0,10.0,-0.3784351909,0.638626029401,-2.22400582633,1.0,0.0,0.0,0.0,1.0,0.0,0.0,0.0,1.0,-2.34711914063,-0.983155517578,8.98611328125,0.1,0.0,0.0,0.0,0.1,0.0,0.0,0.0,0.1
1446041346408434496,19,1446041346405294895,robocape,-14.9213081423,2.68769640643,-91.080313578,0.0,10.0,0.0,0.0,0.0,10.0,0.0,0.0,0.0,10.0,-0.42424156165,0.738095096115,-2.30443329125,1.0,0.0,0.0,0.0,1.0,0.0,0.0,0.0,1.0,-1.89326293945,-1.37234619141,9.01844604492,0.1,0.0,0.0,0.0,0.1,0.0,0.0,0.0,0.1
1446041346441312913,20,1446041346438304901,robocape,-15.6473884428,3.18736358441,-94.161207631,0.0,10.0,0.0,0.0,0.0,10.0,0.0,0.0,0.0,10.0,-0.387623096661,0.812530448583,-2.32294226082,1.0,0.0,0.0,0.0,1.0,0.0,0.0,0.0,1.0,-2.08007446289,-1.68729125977,9.11544433594,0.1,0.0,0.0,0.0,0.1,0.0,0.0,0.0,0.1
1446041346474581080,21,1446041346471643924,robocape,-16.2809720201,3.66388369502,-97.1592985479,0.0,10.0,0.0,0.0,0.0,10.0,0.0,0.0,0.0,10.0,-0.324373020772,0.815859399946,-2.28805485054,1.0,0.0,0.0,0.0,1.0,0.0,0.0,0.0,1.0,-1.86212768555,-1.85973266602,9.4232043457,0.1,0.0,0.0,0.0,0.1,0.0,0.0,0.0,0.1
1446041346507932330,22,1446041346504952907,robocape,-17.0058613985,4.28246547267,-100.023611137,0.0,10.0,0.0,0.0,0.0,10.0,0.0,0.0,0.0,10.0,-0.35446674109,0.885101588288,-2.15596206047,1.0,0.0,0.0,0.0,1.0,0.0,0.0,0.0,1.0,-1.60107055664,-1.66334106445,9.69623657227,0.1,0.0,0.0,0.0,0.1,0.0,0.0,0.0,0.1
1446041346541599705,23,1446041346538570880,robocape,-17.9975985423,5.01407512269,-102.778460846,0.0,10.0,0.0,0.0,0.0,10.0,0.0,0.0,0.0,10.0,-0.475507412634,0.947819031959,-2.047305088,1.0,0.0,0.0,0.0,1.0,0.0,0.0,0.0,1.0,-1.5328125,-2.69918701172,9.94052856445,0.1,0.0,0.0,0.0,0.1,0.0,0.0,0.0,0.1
1446041346580816621,24,1446041346577824115,robocape,-19.121185174,5.83032816553,-105.585346534,0.0,10.0,0.0,0.0,0.0,10.0,0.0,0.0,0.0,10.0,-0.526506947509,1.04915231144,-2.1301293979,1.0,0.0,0.0,0.0,1.0,0.0,0.0,0.0,1.0,-1.44419677734,-4.60322753906,10.075847168,0.1,0.0,0.0,0.0,0.1,0.0,0.0,0.0,0.1
1446041346608295871,25,1446041346605180978,robocape,-20.0380427002,6.64714529358,-108.458480231,0.0,10.0,0.0,0.0,0.0,10.0,0.0,0.0,0.0,10.0,-0.394946789659,1.11586449674,-2.24318058617,1.0,0.0,0.0,0.0,1.0,0.0,0.0,0.0,1.0,-2.05971679688,-4.33139282227,9.88065307617,0.1,0.0,0.0,0.0,0.1,0.0,0.0,0.0,0.1
1446041346641570371,26,1446041346638505935,robocape,-20.5775094141,7.22379122426,-111.223805028,0.0,10.0,0.0,0.0,0.0,10.0,0.0,0.0,0.0,10.0,-0.173371786964,0.994823825199,-2.18352577776,1.0,0.0,0.0,0.0,1.0,0.0,0.0,0.0,1.0,-2.81534545898,-3.24644897461,9.74174194336,0.1,0.0,0.0,0.0,0.1,0.0,0.0,0.0,0.1
1446041346674810163,27,1446041346671834945,robocape,-21.1562545663,7.46230241056,-113.745357728,0.0,10.0,0.0,0.0,0.0,10.0,0.0,0.0,0.0,10.0,-0.183225482997,0.764060916744,-1.96514656837,1.0,0.0,0.0,0.0,1.0,0.0,0.0,0.0,1.0,-2.90635620117,-1.5747253418,9.94891113281,0.1,0.0,0.0,0.0,0.1,0.0,0.0,0.0,0.1
1446041346707964788,28,1446041346704943895,robocape,-21.8416534684,7.49798474562,-116.08648146,0.0,10.0,0.0,0.0,0.0,10.0,0.0,0.0,0.0,10.0,-0.237553969235,0.615323369863,-1.77739371152,1.0,0.0,0.0,0.0,1.0,0.0,0.0,0.0,1.0,-1.83817749023,-1.88248535156,10.1584753418,0.1,0.0,0.0,0.0,0.1,0.0,0.0,0.0,0.1
1446041346741716622,29,1446041346738630056,robocape,-22.6563330886,7.52997362552,-118.315352392,0.0,10.0,0.0,0.0,0.0,10.0,0.0,0.0,0.0,10.0,-0.305198260923,0.582832804564,-1.60788350814,1.0,0.0,0.0,0.0,1.0,0.0,0.0,0.0,1.0,-1.31965576172,-1.74477172852,10.1476977539,0.1,0.0,0.0,0.0,0.1,0.0,0.0,0.0,0.1
1446041346774716580,30,1446041346771498918,robocape,-23.5091954261,7.68848274733,-120.490298268,0.0,10.0,0.0,0.0,0.0,10.0,0.0,0.0,0.0,10.0,-0.321443543573,0.629704439749,-1.45927911931,1.0,0.0,0.0,0.0,1.0,0.0,0.0,0.0,1.0,-1.29690307617,-1.86093017578,10.1249450684,0.1,0.0,0.0,0.0,0.1,0.0,0.0,0.0,0.1
1446041346808012205,31,1446041346804984092,robocape,-24.2885740746,7.98434723589,-122.663989226,0.0,10.0,0.0,0.0,0.0,10.0,0.0,0.0,0.0,10.0,-0.275104540605,0.70187610529,-1.37858533828,1.0,0.0,0.0,0.0,1.0,0.0,0.0,0.0,1.0,-1.55556518555,-2.86564086914,9.93214599609,0.1,0.0,0.0,0.0,0.1,0.0,0.0,0.0,0.1
1446041346841475497,32,1446041346838349103,robocape,-24.680372109,8.32341274159,-124.889026613,0.0,10.0,0.0,0.0,0.0,10.0,0.0,0.0,0.0,10.0,-0.0616521792353,0.756604065692,-1.42772066039,1.0,0.0,0.0,0.0,1.0,0.0,0.0,0.0,1.0,-2.12078979492,-2.88240600586,9.43877197266,0.1,0.0,0.0,0.0,0.1,0.0,0.0,0.0,0.1
1446041346874836705,33,1446041346871570110,robocape,-25.2937800597,8.57657315178,-127.067448492,0.0,10.0,0.0,0.0,0.0,10.0,0.0,0.0,0.0,10.0,-0.171241258092,0.705205056653,-1.3805827091,1.0,0.0,0.0,0.0,1.0,0.0,0.0,0.0,1.0,-3.25123901367,-1.13044921875,9.38129150391,0.1,0.0,0.0,0.0,0.1,0.0,0.0,0.0,0.1
1446041346908727288,34,1446041346905327081,robocape,-26.0695893703,8.14930860218,-129.086398397,0.0,10.0,0.0,0.0,0.0,10.0,0.0,0.0,0.0,10.0,-0.266848741226,0.349406735018,-1.4101437972,1.0,0.0,0.0,0.0,1.0,0.0,0.0,0.0,1.0,-3.88831420898,-2.1459375,9.56211547852,0.1,0.0,0.0,0.0,0.1,0.0,0.0,0.0,0.1
1446041346941591080,35,1446041346938518047,robocape,-26.306558078,6.86550526183,-130.948950772,0.0,10.0,0.0,0.0,0.0,10.0,0.0,0.0,0.0,10.0,-0.0113184346328,-0.0769653555033,-1.54197027116,1.0,0.0,0.0,0.0,1.0,0.0,0.0,0.0,1.0,-3.53385131836,-2.988984375,9.58486816406,0.1,0.0,0.0,0.0,0.1,0.0,0.0,0.0,0.1
1446041346974693830,36,1446041346971636056,robocape,-25.9304013852,4.89695349755,-132.664667991,0.0,10.0,0.0,0.0,0.0,10.0,0.0,0.0,0.0,10.0,0.274838224496,-0.449941066169,-1.5772571556,1.0,0.0,0.0,0.0,1.0,0.0,0.0,0.0,1.0,-3.37458251953,-3.6057019043,9.86748046875,0.1,0.0,0.0,0.0,0.1,0.0,0.0,0.0,0.1
1446041347008006372,37,1446041347004936933,robocape,-25.0725014128,2.38236869163,-134.237708085,0.0,10.0,0.0,0.0,0.0,10.0,0.0,0.0,0.0,10.0,0.492418485556,-0.794021479007,-1.47712229861,1.0,0.0,0.0,0.0,1.0,0.0,0.0,0.0,1.0,-3.24285644531,-2.89917114258,9.61360839844,0.1,0.0,0.0,0.0,0.1,0.0,0.0,0.0,0.1
1446041347041387747,38,1446041347038194894,robocape,-24.8701913853,0.222355749843,-135.747869618,0.0,10.0,0.0,0.0,0.0,10.0,0.0,0.0,0.0,10.0,0.130761209523,-0.713061381869,-1.09868710771,1.0,0.0,0.0,0.0,1.0,0.0,0.0,0.0,1.0,-1.61783569336,-1.13643676758,9.56211547852,0.1,0.0,0.0,0.0,0.1,0.0,0.0,0.0,0.1
1446041347075113747,39,1446041347071924924,robocape,-26.0408124183,-1.08500200139,-137.226738677,0.0,10.0,0.0,0.0,0.0,10.0,0.0,0.0,0.0,10.0,-0.583099120673,-0.37044570763,-0.602673354685,1.0,0.0,0.0,0.0,1.0,0.0,0.0,0.0,1.0,0.259859619141,-0.120948486328,9.58486816406,0.1,0.0,0.0,0.0,0.1,0.0,0.0,0.0,0.1
1446041347108116330,40,1446041347105071067,robocape,-28.1080687438,-1.45658750828,-138.806824098,0.0,10.0,0.0,0.0,0.0,10.0,0.0,0.0,0.0,10.0,-1.04715494062,0.0885501062451,-0.3207777533,1.0,0.0,0.0,0.0,1.0,0.0,0.0,0.0,1.0,2.00343383789,-2.75786499023,9.28668823242,0.1,0.0,0.0,0.0,0.1,0.0,0.0,0.0,0.1
1446041347141404080,41,1446041347138212919,robocape,-29.7633245785,-1.00067702263,-140.686932674,0.0,10.0,0.0,0.0,0.0,10.0,0.0,0.0,0.0,10.0,-0.840759956138,0.580435959583,-0.324106704663,1.0,0.0,0.0,0.0,1.0,0.0,0.0,0.0,1.0,2.2189855957,-5.36963378906,9.06514892578,0.1,0.0,0.0,0.0,0.1,0.0,0.0,0.0,0.1
1446041347174791288,42,1446041347171585083,robocape,-30.7008053662,-0.0745028779067,-142.815570799,0.0,10.0,0.0,0.0,0.0,10.0,0.0,0.0,0.0,10.0,-0.460993184693,0.878710001672,-0.338620932604,1.0,0.0,0.0,0.0,1.0,0.0,0.0,0.0,1.0,0.251477050781,-4.28468994141,8.6987109375,0.1,0.0,0.0,0.0,0.1,0.0,0.0,0.0,0.1
1446041347208208872,43,1446041347205142974,robocape,-31.2624148829,0.743051451739,-144.956732314,0.0,10.0,0.0,0.0,0.0,10.0,0.0,0.0,0.0,10.0,-0.240083972271,0.804008333095,-0.237420811181,1.0,0.0,0.0,0.0,1.0,0.0,0.0,0.0,1.0,-1.35079101563,-5.11097167969,8.41969116211,0.1,0.0,0.0,0.0,0.1,0.0,0.0,0.0,0.1
1446041347241410622,44,1446041347238215923,robocape,-31.2441754324,0.996904544947,-146.98671955,0.0,10.0,0.0,0.0,0.0,10.0,0.0,0.0,0.0,10.0,0.0780306199393,0.482298473413,-0.196674446502,1.0,0.0,0.0,0.0,1.0,0.0,0.0,0.0,1.0,-2.43453735352,-4.44276123047,8.64242797852,0.1,0.0,0.0,0.0,0.1,0.0,0.0,0.0,0.1
1446041347274941747,45,1446041347271725893,robocape,-30.8308368802,0.64779048974,-148.870456863,0.0,10.0,0.0,0.0,0.0,10.0,0.0,0.0,0.0,10.0,0.29001824271,0.120774355435,-0.12210593598,1.0,0.0,0.0,0.0,1.0,0.0,0.0,0.0,1.0,-2.46926513672,-4.81398925781,8.92384277344,0.1,0.0,0.0,0.0,0.1,0.0,0.0,0.0,0.1
1446041347308262455,46,1446041347305155038,robocape,-29.8352287788,-0.345856980732,-150.632569305,0.0,10.0,0.0,0.0,0.0,10.0,0.0,0.0,0.0,10.0,0.585362807599,-0.231828172891,-0.158324926805,1.0,0.0,0.0,0.0,1.0,0.0,0.0,0.0,1.0,-2.22497314453,-4.87506225586,8.59692260742,0.1,0.0,0.0,0.0,0.1,0.0,0.0,0.0,0.1
1446041347341461247,47,1446041347338219881,robocape,-28.3166064103,-1.82704866432,-152.339062596,0.0,10.0,0.0,0.0,0.0,10.0,0.0,0.0,0.0,10.0,0.840360481975,-0.480301102596,-0.258726099901,1.0,0.0,0.0,0.0,1.0,0.0,0.0,0.0,1.0,-1.66334106445,-5.04630615234,8.30473022461,0.1,0.0,0.0,0.0,0.1,0.0,0.0,0.0,0.1
1446041347374870830,48,1446041347371613979,robocape,-26.1881717066,-3.54224377481,-154.088064387,0.0,10.0,0.0,0.0,0.0,10.0,0.0,0.0,0.0,10.0,1.13397399216,-0.588159126744,-0.37457360732,1.0,0.0,0.0,0.0,1.0,0.0,0.0,0.0,1.0,-1.24301513672,-4.61041259766,7.96822998047,0.1,0.0,0.0,0.0,0.1,0.0,0.0,0.0,0.1
1446041347408650580,49,1446041347405440092,robocape,-23.7392014176,-5.21812465934,-155.932463698,0.0,10.0,0.0,0.0,0.0,10.0,0.0,0.0,0.0,10.0,1.27392310744,-0.572047002149,-0.422377348887,1.0,0.0,0.0,0.0,1.0,0.0,0.0,0.0,1.0,-1.31247070313,-2.8009753418,7.58023681641,0.1,0.0,0.0,0.0,0.1,0.0,0.0,0.0,0.1
1446041347441757289,50,1446041347438431024,robocape,-21.6585613757,-6.68266924171,-157.848877236,0.0,10.0,0.0,0.0,0.0,10.0,0.0,0.0,0.0,10.0,1.04582336007,-0.460593710529,-0.519183254511,1.0,0.0,0.0,0.0,1.0,0.0,0.0,0.0,1.0,-0.917292480469,-1.67052612305,7.29403198242,0.1,0.0,0.0,0.0,0.1,0.0,0.0,0.0,0.1
1446041347474739205,51,1446041347471544027,robocape,-20.0383848067,-7.79921097119,-159.841171304,0.0,10.0,0.0,0.0,0.0,10.0,0.0,0.0,0.0,10.0,0.760731965381,-0.262055051264,-0.704006634162,1.0,0.0,0.0,0.0,1.0,0.0,0.0,0.0,1.0,-0.263452148438,-1.92559570313,6.92879150391,0.1,0.0,0.0,0.0,0.1,0.0,0.0,0.0,0.1
1446041347508067080,52,1446041347504959106,robocape,-18.5814463836,-8.42936184248,-161.939760266,0.0,10.0,0.0,0.0,0.0,10.0,0.0,0.0,0.0,10.0,0.632633916948,0.00652474467069,-0.88044105638,1.0,0.0,0.0,0.0,1.0,0.0,0.0,0.0,1.0,-0.0682580566406,-2.90755371094,6.87250854492,0.1,0.0,0.0,0.0,0.1,0.0,0.0,0.0,0.1
1446041347541556247,53,1446041347538239002,robocape,-16.9931946816,-8.59414520834,-164.141349069,0.0,10.0,0.0,0.0,0.0,10.0,0.0,0.0,0.0,10.0,0.678706603807,0.238619233671,-0.930641642928,1.0,0.0,0.0,0.0,1.0,0.0,0.0,0.0,1.0,-0.716110839844,-2.73750732422,6.81023803711,0.1,0.0,0.0,0.0,0.1,0.0,0.0,0.0,0.1
1446041347580302122,54,1446041347577187061,robocape,-15.3930194581,-8.43885626734,-166.386173943,0.0,10.0,0.0,0.0,0.0,10.0,0.0,0.0,0.0,10.0,0.69002503844,0.363521488796,-0.815193609673,1.0,0.0,0.0,0.0,1.0,0.0,0.0,0.0,1.0,-1.08494384766,-2.10162963867,7.07967773438,0.1,0.0,0.0,0.0,0.1,0.0,0.0,0.0,0.1
1446041347608338580,55,1446041347605150938,robocape,-13.5684455809,-8.39346929621,-168.620804312,0.0,10.0,0.0,0.0,0.0,10.0,0.0,0.0,0.0,10.0,0.833303105086,0.241948185034,-0.557266458099,1.0,0.0,0.0,0.0,1.0,0.0,0.0,0.0,1.0,-1.36516113281,-2.23814575195,7.7023828125,0.1,0.0,0.0,0.0,0.1,0.0,0.0,0.0,0.1
1446041347641532789,56,1446041347638258934,robocape,-11.3997505806,-8.62577087734,-170.843261361,0.0,10.0,0.0,0.0,0.0,10.0,0.0,0.0,0.0,10.0,1.04156230233,0.0256995045193,-0.21465078386,1.0,0.0,0.0,0.0,1.0,0.0,0.0,0.0,1.0,-1.40587646484,-1.66334106445,7.85326904297,0.1,0.0,0.0,0.0,0.1,0.0,0.0,0.0,0.1
1446041347674663789,57,1446041347671617031,robocape,-9.30405022674,-8.64895828377,-173.082456327,0.0,10.0,0.0,0.0,0.0,10.0,0.0,0.0,0.0,10.0,0.999484357107,0.107059075821,-0.190549175995,1.0,0.0,0.0,0.0,1.0,0.0,0.0,0.0,1.0,-1.1843371582,-0.90052734375,8.84121459961,0.1,0.0,0.0,0.0,0.1,0.0,0.0,0.0,0.1
1446041347708081080,58,1446041347705061912,robocape,-7.91670420867,-8.23893997449,-175.295174124,0.0,10.0,0.0,0.0,0.0,10.0,0.0,0.0,0.0,10.0,0.61732074068,0.325038811044,-0.337422510113,1.0,0.0,0.0,0.0,1.0,0.0,0.0,0.0,1.0,-1.26936035156,0.990340576172,9.06155639648,0.1,0.0,0.0,0.0,0.1,0.0,0.0,0.0,0.1
1446041347741700580,59,1446041347738346099,robocape,-7.57455129855,-7.75028956812,-177.427948247,0.0,10.0,0.0,0.0,0.0,10.0,0.0,0.0,0.0,10.0,0.0806937810294,0.352069896108,-0.300937203179,1.0,0.0,0.0,0.0,1.0,0.0,0.0,0.0,1.0,-1.40228393555,1.72920410156,9.33937866211,0.1,0.0,0.0,0.0,0.1,0.0,0.0,0.0,0.1
1446041347774737955,60,1446041347771739959,robocape,-7.89869512779,-7.19824788494,-179.519376977,0.0,10.0,0.0,0.0,0.0,10.0,0.0,0.0,0.0,10.0,-0.259658206283,0.383495196971,-0.278966124186,1.0,0.0,0.0,0.0,1.0,0.0,0.0,0.0,1.0,-1.01189575195,-1.99984130859,9.22561523438,0.1,0.0,0.0,0.0,0.1,0.0,0.0,0.0,0.1
1446041347808241580,61,1446041347805145978,robocape,-7.88612195498,-6.66288249337,178.368201834,0.0,10.0,0.0,0.0,0.0,10.0,0.0,0.0,0.0,10.0,-0.0777643038303,0.374973081483,-0.271642431188,1.0,0.0,0.0,0.0,1.0,0.0,0.0,0.0,1.0,-1.33522338867,-1.91721313477,9.69384155273,0.1,0.0,0.0,0.0,0.1,0.0,0.0,0.0,0.1
1446041347841623914,62,1446041347838275909,robocape,-7.50142560481,-6.28967674007,176.249797142,0.0,10.0,0.0,0.0,0.0,10.0,0.0,0.0,0.0,10.0,0.131959632013,0.273506643951,-0.0944090606433,1.0,0.0,0.0,0.0,1.0,0.0,0.0,0.0,1.0,-1.59867553711,-2.29083618164,10.0710571289,0.1,0.0,0.0,0.0,0.1,0.0,0.0,0.0,0.1
1446041347874590122,63,1446041347871539115,robocape,-6.77639950512,-6.18320174795,174.138209307,0.0,10.0,0.0,0.0,0.0,10.0,0.0,0.0,0.0,10.0,0.322775124118,0.111586449674,0.110121711075,1.0,0.0,0.0,0.0,1.0,0.0,0.0,0.0,1.0,-2.09324707031,-1.49928222656,10.3919897461,0.1,0.0,0.0,0.0,0.1,0.0,0.0,0.0,0.1
1446041347908980747,64,1446041347905230998,robocape,-6.10246972301,-6.51083197956,172.061652804,0.0,10.0,0.0,0.0,0.0,10.0,0.0,0.0,0.0,10.0,0.309059844504,-0.141813328047,0.397609950749,1.0,0.0,0.0,0.0,1.0,0.0,0.0,0.0,1.0,-2.27886108398,-0.595162353516,11.076965332,0.1,0.0,0.0,0.0,0.1,0.0,0.0,0.0,0.1
1446041347941545580,65,1446041347938249111,robocape,-5.37469400719,-7.23249721914,170.006788737,0.0,10.0,0.0,0.0,0.0,10.0,0.0,0.0,0.0,10.0,0.342083042021,-0.365785175722,0.574976479348,1.0,0.0,0.0,0.0,1.0,0.0,0.0,0.0,1.0,-1.84536254883,-0.853824462891,11.8266064453,0.1,0.0,0.0,0.0,0.1,0.0,0.0,0.0,0.1
1446041347974720122,66,1446041347971669912,robocape,-4.36379862408,-8.09263074525,167.942164261,0.0,10.0,0.0,0.0,0.0,10.0,0.0,0.0,0.0,10.0,0.490687430847,-0.451538962823,0.659265527849,1.0,0.0,0.0,0.0,1.0,0.0,0.0,0.0,1.0,-0.93884765625,-0.704135742188,12.2385498047,0.1,0.0,0.0,0.0,0.1,0.0,0.0,0.0,0.1
1446041348008688664,67,1446041348005681037,robocape,-3.31578662186,-8.7452932686,165.871994612,0.0,10.0,0.0,0.0,0.0,10.0,0.0,0.0,0.0,10.0,0.516653251475,-0.35566516358,0.78110514772,1.0,0.0,0.0,0.0,1.0,0.0,0.0,0.0,1.0,0.0239501953125,0.140108642578,12.8995751953,0.1,0.0,0.0,0.0,0.1,0.0,0.0,0.0,0.1
1446041348041544247,68,1446041348038242101,robocape,-2.51197601287,-9.05043768428,163.819936753,0.0,10.0,0.0,0.0,0.0,10.0,0.0,0.0,0.0,10.0,0.387223622498,-0.175369157782,0.732635615881,1.0,0.0,0.0,0.0,1.0,0.0,0.0,0.0,1.0,0.505349121094,0.372425537109,13.294753418,0.1,0.0,0.0,0.0,0.1,0.0,0.0,0.0,0.1
1446041348074929872,69,1446041348071789026,robocape,-2.07685523792,-9.00207243353,161.803207553,0.0,10.0,0.0,0.0,0.0,10.0,0.0,0.0,0.0,10.0,0.186154960197,0.0133158054504,0.582300172346,1.0,0.0,0.0,0.0,1.0,0.0,0.0,0.0,1.0,0.504151611328,0.475411376953,13.0420788574,0.1,0.0,0.0,0.0,0.1,0.0,0.0,0.0,0.1
1446041348110429872,70,1446041348106617927,robocape,-1.44411967536,-8.56617674285,159.780857308,0.0,10.0,0.0,0.0,0.0,10.0,0.0,0.0,0.0,10.0,0.274305592278,0.219044999659,0.329832501006,1.0,0.0,0.0,0.0,1.0,0.0,0.0,0.0,1.0,0.847836914063,-1.04183349609,13.3833691406,0.1,0.0,0.0,0.0,0.1,0.0,0.0,0.0,0.1
1446041348141430581,71,1446041348138181924,robocape,-0.65022043165,-7.81037365321,157.764978369,0.0,10.0,0.0,0.0,0.0,10.0,0.0,0.0,0.0,10.0,0.352735686381,0.385359409734,0.148737546881,1.0,0.0,0.0,0.0,1.0,0.0,0.0,0.0,1.0,-0.205971679688,1.06099365234,13.6144885254,0.1,0.0,0.0,0.0,0.1,0.0,0.0,0.0,0.1
1446041348174949831,72,1446041348171742916,robocape,-0.286877480777,-6.96683279291,155.803207612,0.0,10.0,0.0,0.0,0.0,10.0,0.0,0.0,0.0,10.0,0.13422331894,0.430100516048,0.110920659402,1.0,0.0,0.0,0.0,1.0,0.0,0.0,0.0,1.0,-0.923280029297,0.991538085938,13.7677697754,0.1,0.0,0.0,0.0,0.1,0.0,0.0,0.0,0.1
1446041348208835831,73,1446041348205754995,robocape,-0.209397465889,-6.1835837888,153.872265733,0.0,10.0,0.0,0.0,0.0,10.0,0.0,0.0,0.0,10.0,-0.0146473859954,0.400273111839,0.00199737081756,1.0,0.0,0.0,0.0,1.0,0.0,0.0,0.0,1.0,-1.08015380859,0.619112548828,12.6912084961,0.1,0.0,0.0,0.0,0.1,0.0,0.0,0.0,0.1
1446041348241502789,74,1446041348238271951,robocape,-0.24769562312,-5.57913077816,151.955187341,0.0,10.0,0.0,0.0,0.0,10.0,0.0,0.0,0.0,10.0,-0.0756337749583,0.308793528395,-0.110521185238,1.0,0.0,0.0,0.0,1.0,0.0,0.0,0.0,1.0,-0.718505859375,0.17244140625,11.5691418457,0.1,0.0,0.0,0.0,0.1,0.0,0.0,0.0,0.1
1446041348274958331,75,1446041348271720886,robocape,-0.0230892912858,-4.96126591591,150.037639867,0.0,10.0,0.0,0.0,0.0,10.0,0.0,0.0,0.0,10.0,0.0641821822709,0.31545143112,-0.198804975374,1.0,0.0,0.0,0.0,1.0,0.0,0.0,0.0,1.0,-0.111368408203,0.152083740234,11.516451416,0.1,0.0,0.0,0.0,0.1,0.0,0.0,0.0,0.1
1446041348308543039,76,1446041348305439949,robocape,0.221027917817,-4.32872552119,148.126956052,0.0,10.0,0.0,0.0,0.0,10.0,0.0,0.0,0.0,10.0,0.0766990393943,0.322375649954,-0.313054586139,1.0,0.0,0.0,0.0,1.0,0.0,0.0,0.0,1.0,-0.441881103516,1.26337280273,11.4062805176,0.1,0.0,0.0,0.0,0.1,0.0,0.0,0.0,0.1
1446041348341398456,77,1446041348338238954,robocape,0.362229936879,-3.6827355937,146.233495332,0.0,10.0,0.0,0.0,0.0,10.0,0.0,0.0,0.0,10.0,0.0287621397729,0.328634078516,-0.365785175722,1.0,0.0,0.0,0.0,1.0,0.0,0.0,0.0,1.0,-0.736468505859,0.845441894531,11.2266540527,0.1,0.0,0.0,0.0,0.1,0.0,0.0,0.0,0.1
1446041348374820039,78,1446041348371531963,robocape,0.524024854805,-3.08664432518,144.379140817,0.0,10.0,0.0,0.0,0.0,10.0,0.0,0.0,0.0,10.0,0.051532167093,0.300937203179,-0.249005561922,1.0,0.0,0.0,0.0,1.0,0.0,0.0,0.0,1.0,-1.15080688477,1.41545654297,11.1907287598,0.1,0.0,0.0,0.0,0.1,0.0,0.0,0.0,0.1
1446041348408986622,79,1446041348405435085,robocape,0.311044343287,-2.72131287196,142.597040631,0.0,10.0,0.0,0.0,0.0,10.0,0.0,0.0,0.0,10.0,-0.133291212558,0.181627586343,-0.0126500151779,1.0,0.0,0.0,0.0,1.0,0.0,0.0,0.0,1.0,-1.71004394531,1.67172363281,11.5248339844,0.1,0.0,0.0,0.0,0.1,0.0,0.0,0.0,0.1
1446041348441644122,80,1446041348438399076,robocape,-0.303906791696,-2.62043433187,140.875550152,0.0,10.0,0.0,0.0,0.0,10.0,0.0,0.0,0.0,10.0,-0.340485145367,0.0475374254579,0.133823844776,1.0,0.0,0.0,0.0,1.0,0.0,0.0,0.0,1.0,-1.86452270508,0.760418701172,11.6829052734,0.1,0.0,0.0,0.0,0.1,0.0,0.0,0.0,0.1
1446041348474666289,81,1446041348471545934,robocape,-1.09802102197,-2.62724596443,139.208216326,0.0,10.0,0.0,0.0,0.0,10.0,0.0,0.0,0.0,10.0,-0.434228415737,-0.00492684801665,0.242480817252,1.0,0.0,0.0,0.0,1.0,0.0,0.0,0.0,1.0,-1.68369873047,-0.415535888672,11.1775561523,0.1,0.0,0.0,0.0,0.1,0.0,0.0,0.0,0.1
1446041348508446122,82,1446041348505399942,robocape,-1.61533801949,-2.7229492032,137.554181812,0.0,10.0,0.0,0.0,0.0,10.0,0.0,0.0,0.0,10.0,-0.2926814038,-0.049135322112,0.195342865957,1.0,0.0,0.0,0.0,1.0,0.0,0.0,0.0,1.0,-1.63340332031,-1.69327880859,11.03625,0.1,0.0,0.0,0.0,0.1,0.0,0.0,0.0,0.1
1446041348541474872,83,1446041348538291931,robocape,-1.77533226906,-2.92162385612,135.906230289,0.0,10.0,0.0,0.0,0.0,10.0,0.0,0.0,0.0,10.0,-0.108923288584,-0.102132227805,0.121972777926,1.0,0.0,0.0,0.0,1.0,0.0,0.0,0.0,1.0,-1.35558105469,-1.54478759766,10.7368725586,0.1,0.0,0.0,0.0,0.1,0.0,0.0,0.0,0.1
1446041348580368289,84,1446041348577231884,robocape,-1.65049082975,-3.11353633594,134.26719578,0.0,10.0,0.0,0.0,0.0,10.0,0.0,0.0,0.0,10.0,0.0382163616426,-0.09933590866,0.0659132369795,1.0,0.0,0.0,0.0,1.0,0.0,0.0,0.0,1.0,-1.02985839844,-1.22026245117,10.459050293,0.1,0.0,0.0,0.0,0.1,0.0,0.0,0.0,0.1
1446041348609006622,85,1446041348605904102,robocape,-1.42622416127,-3.26108998268,132.639874481,0.0,10.0,0.0,0.0,0.0,10.0,0.0,0.0,0.0,10.0,0.0889495804086,-0.0773648296668,0.0173105470855,1.0,0.0,0.0,0.0,1.0,0.0,0.0,0.0,1.0,-1.04303100586,-1.01548828125,10.3213366699,0.1,0.0,0.0,0.0,0.1,0.0,0.0,0.0,0.1
1446041348641369747,86,1446041348638293027,robocape,-1.03360080853,-3.3835894523,131.038242122,0.0,10.0,0.0,0.0,0.0,10.0,0.0,0.0,0.0,10.0,0.177899160817,-0.0680437658515,0.0223705531567,1.0,0.0,0.0,0.0,1.0,0.0,0.0,0.0,1.0,-1.10410400391,-0.289797363281,10.1500927734,0.1,0.0,0.0,0.0,0.1,0.0,0.0,0.0,0.1
1446041348675359039,87,1446041348671533107,robocape,-0.75443808033,-3.5020475044,129.482098544,0.0,10.0,0.0,0.0,0.0,10.0,0.0,0.0,0.0,10.0,0.120508039326,-0.0696416625056,0.0695085044511,1.0,0.0,0.0,0.0,1.0,0.0,0.0,0.0,1.0,-1.13164672852,0.155676269531,10.2985839844,0.1,0.0,0.0,0.0,0.1,0.0,0.0,0.0,0.1
1446041348709093372,88,1446041348705828905,robocape,-0.624946702771,-3.61653567136,127.959183231,0.0,10.0,0.0,0.0,0.0,10.0,0.0,0.0,0.0,10.0,0.0424774193868,-0.0691090302876,0.0737695621952,1.0,0.0,0.0,0.0,1.0,0.0,0.0,0.0,1.0,-1.33522338867,0.286204833984,10.4207299805,0.1,0.0,0.0,0.0,0.1,0.0,0.0,0.0,0.1
1446041348741278289,89,1446041348738284111,robocape,-0.63973200914,-3.79262384571,126.450508994,0.0,10.0,0.0,0.0,0.0,10.0,0.0,0.0,0.0,10.0,-0.0354200424981,-0.101200121423,0.0271642431188,1.0,0.0,0.0,0.0,1.0,0.0,0.0,0.0,1.0,-1.59987304688,-0.427510986328,10.2890039063,0.1,0.0,0.0,0.0,0.1,0.0,0.0,0.0,0.1
1446041348774905539,90,1446041348771599054,robocape,-0.53122434226,-3.97583635239,124.928755143,0.0,10.0,0.0,0.0,0.0,10.0,0.0,0.0,0.0,10.0,0.0250337142467,-0.10466223084,-0.068709556124,1.0,0.0,0.0,0.0,1.0,0.0,0.0,0.0,1.0,-1.43820922852,-0.995130615234,10.1225500488,0.1,0.0,0.0,0.0,0.1,0.0,0.0,0.0,0.1
1446041348808730706,91,1446041348805649995,robocape,-0.265370976278,-4.09089397758,123.390613958,0.0,10.0,0.0,0.0,0.0,10.0,0.0,0.0,0.0,10.0,0.103863282513,-0.0696416625056,-0.162719142604,1.0,0.0,0.0,0.0,1.0,0.0,0.0,0.0,1.0,-1.32324829102,-0.318537597656,9.83874023438,0.1,0.0,0.0,0.0,0.1,0.0,0.0,0.0,0.1
1446041348841183081,92,1446041348838215112,robocape,-0.0372649884888,-4.13777905277,121.879653127,0.0,10.0,0.0,0.0,0.0,10.0,0.0,0.0,0.0,10.0,0.084821680719,-0.0362189908251,-0.161387562059,1.0,0.0,0.0,0.0,1.0,0.0,0.0,0.0,1.0,-1.2298425293,-0.0634680175781,9.79083984375,0.1,0.0,0.0,0.0,0.1,0.0,0.0,0.0,0.1
1446041348874659456,93,1446041348871589899,robocape,0.182293655134,-4.12492711453,120.417508359,0.0,10.0,0.0,0.0,0.0,10.0,0.0,0.0,0.0,10.0,0.083756416283,-0.00759000910673,-0.111985923838,1.0,0.0,0.0,0.0,1.0,0.0,0.0,0.0,1.0,-1.33642089844,-0.128133544922,10.1405126953,0.1,0.0,0.0,0.0,0.1,0.0,0.0,0.0,0.1
1446041348908909164,94,1446041348905359029,robocape,0.381256087784,-4.12744414648,119.041070551,0.0,10.0,0.0,0.0,0.0,10.0,0.0,0.0,0.0,10.0,0.0798948327024,-0.0189084437396,0.0130494893414,1.0,0.0,0.0,0.0,1.0,0.0,0.0,0.0,1.0,-1.51963989258,0.245489501953,10.1021923828,0.1,0.0,0.0,0.0,0.1,0.0,0.0,0.0,0.1
1446041348941652331,95,1446041348938316106,robocape,0.533355720754,-4.15481793537,117.727519206,0.0,10.0,0.0,0.0,0.0,10.0,0.0,0.0,0.0,10.0,0.0596548084178,-0.033822145844,0.084289048501,1.0,0.0,0.0,0.0,1.0,0.0,0.0,0.0,1.0,-1.05979614258,0.0922082519531,9.91777587891,0.1,0.0,0.0,0.0,0.1,0.0,0.0,0.0,0.1
1446041348974763414,96,1446041348971513032,robocape,0.659173107003,-4.11509024914,116.429399409,0.0,10.0,0.0,0.0,0.0,10.0,0.0,0.0,0.0,10.0,0.0459395288039,0.00106526443603,0.0575242795457,1.0,0.0,0.0,0.0,1.0,0.0,0.0,0.0,1.0,-2.56985595703,0.125738525391,10.7296875,0.1,0.0,0.0,0.0,0.1,0.0,0.0,0.0,0.1
1446041349008378873,97,1446041349005367994,robocape,0.77684819953,-4.79805194746,115.094822412,0.0,10.0,0.0,0.0,0.0,10.0,0.0,0.0,0.0,10.0,0.033822145844,-0.3798999295,-0.0268979270098,1.0,0.0,0.0,0.0,1.0,0.0,0.0,0.0,1.0,-0.690963134766,-0.32572265625,9.75730957031,0.1,0.0,0.0,0.0,0.1,0.0,0.0,0.0,0.1
1446041349041395456,98,1446041349038228034,robocape,0.950538925307,-5.51973818784,113.784987538,0.0,10.0,0.0,0.0,0.0,10.0,0.0,0.0,0.0,10.0,0.0603205986903,-0.40413469542,-0.0145142279409,1.0,0.0,0.0,0.0,1.0,0.0,0.0,0.0,1.0,-2.38903198242,0.108973388672,10.6961572266,0.1,0.0,0.0,0.0,0.1,0.0,0.0,0.0,0.1
1446041349074802706,99,1446041349071595907,robocape,0.980064525248,-6.17968979983,112.506604918,0.0,10.0,0.0,0.0,0.0,10.0,0.0,0.0,0.0,10.0,-0.017976337358,-0.374440449265,-0.00865527354276,1.0,0.0,0.0,0.0,1.0,0.0,0.0,0.0,1.0,-1.16876953125,0.433498535156,10.3189416504,0.1,0.0,0.0,0.0,0.1,0.0,0.0,0.0,0.1
1446041349108927248,100,1446041349105788946,robocape,0.982650211991,-6.90180460228,111.243301618,0.0,10.0,0.0,0.0,0.0,10.0,0.0,0.0,0.0,10.0,-0.0364853069341,-0.409594175654,-0.0178431793035,1.0,0.0,0.0,0.0,1.0,0.0,0.0,0.0,1.0,-0.5748046875,0.00119750976563,9.91897338867,0.1,0.0,0.0,0.0,0.1,0.0,0.0,0.0,0.1
1446041349141159123,101,1446041349138186931,robocape,0.948189233955,-7.68273446182,109.988571969,0.0,10.0,0.0,0.0,0.0,10.0,0.0,0.0,0.0,10.0,-0.0616521792353,-0.442750531226,-0.0370179391521,1.0,0.0,0.0,0.0,1.0,0.0,0.0,0.0,1.0,-0.229921875,0.590372314453,10.1213525391,0.1,0.0,0.0,0.0,0.1,0.0,0.0,0.0,0.1
1446041349174706414,102,1446041349171577930,robocape,0.642696631751,-8.41405641597,108.805025996,0.0,10.0,0.0,0.0,0.0,10.0,0.0,0.0,0.0,10.0,-0.202666558955,-0.41864892336,0.016378440704,1.0,0.0,0.0,0.0,1.0,0.0,0.0,0.0,1.0,0.107775878906,0.613125,10.1824255371,0.1,0.0,0.0,0.0,0.1,0.0,0.0,0.0,0.1
1446041349208663039,103,1446041349205534934,robocape,0.0833171885293,-8.99019174838,107.742422104,0.0,10.0,0.0,0.0,0.0,10.0,0.0,0.0,0.0,10.0,-0.326903023807,-0.339952513149,0.13422331894,1.0,0.0,0.0,0.0,1.0,0.0,0.0,0.0,1.0,0.360450439453,0.0802331542969,10.3967797852,0.1,0.0,0.0,0.0,0.1,0.0,0.0,0.0,0.1
1446041349241250748,104,1446041349238245964,robocape,-0.449678795362,-9.42187182194,106.692859356,0.0,10.0,0.0,0.0,0.0,10.0,0.0,0.0,0.0,10.0,-0.317848276101,-0.263386631809,0.110654343293,1.0,0.0,0.0,0.0,1.0,0.0,0.0,0.0,1.0,0.330512695313,-0.799936523438,10.3177441406,0.1,0.0,0.0,0.0,0.1,0.0,0.0,0.0,0.1
1446041349274985248,105,1446041349271575927,robocape,-0.787856854818,-9.78278671554,105.599343733,0.0,10.0,0.0,0.0,0.0,10.0,0.0,0.0,0.0,10.0,-0.227300799038,-0.223039741294,0.0241016078652,1.0,0.0,0.0,0.0,1.0,0.0,0.0,0.0,1.0,0.294587402344,-0.971180419922,10.1381176758,0.1,0.0,0.0,0.0,0.1,0.0,0.0,0.0,0.1
1446041349308943164,106,1446041349305650949,robocape,-0.932028973876,-10.0818907702,104.491826751,0.0,10.0,0.0,0.0,0.0,10.0,0.0,0.0,0.0,10.0,-0.13156015785,-0.189483911559,-0.015313176268,1.0,0.0,0.0,0.0,1.0,0.0,0.0,0.0,1.0,0.170046386719,-1.02866088867,10.0351318359,0.1,0.0,0.0,0.0,0.1,0.0,0.0,0.0,0.1
1446041349341199914,107,1446041349338224887,robocape,-0.877437967822,-10.3867854179,103.365579856,0.0,10.0,0.0,0.0,0.0,10.0,0.0,0.0,0.0,10.0,-0.0331563555715,-0.192147072649,-0.0552605926191,1.0,0.0,0.0,0.0,1.0,0.0,0.0,0.0,1.0,0.047900390625,-1.2645703125,9.98842895508,0.1,0.0,0.0,0.0,0.1,0.0,0.0,0.0,0.1
1446041349374646873,108,1446041349371578931,robocape,-0.678644669394,-10.7730691444,102.250103861,0.0,10.0,0.0,0.0,0.0,10.0,0.0,0.0,0.0,10.0,0.0416784710597,-0.237820285344,-0.0524642734746,1.0,0.0,0.0,0.0,1.0,0.0,0.0,0.0,1.0,0.500559082031,-0.731678466797,9.70461914063,0.1,0.0,0.0,0.0,0.1,0.0,0.0,0.0,0.1
1446041349409274748,109,1446041349405752897,robocape,-0.589146916958,-10.8938797915,101.242185509,0.0,10.0,0.0,0.0,0.0,10.0,0.0,0.0,0.0,10.0,-0.00199737081756,-0.104395914731,0.0435426838228,1.0,0.0,0.0,0.0,1.0,0.0,0.0,0.0,1.0,3.22609130859,-0.307760009766,11.2685668945,0.1,0.0,0.0,0.0,0.1,0.0,0.0,0.0,0.1
1446041349441328873,110,1446041349438218116,robocape,-0.595885517009,-10.7353803223,100.241483892,0.0,10.0,0.0,0.0,0.0,10.0,0.0,0.0,0.0,10.0,-0.0548611184556,0.0452737385313,0.00585895439817,1.0,0.0,0.0,0.0,1.0,0.0,0.0,0.0,1.0,0.851429443359,-0.433498535156,10.3883972168,0.1,0.0,0.0,0.0,0.1,0.0,0.0,0.0,0.1
1446041349474584956,111,1446041349471519947,robocape,-0.554222081595,-10.5870914338,99.2718345796,0.0,10.0,0.0,0.0,0.0,10.0,0.0,0.0,0.0,10.0,-0.0255663464648,0.0392816260787,0.0233026595382,1.0,0.0,0.0,0.0,1.0,0.0,0.0,0.0,1.0,0.738863525391,-0.741258544922,9.95729370117,0.1,0.0,0.0,0.0,0.1,0.0,0.0,0.0,0.1
1446041349508679706,112,1446041349505620002,robocape,-0.464806656086,-10.4605973356,98.300761425,0.0,10.0,0.0,0.0,0.0,10.0,0.0,0.0,0.0,10.0,-0.00173105470855,0.0290284558819,0.00119842249054,1.0,0.0,0.0,0.0,1.0,0.0,0.0,0.0,1.0,0.135318603516,-0.810714111328,10.0016015625,0.1,0.0,0.0,0.0,0.1,0.0,0.0,0.0,0.1
1446041349542082331,113,1446041349539071083,robocape,-0.320572815098,-10.307598872,97.3405087186,0.0,10.0,0.0,0.0,0.0,10.0,0.0,0.0,0.0,10.0,0.0279631914458,0.0432763677138,-0.00719053494321,1.0,0.0,0.0,0.0,1.0,0.0,0.0,0.0,1.0,0.441881103516,-0.760418701172,9.87706054688,0.1,0.0,0.0,0.0,0.1,0.0,0.0,0.0,0.1
1446041349580019956,114,1446041349576894998,robocape,-0.123281007579,-10.1223223341,96.3861701899,0.0,10.0,0.0,0.0,0.0,10.0,0.0,0.0,0.0,10.0,0.0563258570552,0.0607200728538,-0.0214384467751,1.0,0.0,0.0,0.0,1.0,0.0,0.0,0.0,1.0,0.0179626464844,-0.444276123047,9.90580078125,0.1,0.0,0.0,0.0,0.1,0.0,0.0,0.0,0.1
1446041349609454040,115,1446041349606363058,robocape,0.0775759265793,-9.83545405222,95.4672789879,0.0,10.0,0.0,0.0,0.0,10.0,0.0,0.0,0.0,10.0,0.0631169178349,0.113716978546,-0.00719053494321,1.0,0.0,0.0,0.0,1.0,0.0,0.0,0.0,1.0,0.314945068359,-0.290994873047,9.84951782227,0.1,0.0,0.0,0.0,0.1,0.0,0.0,0.0,0.1
1446041349641208706,116,1446041349638231039,robocape,0.186038463851,-9.47554896689,94.5856243954,0.0,10.0,0.0,0.0,0.0,10.0,0.0,0.0,0.0,10.0,0.0194410759576,0.152732288516,0.00545948023466,1.0,0.0,0.0,0.0,1.0,0.0,0.0,0.0,1.0,0.140108642578,-0.537681884766,9.89262817383,0.1,0.0,0.0,0.0,0.1,0.0,0.0,0.0,0.1
1446041349674699623,117,1446041349671715021,robocape,0.325730506178,-9.01289891567,93.7236358192,0.0,10.0,0.0,0.0,0.0,10.0,0.0,0.0,0.0,10.0,0.0388821519152,0.207992881135,0.00359526747161,1.0,0.0,0.0,0.0,1.0,0.0,0.0,0.0,1.0,-0.171243896484,-0.625100097656,10.0518969727,0.1,0.0,0.0,0.0,0.1,0.0,0.0,0.0,0.1
1446041349708670248,118,1446041349705550909,robocape,0.516800081692,-8.5403968618,92.8433119219,0.0,10.0,0.0,0.0,0.0,10.0,0.0,0.0,0.0,10.0,0.0645816564344,0.215449732187,-0.0347542522255,1.0,0.0,0.0,0.0,1.0,0.0,0.0,0.0,1.0,0.00119750976563,-0.529299316406,10.3404968262,0.1,0.0,0.0,0.0,0.1,0.0,0.0,0.0,0.1
1446041349741202373,119,1446041349738213062,robocape,0.736271002536,-8.16628388363,91.9994430561,0.0,10.0,0.0,0.0,0.0,10.0,0.0,0.0,0.0,10.0,0.085354312937,0.163518090931,-0.00798948327024,1.0,0.0,0.0,0.0,1.0,0.0,0.0,0.0,1.0,-0.561632080078,-1.13763427734,10.1872155762,0.1,0.0,0.0,0.0,0.1,0.0,0.0,0.0,0.1
1446041349774750165,120,1446041349771486997,robocape,1.07822403807,-7.87235938919,91.1526468808,0.0,10.0,0.0,0.0,0.0,10.0,0.0,0.0,0.0,10.0,0.150868075753,0.121440145708,-0.0205063403936,1.0,0.0,0.0,0.0,1.0,0.0,0.0,0.0,1.0,0.0718505859375,-0.688568115234,10.3416943359,0.1,0.0,0.0,0.0,0.1,0.0,0.0,0.0,0.1
1446041349809026415,121,1446041349805762052,robocape,1.40290405942,-7.61695116746,90.3343334307,0.0,10.0,0.0,0.0,0.0,10.0,0.0,0.0,0.0,10.0,0.146074385791,0.100800647259,-0.0066579027252,1.0,0.0,0.0,0.0,1.0,0.0,0.0,0.0,1.0,0.0706530761719,-0.140108642578,10.1453027344,0.1,0.0,0.0,0.0,0.1,0.0,0.0,0.0,0.1
1446041349841660165,122,1446041349838345050,robocape,1.6624006934,-7.46754035901,89.5314741544,0.0,10.0,0.0,0.0,0.0,10.0,0.0,0.0,0.0,10.0,0.11411645271,0.0450074224223,-0.00386158358061,1.0,0.0,0.0,0.0,1.0,0.0,0.0,0.0,1.0,-0.100590820313,-0.192799072266,10.1117724609,0.1,0.0,0.0,0.0,0.1,0.0,0.0,0.0,0.1
1446041349874600331,123,1446041349871535062,robocape,1.88377829988,-7.33955701022,88.7460835867,0.0,10.0,0.0,0.0,0.0,10.0,0.0,0.0,0.0,10.0,0.0961401153519,0.0336889877895,-0.00173105470855,1.0,0.0,0.0,0.0,1.0,0.0,0.0,0.0,1.0,0.0395178222656,-0.108973388672,10.1069824219,0.1,0.0,0.0,0.0,0.1,0.0,0.0,0.0,0.1
1446041349909228081,124,1446041349905767917,robocape,2.02852346684,-7.23023712083,87.9844128892,0.0,10.0,0.0,0.0,0.0,10.0,0.0,0.0,0.0,10.0,0.0581900698182,0.0241016078652,0.00559263828917,1.0,0.0,0.0,0.0,1.0,0.0,0.0,0.0,1.0,0.00838256835938,0.0610729980469,10.0578845215,0.1,0.0,0.0,0.0,0.1,0.0,0.0,0.0,0.1
1446041349941387498,125,1446041349938329935,robocape,2.06864694041,-7.12474080048,87.2428925114,0.0,10.0,0.0,0.0,0.0,10.0,0.0,0.0,0.0,10.0,0.00466053190764,0.0227700273202,0.00772316716123,1.0,0.0,0.0,0.0,1.0,0.0,0.0,0.0,1.0,0.0490979003906,0.09580078125,10.0578845215,0.1,0.0,0.0,0.0,0.1,0.0,0.0,0.0,0.1
1446041349974735873,126,1446041349971654891,robocape,2.01312585139,-7.02386672713,86.5204043335,0.0,10.0,0.0,0.0,0.0,10.0,0.0,0.0,0.0,10.0,-0.0446079482588,0.0213052887206,0.00958737992429,1.0,0.0,0.0,0.0,1.0,0.0,0.0,0.0,1.0,0.0215551757813,-0.0562829589844,10.0542919922,0.1,0.0,0.0,0.0,0.1,0.0,0.0,0.0,0.1
1446041350008734331,127,1446041350005693912,robocape,1.90836073522,-6.92693300963,85.8153965367,0.0,10.0,0.0,0.0,0.0,10.0,0.0,0.0,0.0,10.0,-0.0697748205601,0.0202400242846,0.0121173829599,1.0,0.0,0.0,0.0,1.0,0.0,0.0,0.0,1.0,0.0562829589844,-0.280217285156,10.0746496582,0.1,0.0,0.0,0.0,0.1,0.0,0.0,0.0,0.1
1446041350041257956,128,1446041350038187980,robocape,1.79894823111,-6.83476635634,85.1249435627,0.0,10.0,0.0,0.0,0.0,10.0,0.0,0.0,0.0,10.0,-0.0717721913776,0.0186421276306,0.0138484376684,1.0,0.0,0.0,0.0,1.0,0.0,0.0,0.0,1.0,0.01916015625,-0.372425537109,10.096204834,0.1,0.0,0.0,0.0,0.1,0.0,0.0,0.0,0.1
1446041350074768206,129,1446041350071753978,robocape,1.68803180394,-6.74326351739,84.4485611652,0.0,10.0,0.0,0.0,0.0,10.0,0.0,0.0,0.0,10.0,-0.0721716655411,0.0191747598486,0.015313176268,1.0,0.0,0.0,0.0,1.0,0.0,0.0,0.0,1.0,0.0179626464844,-0.368833007813,10.0686621094,0.1,0.0,0.0,0.0,0.1,0.0,0.0,0.0,0.1
1446041350108713790,130,1446041350105635881,robocape,1.56920784992,-6.65446614105,83.7854836981,0.0,10.0,0.0,0.0,0.0,10.0,0.0,0.0,0.0,10.0,-0.0760332491218,0.0186421276306,0.0162452826495,1.0,0.0,0.0,0.0,1.0,0.0,0.0,0.0,1.0,0.0299377441406,-0.385598144531,10.0638720703,0.1,0.0,0.0,0.0,0.1,0.0,0.0,0.0,0.1
1446041350141223706,131,1446041350138242959,robocape,1.44106280694,-6.56862284339,83.1354213111,0.0,10.0,0.0,0.0,0.0,10.0,0.0,0.0,0.0,10.0,-0.0806937810294,0.017976337358,0.017177389031,1.0,0.0,0.0,0.0,1.0,0.0,0.0,0.0,1.0,0.0155676269531,-0.372425537109,10.0662670898,0.1,0.0,0.0,0.0,0.1,0.0,0.0,0.0,0.1
1446041350174720290,132,1446041350171672105,robocape,1.29636067503,-6.48477015349,82.498325135,0.0,10.0,0.0,0.0,0.0,10.0,0.0,0.0,0.0,10.0,-0.0892158965177,0.0178431793035,0.0181094954125,1.0,0.0,0.0,0.0,1.0,0.0,0.0,0.0,1.0,0.0323327636719,-0.391585693359,10.0626745605,0.1,0.0,0.0,0.0,0.1,0.0,0.0,0.0,0.1
1446041350208702415,133,1446041350205157995,robocape,1.1281092911,-6.40423893507,81.8744341557,0.0,10.0,0.0,0.0,0.0,10.0,0.0,0.0,0.0,10.0,-0.101466437532,0.0170442309765,0.0194410759576,1.0,0.0,0.0,0.0,1.0,0.0,0.0,0.0,1.0,0.0299377441406,-0.401165771484,10.0770446777,0.1,0.0,0.0,0.0,0.1,0.0,0.0,0.0,0.1
1446041350241854207,134,1446041350238755941,robocape,0.922183873334,-6.32463100376,81.264766719,0.0,10.0,0.0,0.0,0.0,10.0,0.0,0.0,0.0,10.0,-0.121173829599,0.0175768631945,0.0215716048296,1.0,0.0,0.0,0.0,1.0,0.0,0.0,0.0,1.0,0.01916015625,-0.404758300781,10.0518969727,0.1,0.0,0.0,0.0,0.1,0.0,0.0,0.0,0.1
1446041350275046915,135,1446041350271743059,robocape,0.697401553394,-6.25046589587,80.658249047,0.0,10.0,0.0,0.0,0.0,10.0,0.0,0.0,0.0,10.0,-0.131959632013,0.015845808486,0.0146473859954,1.0,0.0,0.0,0.0,1.0,0.0,0.0,0.0,1.0,0.0215551757813,-0.522114257812,10.0650695801,0.1,0.0,0.0,0.0,0.1,0.0,0.0,0.0,0.1
1446041350308859457,136,1446041350305197000,robocape,0.498007587136,-6.18117444823,80.0643963935,0.0,10.0,0.0,0.0,0.0,10.0,0.0,0.0,0.0,10.0,-0.118643826563,0.0141147537774,0.0175768631945,1.0,0.0,0.0,0.0,1.0,0.0,0.0,0.0,1.0,0.0443078613281,-0.884959716797,10.0495019531,0.1,0.0,0.0,0.0,0.1,0.0,0.0,0.0,0.1
1446041350341404373,137,1446041350338350057,robocape,0.378201761163,-6.11066273596,79.4736181007,0.0,10.0,0.0,0.0,0.0,10.0,0.0,0.0,0.0,10.0,-0.0773648296668,0.0154463343225,0.0130494893414,1.0,0.0,0.0,0.0,1.0,0.0,0.0,0.0,1.0,0.05748046875,-0.992735595703,10.0471069336,0.1,0.0,0.0,0.0,0.1,0.0,0.0,0.0,0.1
1446041350374775498,138,1446041350371535062,robocape,0.355321382854,-6.03490626849,78.8860988331,0.0,10.0,0.0,0.0,0.0,10.0,0.0,0.0,0.0,10.0,-0.0266316109008,0.0186421276306,0.00892158965177,1.0,0.0,0.0,0.0,1.0,0.0,0.0,0.0,1.0,0.0407153320313,-1.04303100586,10.0219592285,0.1,0.0,0.0,0.0,0.1,0.0,0.0,0.0,0.1
1446041350408905748,139,1446041350405095100,robocape,0.433045210483,-5.95300405143,78.299780886,0.0,10.0,0.0,0.0,0.0,10.0,0.0,0.0,0.0,10.0,0.0262321367373,0.0221042370477,0.00306263525359,1.0,0.0,0.0,0.0,1.0,0.0,0.0,0.0,1.0,0.0538879394531,-1.01189575195,10.0506994629,0.1,0.0,0.0,0.0,0.1,0.0,0.0,0.0,0.1
1446041350441304915,140,1446041350438236951,robocape,0.612303084603,-5.86669421055,77.7158483144,0.0,10.0,0.0,0.0,0.0,10.0,0.0,0.0,0.0,10.0,0.0800279907569,0.0243679239742,-0.00159789665405,1.0,0.0,0.0,0.0,1.0,0.0,0.0,0.0,1.0,0.0586779785156,-0.925675048828,10.0794396973,0.1,0.0,0.0,0.0,0.1,0.0,0.0,0.0,0.1
1446041350474888748,141,1446041350471626996,robocape,0.839357443677,-5.77774198721,77.1387470258,0.0,10.0,0.0,0.0,0.0,10.0,0.0,0.0,0.0,10.0,0.10612696944,0.0255663464648,-0.0031957933081,1.0,0.0,0.0,0.0,1.0,0.0,0.0,0.0,1.0,0.0335302734375,-0.713715820313,10.0518969727,0.1,0.0,0.0,0.0,0.1,0.0,0.0,0.0,0.1
1446041350508785207,142,1446041350505353927,robocape,1.06895419084,-5.69110220784,76.5780601735,0.0,10.0,0.0,0.0,0.0,10.0,0.0,0.0,0.0,10.0,0.109189604693,0.0241016078652,0.00292947719909,1.0,0.0,0.0,0.0,1.0,0.0,0.0,0.0,1.0,0.0359252929688,-0.409548339844,10.0950073242,0.1,0.0,0.0,0.0,0.1,0.0,0.0,0.0,0.1
1446041350541423998,143,1446041350538307905,robocape,1.24959804179,-5.60634822004,76.0214155697,0.0,10.0,0.0,0.0,0.0,10.0,0.0,0.0,0.0,10.0,0.0841558904465,0.0231695014837,-0.00226368692657,1.0,0.0,0.0,0.0,1.0,0.0,0.0,0.0,1.0,0.0119750976563,-0.2682421875,10.0890197754,0.1,0.0,0.0,0.0,0.1,0.0,0.0,0.0,0.1
1446041350580754748,144,1446041350577596902,robocape,1.33989013861,-5.52410130228,75.4807825655,0.0,10.0,0.0,0.0,0.0,10.0,0.0,0.0,0.0,10.0,0.0379500455336,0.0221042370477,0.00199737081756,1.0,0.0,0.0,0.0,1.0,0.0,0.0,0.0,1.0,0.0215551757813,-0.245489501953,10.0650695801,0.1,0.0,0.0,0.0,0.1,0.0,0.0,0.0,0.1
1446041350610129457,145,1446041350606239080,robocape,1.37070437721,-5.44586239694,74.9559565864,0.0,10.0,0.0,0.0,0.0,10.0,0.0,0.0,0.0,10.0,0.00772316716123,0.0203731823391,0.00692421883421,1.0,0.0,0.0,0.0,1.0,0.0,0.0,0.0,1.0,0.0263452148438,-0.277822265625,10.0722546387,0.1,0.0,0.0,0.0,0.1,0.0,0.0,0.0,0.1
1446041350641187248,146,1446041350638206005,robocape,1.30827703074,-5.37157780632,74.4477719305,0.0,10.0,0.0,0.0,0.0,10.0,0.0,0.0,0.0,10.0,-0.0404800485692,0.0189084437396,0.0121173829599,1.0,0.0,0.0,0.0,1.0,0.0,0.0,0.0,1.0,0.0263452148438,-0.298179931641,10.060279541,0.1,0.0,0.0,0.0,0.1,0.0,0.0,0.0,0.1
1446041350674814457,147,1446041350671806097,robocape,1.17422638238,-5.30120669431,73.9534585113,0.0,10.0,0.0,0.0,0.0,10.0,0.0,0.0,0.0,10.0,-0.0777643038303,0.0175768631945,0.0157126504315,1.0,0.0,0.0,0.0,1.0,0.0,0.0,0.0,1.0,0.0431103515625,-0.36404296875,10.0794396973,0.1,0.0,0.0,0.0,0.1,0.0,0.0,0.0,0.1
1446041350708990540,148,1446041350705517053,robocape,1.0182200735,-5.23647918027,73.4666591732,0.0,10.0,0.0,0.0,0.0,10.0,0.0,0.0,0.0,10.0,-0.0894822126267,0.015313176268,0.015313176268,1.0,0.0,0.0,0.0,1.0,0.0,0.0,0.0,1.0,0.047900390625,-0.604742431641,10.0854272461,0.1,0.0,0.0,0.0,0.1,0.0,0.0,0.0,0.1
1446041350741315873,149,1446041350738323926,robocape,0.893307605675,-5.17059061768,72.9837098601,0.0,10.0,0.0,0.0,0.0,10.0,0.0,0.0,0.0,10.0,-0.0735032460862,0.0165115987585,0.0127831732324,1.0,0.0,0.0,0.0,1.0,0.0,0.0,0.0,1.0,0.0239501953125,-0.789158935547,10.0722546387,0.1,0.0,0.0,0.0,0.1,0.0,0.0,0.0,0.1
1446041350774762582,150,1446041350771704912,robocape,0.823988217615,-5.10378249015,72.5048632766,0.0,10.0,0.0,0.0,0.0,10.0,0.0,0.0,0.0,10.0,-0.0444747902043,0.01744370514,0.0109189604693,1.0,0.0,0.0,0.0,1.0,0.0,0.0,0.0,1.0,0.0550854492188,-0.914897460938,10.0483044434,0.1,0.0,0.0,0.0,0.1,0.0,0.0,0.0,0.1
1446041350809209332,151,1446041350805804014,robocape,0.833628086626,-5.032483156,72.0259599042,0.0,10.0,0.0,0.0,0.0,10.0,0.0,0.0,0.0,10.0,-0.0031957933081,0.0201068662301,0.00599211245268,1.0,0.0,0.0,0.0,1.0,0.0,0.0,0.0,1.0,0.067060546875,-0.961600341797,10.0375268555,0.1,0.0,0.0,0.0,0.1,0.0,0.0,0.0,0.1
1446041350841482748,152,1446041350838397979,robocape,0.940922186498,-4.95499990611,71.5491785494,0.0,10.0,0.0,0.0,0.0,10.0,0.0,0.0,0.0,10.0,0.0483363737849,0.0234358175927,0.00306263525359,1.0,0.0,0.0,0.0,1.0,0.0,0.0,0.0,1.0,0.0383203125,-0.911304931641,10.0698596191,0.1,0.0,0.0,0.0,0.1,0.0,0.0,0.0,0.1
1446041350874837082,153,1446041350871757984,robocape,1.10402444255,-4.8764793132,71.0754980567,0.0,10.0,0.0,0.0,0.0,10.0,0.0,0.0,0.0,10.0,0.0781637779938,0.0239684498107,0.000532632218016,1.0,0.0,0.0,0.0,1.0,0.0,0.0,0.0,1.0,0.0347277832031,-0.905317382813,10.0566870117,0.1,0.0,0.0,0.0,0.1,0.0,0.0,0.0,0.1
1446041350908689123,154,1446041350905596971,robocape,1.28634095095,-4.79763233604,70.6063980814,0.0,10.0,0.0,0.0,0.0,10.0,0.0,0.0,0.0,10.0,0.0889495804086,0.0241016078652,-0.00119842249054,1.0,0.0,0.0,0.0,1.0,0.0,0.0,0.0,1.0,0.00718505859375,-0.559237060547,10.0650695801,0.1,0.0,0.0,0.0,0.1,0.0,0.0,0.0,0.1
1446041350941340707,155,1446041350938292980,robocape,1.43325932065,-4.72170024085,70.1507226381,0.0,10.0,0.0,0.0,0.0,10.0,0.0,0.0,0.0,10.0,0.0715058752686,0.0226368692657,0.0034621094171,1.0,0.0,0.0,0.0,1.0,0.0,0.0,0.0,1.0,0.0119750976563,-0.341290283203,10.055489502,0.1,0.0,0.0,0.0,0.1,0.0,0.0,0.0,0.1
1446041350974806582,156,1446041350971755027,robocape,1.50744586654,-4.64853884496,69.7057873161,0.0,10.0,0.0,0.0,0.0,10.0,0.0,0.0,0.0,10.0,0.034088461953,0.0214384467751,0.00559263828917,1.0,0.0,0.0,0.0,1.0,0.0,0.0,0.0,1.0,0.0179626464844,-0.283809814453,10.0626745605,0.1,0.0,0.0,0.0,0.1,0.0,0.0,0.0,0.1
1446041351008301790,157,1446041351005269050,robocape,1.50745678174,-4.57868469779,69.2726322533,0.0,10.0,0.0,0.0,0.0,10.0,0.0,0.0,0.0,10.0,-0.00426105774413,0.0201068662301,0.00865527354276,1.0,0.0,0.0,0.0,1.0,0.0,0.0,0.0,1.0,0.0227526855469,-0.293389892578,10.0878222656,0.1,0.0,0.0,0.0,0.1,0.0,0.0,0.0,0.1
1446041351041543749,158,1446041351038552999,robocape,1.42230344204,-4.51293008635,68.8494929708,0.0,10.0,0.0,0.0,0.0,10.0,0.0,0.0,0.0,10.0,-0.0487358479485,0.0185089695761,0.0103863282513,1.0,0.0,0.0,0.0,1.0,0.0,0.0,0.0,1.0,0.00598754882813,-0.338895263672,10.0542919922,0.1,0.0,0.0,0.0,0.1,0.0,0.0,0.0,0.1
1446041351075021249,159,1446041351072016954,robocape,1.31290748672,-4.45171812649,68.4330754327,0.0,10.0,0.0,0.0,0.0,10.0,0.0,0.0,0.0,10.0,-0.0615190211808,0.016644756813,0.0106526443603,1.0,0.0,0.0,0.0,1.0,0.0,0.0,0.0,1.0,0.0323327636719,-0.573607177734,10.0447119141,0.1,0.0,0.0,0.0,0.1,0.0,0.0,0.0,0.1
1446041351108549207,160,1446041351105508089,robocape,1.22341417203,-4.38931625793,68.0226555346,0.0,10.0,0.0,0.0,0.0,10.0,0.0,0.0,0.0,10.0,-0.0511326929295,0.017710021249,0.0109189604693,1.0,0.0,0.0,0.0,1.0,0.0,0.0,0.0,1.0,0.0215551757813,-0.767603759766,10.0447119141,0.1,0.0,0.0,0.0,0.1,0.0,0.0,0.0,0.1
1446041351141360582,161,1446041351138376951,robocape,1.17886923536,-4.32603839425,67.6166662684,0.0,10.0,0.0,0.0,0.0,10.0,0.0,0.0,0.0,10.0,-0.0275637172823,0.0185089695761,0.0103863282513,1.0,0.0,0.0,0.0,1.0,0.0,0.0,0.0,1.0,0.0455053710938,-0.845441894531,10.039921875,0.1,0.0,0.0,0.0,0.1,0.0,0.0,0.0,0.1
1446041351174874290,162,1446041351171844959,robocape,1.19006683048,-4.26193590407,67.2106758022,0.0,10.0,0.0,0.0,0.0,10.0,0.0,0.0,0.0,10.0,0.00159789665405,0.0191747598486,0.0066579027252,1.0,0.0,0.0,0.0,1.0,0.0,0.0,0.0,1.0,0.0502954101563,-0.856219482422,10.060279541,0.1,0.0,0.0,0.0,0.1,0.0,0.0,0.0,0.1
1446041351208310207,163,1446041351205281019,robocape,1.25706169895,-4.19328157724,66.806007378,0.0,10.0,0.0,0.0,0.0,10.0,0.0,0.0,0.0,10.0,0.0310258266994,0.0217047628841,0.00386158358061,1.0,0.0,0.0,0.0,1.0,0.0,0.0,0.0,1.0,0.0359252929688,-0.816701660156,10.0542919922,0.1,0.0,0.0,0.0,0.1,0.0,0.0,0.0,0.1
1446041351241339290,164,1446041351238322973,robocape,1.37411847458,-4.12220068202,66.4038423585,0.0,10.0,0.0,0.0,0.0,10.0,0.0,0.0,0.0,10.0,0.0576574376002,0.0230363434292,0.00199737081756,1.0,0.0,0.0,0.0,1.0,0.0,0.0,0.0,1.0,0.0311352539063,-0.717308349609,10.0626745605,0.1,0.0,0.0,0.0,0.1,0.0,0.0,0.0,0.1
1446041351274707790,165,1446041351271702051,robocape,1.50227702507,-4.05227429548,66.0098842827,0.0,10.0,0.0,0.0,0.0,10.0,0.0,0.0,0.0,10.0,0.0641821822709,0.0225037112112,0.00412789968962,1.0,0.0,0.0,0.0,1.0,0.0,0.0,0.0,1.0,0.0203576660156,-0.59396484375,10.0626745605,0.1,0.0,0.0,0.0,0.1,0.0,0.0,0.0,0.1
1446041351308200249,166,1446041351305105924,robocape,1.59583858068,-3.98544055095,65.6233956545,0.0,10.0,0.0,0.0,0.0,10.0,0.0,0.0,0.0,10.0,0.0466053190764,0.0210389726116,0.00532632218016,1.0,0.0,0.0,0.0,1.0,0.0,0.0,0.0,1.0,0.0215551757813,-0.324525146484,10.0830322266,0.1,0.0,0.0,0.0,0.1,0.0,0.0,0.0,0.1
1446041351341480749,167,1446041351338423013,robocape,1.62136796378,-3.92144850352,65.2448034186,0.0,10.0,0.0,0.0,0.0,10.0,0.0,0.0,0.0,10.0,0.0113184346328,0.0198405501211,0.00652474467069,1.0,0.0,0.0,0.0,1.0,0.0,0.0,0.0,1.0,0.0239501953125,-0.298179931641,10.060279541,0.1,0.0,0.0,0.0,0.1,0.0,0.0,0.0,0.1
1446041351374822124,168,1446041351371737003,robocape,1.57891915213,-3.86050663187,64.8748551592,0.0,10.0,0.0,0.0,0.0,10.0,0.0,0.0,0.0,10.0,-0.0241016078652,0.0186421276306,0.00838895743375,1.0,0.0,0.0,0.0,1.0,0.0,0.0,0.0,1.0,0.009580078125,-0.396375732422,10.055489502,0.1,0.0,0.0,0.0,0.1,0.0,0.0,0.0,0.1
1446041351408835082,169,1446041351405781030,robocape,1.50113485845,-3.8021301679,64.5114265307,0.0,10.0,0.0,0.0,0.0,10.0,0.0,0.0,0.0,10.0,-0.0426105774413,0.017710021249,0.00918790576077,1.0,0.0,0.0,0.0,1.0,0.0,0.0,0.0,1.0,0.028740234375,-0.595162353516,10.0662670898,0.1,0.0,0.0,0.0,0.1,0.0,0.0,0.0,0.1
1446041351441787415,170,1446041351438688993,robocape,1.43874647269,-3.74391665441,64.1544135889,0.0,10.0,0.0,0.0,0.0,10.0,0.0,0.0,0.0,10.0,-0.0344879361165,0.017976337358,0.0105194863058,1.0,0.0,0.0,0.0,1.0,0.0,0.0,0.0,1.0,0.028740234375,-0.724493408203,10.0566870117,0.1,0.0,0.0,0.0,0.1,0.0,0.0,0.0,0.1
1446041351474817249,171,1446041351471767902,robocape,1.4096240518,-3.68495108317,63.8007722361,0.0,10.0,0.0,0.0,0.0,10.0,0.0,0.0,0.0,10.0,-0.0170442309765,0.0186421276306,0.00985369603329,1.0,0.0,0.0,0.0,1.0,0.0,0.0,0.0,1.0,0.0490979003906,-0.779578857422,10.0518969727,0.1,0.0,0.0,0.0,0.1,0.0,0.0,0.0,0.1
1446041351508558249,172,1446041351505408048,robocape,1.4239064424,-3.62330357366,63.4480014805,0.0,10.0,0.0,0.0,0.0,10.0,0.0,0.0,0.0,10.0,0.00572579634367,0.0202400242846,0.00745685105222,1.0,0.0,0.0,0.0,1.0,0.0,0.0,0.0,1.0,0.0514929199219,-0.786763916016,10.055489502,0.1,0.0,0.0,0.0,0.1,0.0,0.0,0.0,0.1
1446041351541402874,173,1446041351538305997,robocape,1.48014662077,-3.56011825917,63.0954915754,0.0,10.0,0.0,0.0,0.0,10.0,0.0,0.0,0.0,10.0,0.0278300333913,0.0211721306661,0.00466053190764,1.0,0.0,0.0,0.0,1.0,0.0,0.0,0.0,1.0,0.0347277832031,-0.738863525391,10.0590820312,0.1,0.0,0.0,0.0,0.1,0.0,0.0,0.0,0.1
1446041351580712207,174,1446041351577661991,robocape,1.56769089432,-3.49531811593,62.7440772666,0.0,10.0,0.0,0.0,0.0,10.0,0.0,0.0,0.0,10.0,0.0444747902043,0.0221042370477,0.00239684498107,1.0,0.0,0.0,0.0,1.0,0.0,0.0,0.0,1.0,0.0263452148438,-0.646655273438,10.0638720703,0.1,0.0,0.0,0.0,0.1,0.0,0.0,0.0,0.1
1446041351608937165,175,1446041351605496883,robocape,1.65922766728,-3.43155081681,62.4013659586,0.0,10.0,0.0,0.0,0.0,10.0,0.0,0.0,0.0,10.0,0.0471379512944,0.0217047628841,0.00545948023466,1.0,0.0,0.0,0.0,1.0,0.0,0.0,0.0,1.0,0.0299377441406,-0.549656982422,10.0674645996,0.1,0.0,0.0,0.0,0.1,0.0,0.0,0.0,0.1
1446041351651088041,176,1446041351647907018,robocape,1.71124036687,-3.37019578033,62.0646391481,0.0,10.0,0.0,0.0,0.0,10.0,0.0,0.0,0.0,10.0,0.0267647689553,0.0206394984481,0.00625842856169,1.0,0.0,0.0,0.0,1.0,0.0,0.0,0.0,1.0,0.0167651367188,-0.393980712891,10.0842297363,0.1,0.0,0.0,0.0,0.1,0.0,0.0,0.0,0.1
1446041351675497499,177,1446041351672405004,robocape,1.70769306906,-3.31066916697,61.7347885531,0.0,10.0,0.0,0.0,0.0,10.0,0.0,0.0,0.0,10.0,-0.00213052887206,0.0199737081756,0.00759000910673,1.0,0.0,0.0,0.0,1.0,0.0,0.0,0.0,1.0,0.0203576660156,-0.372425537109,10.0662670898,0.1,0.0,0.0,0.0,0.1,0.0,0.0,0.0,0.1
1446041351708708041,178,1446041351705437898,robocape,1.66110090848,-3.25329637266,61.4105648747,0.0,10.0,0.0,0.0,0.0,10.0,0.0,0.0,0.0,10.0,-0.0246342400832,0.0191747598486,0.00825579937925,1.0,0.0,0.0,0.0,1.0,0.0,0.0,0.0,1.0,0.0299377441406,-0.500559082031,10.0578845215,0.1,0.0,0.0,0.0,0.1,0.0,0.0,0.0,0.1
1446041351741358582,179,1446041351738332986,robocape,1.60420146845,-3.19934578438,61.0932256332,0.0,10.0,0.0,0.0,0.0,10.0,0.0,0.0,0.0,10.0,-0.0299605622634,0.017710021249,0.0102531701968,1.0,0.0,0.0,0.0,1.0,0.0,0.0,0.0,1.0,0.0215551757813,-0.622705078125,10.0495019531,0.1,0.0,0.0,0.0,0.1,0.0,0.0,0.0,0.1
1446041351774752374,180,1446041351771714925,robocape,1.56394237924,-3.14637162019,60.7780789117,0.0,10.0,0.0,0.0,0.0,10.0,0.0,0.0,0.0,10.0,-0.0213052887206,0.01744370514,0.00918790576077,1.0,0.0,0.0,0.0,1.0,0.0,0.0,0.0,1.0,0.0359252929688,-0.702938232422,10.0518969727,0.1,0.0,0.0,0.0,0.1,0.0,0.0,0.0,0.1
1446041351808522332,181,1446041351805156946,robocape,1.55166680729,-3.0899718548,60.4643376434,0.0,10.0,0.0,0.0,0.0,10.0,0.0,0.0,0.0,10.0,-0.0066579027252,0.0194410759576,0.00759000910673,1.0,0.0,0.0,0.0,1.0,0.0,0.0,0.0,1.0,0.0323327636719,-0.725690917969,10.0794396973,0.1,0.0,0.0,0.0,0.1,0.0,0.0,0.0,0.1
1446041351841449791,182,1446041351838366985,robocape,1.58013071426,-3.03232125719,60.1519210425,0.0,10.0,0.0,0.0,0.0,10.0,0.0,0.0,0.0,10.0,0.0147805440499,0.0202400242846,0.00612527050718,1.0,0.0,0.0,0.0,1.0,0.0,0.0,0.0,1.0,0.0419128417969,-0.729283447266,10.0542919922,0.1,0.0,0.0,0.0,0.1,0.0,0.0,0.0,0.1
1446041351874843499,183,1446041351871742963,robocape,1.63669808086,-2.97463264194,59.8414738766,0.0,10.0,0.0,0.0,0.0,10.0,0.0,0.0,0.0,10.0,0.0296942461544,0.0203731823391,0.00506000607115,1.0,0.0,0.0,0.0,1.0,0.0,0.0,0.0,1.0,0.0335302734375,-0.690963134766,10.0794396973,0.1,0.0,0.0,0.0,0.1,0.0,0.0,0.0,0.1
1446041351908677916,184,1446041351904958009,robocape,1.70830803016,-2.91485328474,59.5333656773,0.0,10.0,0.0,0.0,0.0,10.0,0.0,0.0,0.0,10.0,0.0378168874791,0.0215716048296,0.00412789968962,1.0,0.0,0.0,0.0,1.0,0.0,0.0,0.0,1.0,0.028740234375,-0.621507568359,10.0686621094,0.1,0.0,0.0,0.0,0.1,0.0,0.0,0.0,0.1
1446041351941560624,185,1446041351938477039,robocape,1.77208808281,-2.8579237084,59.2320281436,0.0,10.0,0.0,0.0,0.0,10.0,0.0,0.0,0.0,10.0,0.034088461953,0.0202400242846,0.00625842856169,1.0,0.0,0.0,0.0,1.0,0.0,0.0,0.0,1.0,0.0275427246094,-0.500559082031,10.0590820312,0.1,0.0,0.0,0.0,0.1,0.0,0.0,0.0,0.1
1446041351974792832,186,1446041351971707105,robocape,1.80136188908,-2.80138390703,58.93625752,0.0,10.0,0.0,0.0,0.0,10.0,0.0,0.0,0.0,10.0,0.0162452826495,0.0202400242846,0.00732369299772,1.0,0.0,0.0,0.0,1.0,0.0,0.0,0.0,1.0,0.0215551757813,-0.4215234375,10.0542919922,0.1,0.0,0.0,0.0,0.1,0.0,0.0,0.0,0.1
1446041352008619749,187,1446041352004951000,robocape,1.7864688246,-2.74736140698,58.6456194016,0.0,10.0,0.0,0.0,0.0,10.0,0.0,0.0,0.0,10.0,-0.0067910607797,0.0191747598486,0.00812264132474,1.0,0.0,0.0,0.0,1.0,0.0,0.0,0.0,1.0,0.0227526855469,-0.445473632813,10.0818347168,0.1,0.0,0.0,0.0,0.1,0.0,0.0,0.0,0.1
1446041352041599332,188,1446041352038583040,robocape,1.74335521545,-2.69461369285,58.3592883683,0.0,10.0,0.0,0.0,0.0,10.0,0.0,0.0,0.0,10.0,-0.0215716048296,0.0187752856851,0.00852211548825,1.0,0.0,0.0,0.0,1.0,0.0,0.0,0.0,1.0,0.0359252929688,-0.559237060547,10.0483044434,0.1,0.0,0.0,0.0,0.1,0.0,0.0,0.0,0.1
1446041352076894916,189,1446041352073868036,robocape,1.70532921962,-2.64308255715,58.076588841,0.0,10.0,0.0,0.0,0.0,10.0,0.0,0.0,0.0,10.0,-0.0189084437396,0.0183758115215,0.00878843159726,1.0,0.0,0.0,0.0,1.0,0.0,0.0,0.0,1.0,0.0335302734375,-0.677790527344,10.060279541,0.1,0.0,0.0,0.0,0.1,0.0,0.0,0.0,0.1
1446041352108956957,190,1446041352105160951,robocape,1.68860227179,-2.58837763066,57.7966617727,0.0,10.0,0.0,0.0,0.0,10.0,0.0,0.0,0.0,10.0,-0.00772316716123,0.0202400242846,0.00852211548825,1.0,0.0,0.0,0.0,1.0,0.0,0.0,0.0,1.0,0.0431103515625,-0.705333251953,10.060279541,0.1,0.0,0.0,0.0,0.1,0.0,0.0,0.0,0.1
1446041352141513457,191,1446041352138504028,robocape,1.69875841217,-2.53470575021,57.5175055196,0.0,10.0,0.0,0.0,0.0,10.0,0.0,0.0,0.0,10.0,0.00639158661619,0.0198405501211,0.00705737688871,1.0,0.0,0.0,0.0,1.0,0.0,0.0,0.0,1.0,0.0395178222656,-0.702938232422,10.0542919922,0.1,0.0,0.0,0.0,0.1,0.0,0.0,0.0,0.1
1446041352175085249,192,1446041352172010898,robocape,1.73291951975,-2.48072710107,57.2385879809,0.0,10.0,0.0,0.0,0.0,10.0,0.0,0.0,0.0,10.0,0.0190416017941,0.0201068662301,0.00519316412565,1.0,0.0,0.0,0.0,1.0,0.0,0.0,0.0,1.0,0.0335302734375,-0.677790527344,10.0435144043,0.1,0.0,0.0,0.0,0.1,0.0,0.0,0.0,0.1
1446041352208540041,193,1446041352204787015,robocape,1.78433441376,-2.4259185048,56.9609483652,0.0,10.0,0.0,0.0,0.0,10.0,0.0,0.0,0.0,10.0,0.0282295075548,0.0206394984481,0.00399474163512,1.0,0.0,0.0,0.0,1.0,0.0,0.0,0.0,1.0,0.0383203125,-0.644260253906,10.0506994629,0.1,0.0,0.0,0.0,0.1,0.0,0.0,0.0,0.1
1446041352241491999,194,1446041352238473892,robocape,1.83470959865,-2.37065340729,56.6890425955,0.0,10.0,0.0,0.0,0.0,10.0,0.0,0.0,0.0,10.0,0.0279631914458,0.0210389726116,0.00572579634367,1.0,0.0,0.0,0.0,1.0,0.0,0.0,0.0,1.0,0.0311352539063,-0.554447021484,10.0411193848,0.1,0.0,0.0,0.0,0.1,0.0,0.0,0.0,0.1
1446041352274776749,195,1446041352271770954,robocape,1.8581172147,-2.31749038537,56.4208259882,0.0,10.0,0.0,0.0,0.0,10.0,0.0,0.0,0.0,10.0,0.0139815957229,0.0201068662301,0.00599211245268,1.0,0.0,0.0,0.0,1.0,0.0,0.0,0.0,1.0,0.0239501953125,-0.471818847656,10.0830322266,0.1,0.0,0.0,0.0,0.1,0.0,0.0,0.0,0.1
1446041352308973124,196,1446041352305048942,robocape,1.84749424419,-2.26604382391,56.1582927147,0.0,10.0,0.0,0.0,0.0,10.0,0.0,0.0,0.0,10.0,-0.00372842552611,0.0194410759576,0.00759000910673,1.0,0.0,0.0,0.0,1.0,0.0,0.0,0.0,1.0,0.0311352539063,-0.496966552734,10.0746496582,0.1,0.0,0.0,0.0,0.1,0.0,0.0,0.0,0.1
1446041352341735999,197,1446041352338608026,robocape,1.81574477173,-2.21553680687,55.8996649074,0.0,10.0,0.0,0.0,0.0,10.0,0.0,0.0,0.0,10.0,-0.0147805440499,0.0191747598486,0.00812264132474,1.0,0.0,0.0,0.0,1.0,0.0,0.0,0.0,1.0,0.028740234375,-0.576002197266,10.0566870117,0.1,0.0,0.0,0.0,0.1,0.0,0.0,0.0,0.1
1446041352374885166,198,1446041352371812105,robocape,1.78622073553,-2.16697010328,55.6453800221,0.0,10.0,0.0,0.0,0.0,10.0,0.0,0.0,0.0,10.0,-0.0135821215594,0.0183758115215,0.00918790576077,1.0,0.0,0.0,0.0,1.0,0.0,0.0,0.0,1.0,0.0431103515625,-0.638272705078,10.0566870117,0.1,0.0,0.0,0.0,0.1,0.0,0.0,0.0,0.1
1446041352408431541,199,1446041352404776096,robocape,1.7710297013,-2.11714389991,55.3910084201,0.0,10.0,0.0,0.0,0.0,10.0,0.0,0.0,0.0,10.0,-0.00612527050718,0.0191747598486,0.00732369299772,1.0,0.0,0.0,0.0,1.0,0.0,0.0,0.0,1.0,0.028740234375,-0.694555664063,10.0447119141,0.1,0.0,0.0,0.0,0.1,0.0,0.0,0.0,0.1
1446041352441725958,200,1446041352438662052,robocape,1.78242710596,-2.06603875423,55.1379993191,0.0,10.0,0.0,0.0,0.0,10.0,0.0,0.0,0.0,10.0,0.00785632521573,0.0199737081756,0.00652474467069,1.0,0.0,0.0,0.0,1.0,0.0,0.0,0.0,1.0,0.0299377441406,-0.693358154297,10.0566870117,0.1,0.0,0.0,0.0,0.1,0.0,0.0,0.0,0.1
1446041352474800416,201,1446041352471748113,robocape,1.8144712352,-2.01387090142,54.8863801076,0.0,10.0,0.0,0.0,0.0,10.0,0.0,0.0,0.0,10.0,0.0187752856851,0.0206394984481,0.00572579634367,1.0,0.0,0.0,0.0,1.0,0.0,0.0,0.0,1.0,0.0299377441406,-0.677790527344,10.0638720703,0.1,0.0,0.0,0.0,0.1,0.0,0.0,0.0,0.1
1446041352508336833,202,1446041352504826068,robocape,1.85970676827,-1.96265902064,54.6367202951,0.0,10.0,0.0,0.0,0.0,10.0,0.0,0.0,0.0,10.0,0.0258326625738,0.0202400242846,0.00532632218016,1.0,0.0,0.0,0.0,1.0,0.0,0.0,0.0,1.0,0.028740234375,-0.611927490234,10.0578845215,0.1,0.0,0.0,0.0,0.1,0.0,0.0,0.0,0.1
1446041352541464374,203,1446041352538348913,robocape,1.90026132185,-1.91095542937,54.3912100948,0.0,10.0,0.0,0.0,0.0,10.0,0.0,0.0,0.0,10.0,0.0235689756472,0.0206394984481,0.00625842856169,1.0,0.0,0.0,0.0,1.0,0.0,0.0,0.0,1.0,0.0215551757813,-0.513731689453,10.0770446777,0.1,0.0,0.0,0.0,0.1,0.0,0.0,0.0,0.1
1446041352580351458,204,1446041352577048063,robocape,1.90959609489,-1.861113203,54.1497687959,0.0,10.0,0.0,0.0,0.0,10.0,0.0,0.0,0.0,10.0,0.00732369299772,0.0198405501211,0.00705737688871,1.0,0.0,0.0,0.0,1.0,0.0,0.0,0.0,1.0,0.0323327636719,-0.484991455078,10.075847168,0.1,0.0,0.0,0.0,0.1,0.0,0.0,0.0,0.1
1446041352608542958,205,1446041352605130910,robocape,1.89849019609,-1.81340886825,53.9122164559,0.0,10.0,0.0,0.0,0.0,10.0,0.0,0.0,0.0,10.0,-0.0033289513626,0.0189084437396,0.00785632521573,1.0,0.0,0.0,0.0,1.0,0.0,0.0,0.0,1.0,0.0299377441406,-0.51732421875,10.0830322266,0.1,0.0,0.0,0.0,0.1,0.0,0.0,0.0,0.1
1446041352641440208,206,1446041352638430118,robocape,1.87111805334,-1.76505068534,53.6777452509,0.0,10.0,0.0,0.0,0.0,10.0,0.0,0.0,0.0,10.0,-0.0118510668509,0.0194410759576,0.00812264132474,1.0,0.0,0.0,0.0,1.0,0.0,0.0,0.0,1.0,0.0119750976563,-0.576002197266,10.0578845215,0.1,0.0,0.0,0.0,0.1,0.0,0.0,0.0,0.1
1446041352674615583,207,1446041352671624898,robocape,1.85156942082,-1.71932663358,53.4469643035,0.0,10.0,0.0,0.0,0.0,10.0,0.0,0.0,0.0,10.0,-0.00772316716123,0.018242653467,0.00905474770627,1.0,0.0,0.0,0.0,1.0,0.0,0.0,0.0,1.0,0.0251477050781,-0.655037841797,10.055489502,0.1,0.0,0.0,0.0,0.1,0.0,0.0,0.0,0.1
1446041352708273958,208,1446041352704929113,robocape,1.84902939202,-1.67155338644,53.2172825695,0.0,10.0,0.0,0.0,0.0,10.0,0.0,0.0,0.0,10.0,0.00119842249054,0.0194410759576,0.00825579937925,1.0,0.0,0.0,0.0,1.0,0.0,0.0,0.0,1.0,0.0371228027344,-0.677790527344,10.0662670898,0.1,0.0,0.0,0.0,0.1,0.0,0.0,0.0,0.1
1446041352741587916,209,1446041352738569974,robocape,1.86502447808,-1.62240160466,52.9866144168,0.0,10.0,0.0,0.0,0.0,10.0,0.0,0.0,0.0,10.0,0.0109189604693,0.0202400242846,0.00612527050718,1.0,0.0,0.0,0.0,1.0,0.0,0.0,0.0,1.0,0.0275427246094,-0.662222900391,10.096204834,0.1,0.0,0.0,0.0,0.1,0.0,0.0,0.0,0.1
1446041352774673291,210,1446041352771661996,robocape,1.89711498658,-1.57316954951,52.7569586602,0.0,10.0,0.0,0.0,0.0,10.0,0.0,0.0,0.0,10.0,0.0194410759576,0.0203731823391,0.00532632218016,1.0,0.0,0.0,0.0,1.0,0.0,0.0,0.0,1.0,0.0371228027344,-0.637075195313,10.0830322266,0.1,0.0,0.0,0.0,0.1,0.0,0.0,0.0,0.1
1446041352808340458,211,1446041352804899930,robocape,1.93221085784,-1.52394300273,52.5312536016,0.0,10.0,0.0,0.0,0.0,10.0,0.0,0.0,0.0,10.0,0.0211721306661,0.0205063403936,0.00639158661619,1.0,0.0,0.0,0.0,1.0,0.0,0.0,0.0,1.0,0.01916015625,-0.579594726562,10.0686621094,0.1,0.0,0.0,0.0,0.1,0.0,0.0,0.0,0.1
1446041352841798083,212,1446041352838690996,robocape,1.94934715402,-1.47573379141,52.308174987,0.0,10.0,0.0,0.0,0.0,10.0,0.0,0.0,0.0,10.0,0.0118510668509,0.0201068662301,0.00652474467069,1.0,0.0,0.0,0.0,1.0,0.0,0.0,0.0,1.0,0.0251477050781,-0.514929199219,10.0578845215,0.1,0.0,0.0,0.0,0.1,0.0,0.0,0.0,0.1
1446041352874765499,213,1446041352871686935,robocape,1.94400250168,-1.42887091074,52.0889320556,0.0,10.0,0.0,0.0,0.0,10.0,0.0,0.0,0.0,10.0,0.000133158054504,0.0195742340121,0.00745685105222,1.0,0.0,0.0,0.0,1.0,0.0,0.0,0.0,1.0,0.0359252929688,-0.507744140625,10.0626745605,0.1,0.0,0.0,0.0,0.1,0.0,0.0,0.0,0.1
1446041352908499958,214,1446041352905061006,robocape,1.92393926808,-1.38330909585,51.8715588946,0.0,10.0,0.0,0.0,0.0,10.0,0.0,0.0,0.0,10.0,-0.00759000910673,0.0190416017941,0.00719053494321,1.0,0.0,0.0,0.0,1.0,0.0,0.0,0.0,1.0,0.0407153320313,-0.576002197266,10.1033898926,0.1,0.0,0.0,0.0,0.1,0.0,0.0,0.0,0.1
1446041352941757374,215,1446041352938684940,robocape,1.90464651048,-1.33676563091,51.6563707901,0.0,10.0,0.0,0.0,0.0,10.0,0.0,0.0,0.0,10.0,-0.00719053494321,0.0197073920666,0.00719053494321,1.0,0.0,0.0,0.0,1.0,0.0,0.0,0.0,1.0,0.0263452148438,-0.639470214844,10.0818347168,0.1,0.0,0.0,0.0,0.1,0.0,0.0,0.0,0.1
1446041352974757874,216,1446041352971672058,robocape,1.89929213717,-1.29098262979,51.4431623575,0.0,10.0,0.0,0.0,0.0,10.0,0.0,0.0,0.0,10.0,0.000133158054504,0.0194410759576,0.00719053494321,1.0,0.0,0.0,0.0,1.0,0.0,0.0,0.0,1.0,0.028740234375,-0.644260253906,10.060279541,0.1,0.0,0.0,0.0,0.1,0.0,0.0,0.0,0.1
1446041353008368666,217,1446041353004906892,robocape,1.90939191479,-1.2448624781,51.230288612,0.0,10.0,0.0,0.0,0.0,10.0,0.0,0.0,0.0,10.0,0.00825579937925,0.0197073920666,0.00612527050718,1.0,0.0,0.0,0.0,1.0,0.0,0.0,0.0,1.0,0.0311352539063,-0.663420410156,10.0590820312,0.1,0.0,0.0,0.0,0.1,0.0,0.0,0.0,0.1
1446041353041332291,218,1446041353038311004,robocape,1.93656654854,-1.19770060324,51.0204272275,0.0,10.0,0.0,0.0,0.0,10.0,0.0,0.0,0.0,10.0,0.0173105470855,0.0203731823391,0.0067910607797,1.0,0.0,0.0,0.0,1.0,0.0,0.0,0.0,1.0,0.0299377441406,-0.650247802734,10.0566870117,0.1,0.0,0.0,0.0,0.1,0.0,0.0,0.0,0.1
1446041353085355291,219,1446041353081957101,robocape,1.96433444429,-1.14971256449,50.8122270673,0.0,10.0,0.0,0.0,0.0,10.0,0.0,0.0,0.0,10.0,0.017710021249,0.0209058145571,0.00652474467069,1.0,0.0,0.0,0.0,1.0,0.0,0.0,0.0,1.0,0.047900390625,-0.583187255859,10.0818347168,0.1,0.0,0.0,0.0,0.1,0.0,0.0,0.0,0.1
1446041353108723083,220,1446041353105321884,robocape,1.97899421459,-1.10324072809,50.6067229717,0.0,10.0,0.0,0.0,0.0,10.0,0.0,0.0,0.0,10.0,0.0109189604693,0.0202400242846,0.00692421883421,1.0,0.0,0.0,0.0,1.0,0.0,0.0,0.0,1.0,0.0359252929688,-0.523311767578,10.055489502,0.1,0.0,0.0,0.0,0.1,0.0,0.0,0.0,0.1
1446041353141549166,221,1446041353138441085,robocape,1.9760537837,-1.05880781317,50.4036852585,0.0,10.0,0.0,0.0,0.0,10.0,0.0,0.0,0.0,10.0,0.00173105470855,0.0193079179031,0.00719053494321,1.0,0.0,0.0,0.0,1.0,0.0,0.0,0.0,1.0,0.0395178222656,-0.532891845703,10.0590820312,0.1,0.0,0.0,0.0,0.1,0.0,0.0,0.0,0.1
1446041353174711750,222,1446041353171681880,robocape,1.96015789614,-1.01336344149,50.2025188121,0.0,10.0,0.0,0.0,0.0,10.0,0.0,0.0,0.0,10.0,-0.00506000607115,0.0199737081756,0.00705737688871,1.0,0.0,0.0,0.0,1.0,0.0,0.0,0.0,1.0,0.0443078613281,-0.584384765625,10.0566870117,0.1,0.0,0.0,0.0,0.1,0.0,0.0,0.0,0.1
1446041353208057541,223,1446041353204828023,robocape,1.94525526635,-0.968462385101,50.0042706605,0.0,10.0,0.0,0.0,0.0,10.0,0.0,0.0,0.0,10.0,-0.00452737385313,0.0198405501211,0.00772316716123,1.0,0.0,0.0,0.0,1.0,0.0,0.0,0.0,1.0,0.0347277832031,-0.634680175781,10.0566870117,0.1,0.0,0.0,0.0,0.1,0.0,0.0,0.0,0.1
1446041353241717083,224,1446041353238260984,robocape,1.94482491746,-0.922981057875,49.8065500833,0.0,10.0,0.0,0.0,0.0,10.0,0.0,0.0,0.0,10.0,0.00306263525359,0.0202400242846,0.00692421883421,1.0,0.0,0.0,0.0,1.0,0.0,0.0,0.0,1.0,0.0347277832031,-0.662222900391,10.0674645996,0.1,0.0,0.0,0.0,0.1,0.0,0.0,0.0,0.1
1446041353275009208,225,1446041353271940946,robocape,1.95879824737,-0.877417265108,49.6097463005,0.0,10.0,0.0,0.0,0.0,10.0,0.0,0.0,0.0,10.0,0.0106526443603,0.0203731823391,0.00639158661619,1.0,0.0,0.0,0.0,1.0,0.0,0.0,0.0,1.0,0.0359252929688,-0.650247802734,10.0782421875,0.1,0.0,0.0,0.0,0.1,0.0,0.0,0.0,0.1
1446041353307978833,226,1446041353304763078,robocape,1.98199840341,-0.832342373625,49.4161618244,0.0,10.0,0.0,0.0,0.0,10.0,0.0,0.0,0.0,10.0,0.015579492377,0.0202400242846,0.00732369299772,1.0,0.0,0.0,0.0,1.0,0.0,0.0,0.0,1.0,0.0311352539063,-0.599952392578,10.0710571289,0.1,0.0,0.0,0.0,0.1,0.0,0.0,0.0,0.1
1446041353341584666,227,1446041353338346958,robocape,2.0037968244,-0.787701822005,49.2241706152,0.0,10.0,0.0,0.0,0.0,10.0,0.0,0.0,0.0,10.0,0.0149137021044,0.0201068662301,0.00719053494321,1.0,0.0,0.0,0.0,1.0,0.0,0.0,0.0,1.0,0.0347277832031,-0.568817138672,10.0518969727,0.1,0.0,0.0,0.0,0.1,0.0,0.0,0.0,0.1
1446041353374815375,228,1446041353371706962,robocape,2.01254581138,-0.743017850617,49.0340597367,0.0,10.0,0.0,0.0,0.0,10.0,0.0,0.0,0.0,10.0,0.00812264132474,0.0202400242846,0.00719053494321,1.0,0.0,0.0,0.0,1.0,0.0,0.0,0.0,1.0,0.0335302734375,-0.534089355469,10.0387243652,0.1,0.0,0.0,0.0,0.1,0.0,0.0,0.0,0.1
1446041353408445958,229,1446041353404761075,robocape,2.00679535512,-0.699807708446,48.8451255024,0.0,10.0,0.0,0.0,0.0,10.0,0.0,0.0,0.0,10.0,0.000532632218016,0.0195742340121,0.0067910607797,1.0,0.0,0.0,0.0,1.0,0.0,0.0,0.0,1.0,0.01916015625,-0.547261962891,10.075847168,0.1,0.0,0.0,0.0,0.1,0.0,0.0,0.0,0.1
1446041353441531416,230,1446041353438461065,robocape,1.99393045443,-0.657848514394,48.6581334759,0.0,10.0,0.0,0.0,0.0,10.0,0.0,0.0,0.0,10.0,-0.0031957933081,0.0190416017941,0.00692421883421,1.0,0.0,0.0,0.0,1.0,0.0,0.0,0.0,1.0,0.0167651367188,-0.597557373047,10.0590820312,0.1,0.0,0.0,0.0,0.1,0.0,0.0,0.0,0.1
1446041353474764416,231,1446041353471693992,robocape,1.98839148968,-0.614623031126,48.4740882187,0.0,10.0,0.0,0.0,0.0,10.0,0.0,0.0,0.0,10.0,0.00066579027252,0.0198405501211,0.00772316716123,1.0,0.0,0.0,0.0,1.0,0.0,0.0,0.0,1.0,0.0203576660156,-0.63228515625,10.0447119141,0.1,0.0,0.0,0.0,0.1,0.0,0.0,0.0,0.1
1446041353508125458,232,1446041353504837036,robocape,1.99375263022,-0.571537576942,48.2901467395,0.0,10.0,0.0,0.0,0.0,10.0,0.0,0.0,0.0,10.0,0.00639158661619,0.0198405501211,0.0067910607797,1.0,0.0,0.0,0.0,1.0,0.0,0.0,0.0,1.0,0.0371228027344,-0.649050292969,10.0411193848,0.1,0.0,0.0,0.0,0.1,0.0,0.0,0.0,0.1
1446041353541542416,233,1446041353538455963,robocape,2.01019913649,-0.527606353305,48.1075991653,0.0,10.0,0.0,0.0,0.0,10.0,0.0,0.0,0.0,10.0,0.0122505410144,0.0203731823391,0.0066579027252,1.0,0.0,0.0,0.0,1.0,0.0,0.0,0.0,1.0,0.0383203125,-0.603544921875,10.0638720703,0.1,0.0,0.0,0.0,0.1,0.0,0.0,0.0,0.1
1446041353580234750,234,1446041353577114105,robocape,2.02884111392,-0.484065574945,47.9256015945,0.0,10.0,0.0,0.0,0.0,10.0,0.0,0.0,0.0,10.0,0.0134489635049,0.0202400242846,0.00599211245268,1.0,0.0,0.0,0.0,1.0,0.0,0.0,0.0,1.0,0.0251477050781,-0.586779785156,10.0710571289,0.1,0.0,0.0,0.0,0.1,0.0,0.0,0.0,0.1
1446041353608382500,235,1446041353605115890,robocape,2.04152987776,-0.440748472149,47.7463179842,0.0,10.0,0.0,0.0,0.0,10.0,0.0,0.0,0.0,10.0,0.0103863282513,0.0202400242846,0.0066579027252,1.0,0.0,0.0,0.0,1.0,0.0,0.0,0.0,1.0,0.0419128417969,-0.564027099609,10.0770446777,0.1,0.0,0.0,0.0,0.1,0.0,0.0,0.0,0.1
1446041353641414166,236,1446041353638400077,robocape,2.03891028872,-0.397955195102,47.5704067974,0.0,10.0,0.0,0.0,0.0,10.0,0.0,0.0,0.0,10.0,0.00239684498107,0.0201068662301,0.00772316716123,1.0,0.0,0.0,0.0,1.0,0.0,0.0,0.0,1.0,0.0239501953125,-0.549656982422,10.0770446777,0.1,0.0,0.0,0.0,0.1,0.0,0.0,0.0,0.1
1446041353674722000,237,1446041353671720981,robocape,2.02919385141,-0.357104957088,47.3949623267,0.0,10.0,0.0,0.0,0.0,10.0,0.0,0.0,0.0,10.0,-0.00133158054504,0.0191747598486,0.00705737688871,1.0,0.0,0.0,0.0,1.0,0.0,0.0,0.0,1.0,0.0311352539063,-0.577199707031,10.0638720703,0.1,0.0,0.0,0.0,0.1,0.0,0.0,0.0,0.1
1446041353707993875,238,1446041353704766035,robocape,2.02048946773,-0.316214928614,47.2214673306,0.0,10.0,0.0,0.0,0.0,10.0,0.0,0.0,0.0,10.0,-0.000798948327024,0.0193079179031,0.00732369299772,1.0,0.0,0.0,0.0,1.0,0.0,0.0,0.0,1.0,0.0275427246094,-0.625100097656,10.0842297363,0.1,0.0,0.0,0.0,0.1,0.0,0.0,0.0,0.1
1446041353745203667,239,1446041353742171049,robocape,2.02167267915,-0.274467629264,47.0488022843,0.0,10.0,0.0,0.0,0.0,10.0,0.0,0.0,0.0,10.0,0.00439421579863,0.0198405501211,0.00692421883421,1.0,0.0,0.0,0.0,1.0,0.0,0.0,0.0,1.0,0.0215551757813,-0.640667724609,10.0674645996,0.1,0.0,0.0,0.0,0.1,0.0,0.0,0.0,0.1
1446041353774555917,240,1446041353771528005,robocape,2.03218762534,-0.231631000058,46.8778194978,0.0,10.0,0.0,0.0,0.0,10.0,0.0,0.0,0.0,10.0,0.00932106381528,0.0205063403936,0.00705737688871,1.0,0.0,0.0,0.0,1.0,0.0,0.0,0.0,1.0,0.0359252929688,-0.634680175781,10.0626745605,0.1,0.0,0.0,0.0,0.1,0.0,0.0,0.0,0.1
1446041353807936167,241,1446041353804789066,robocape,2.04846174019,-0.189710573199,46.7080300982,0.0,10.0,0.0,0.0,0.0,10.0,0.0,0.0,0.0,10.0,0.0123836990689,0.0201068662301,0.00692421883421,1.0,0.0,0.0,0.0,1.0,0.0,0.0,0.0,1.0,0.0383203125,-0.584384765625,10.0530944824,0.1,0.0,0.0,0.0,0.1,0.0,0.0,0.0,0.1
1446041353841523167,242,1446041353838438987,robocape,2.05958481918,-0.14794359613,46.5392994301,0.0,10.0,0.0,0.0,0.0,10.0,0.0,0.0,0.0,10.0,0.00972053797879,0.0201068662301,0.0066579027252,1.0,0.0,0.0,0.0,1.0,0.0,0.0,0.0,1.0,0.0299377441406,-0.558039550781,10.055489502,0.1,0.0,0.0,0.0,0.1,0.0,0.0,0.0,0.1
1446041353874764667,243,1446041353871684074,robocape,2.06025182385,-0.108402351189,46.3724283298,0.0,10.0,0.0,0.0,0.0,10.0,0.0,0.0,0.0,10.0,0.00426105774413,0.0190416017941,0.00692421883421,1.0,0.0,0.0,0.0,1.0,0.0,0.0,0.0,1.0,0.0371228027344,-0.558039550781,10.0818347168,0.1,0.0,0.0,0.0,0.1,0.0,0.0,0.0,0.1
1446041353908200708,244,1446041353904885053,robocape,2.05379482873,-0.0688067271126,46.2074456971,0.0,10.0,0.0,0.0,0.0,10.0,0.0,0.0,0.0,10.0,0.000532632218016,0.0191747598486,0.00719053494321,1.0,0.0,0.0,0.0,1.0,0.0,0.0,0.0,1.0,0.0431103515625,-0.562829589844,10.0590820312,0.1,0.0,0.0,0.0,0.1,0.0,0.0,0.0,0.1
1446041353941669958,245,1446041353938627004,robocape,2.04607191148,-0.028623906238,46.0436629644,0.0,10.0,0.0,0.0,0.0,10.0,0.0,0.0,0.0,10.0,-0.000133158054504,0.0195742340121,0.00705737688871,1.0,0.0,0.0,0.0,1.0,0.0,0.0,0.0,1.0,0.0251477050781,-0.609532470703,10.0734521484,0.1,0.0,0.0,0.0,0.1,0.0,0.0,0.0,0.1
1446041353974769042,246,1446041353971688985,robocape,2.04315606566,0.0126096047067,45.8823285876,0.0,10.0,0.0,0.0,0.0,10.0,0.0,0.0,0.0,10.0,0.00239684498107,0.0202400242846,0.00772316716123,1.0,0.0,0.0,0.0,1.0,0.0,0.0,0.0,1.0,0.0263452148438,-0.627495117188,10.0471069336,0.1,0.0,0.0,0.0,0.1,0.0,0.0,0.0,0.1
1446041354008143708,247,1446041354004847049,robocape,2.04960865427,0.053730456601,45.7209874386,0.0,10.0,0.0,0.0,0.0,10.0,0.0,0.0,0.0,10.0,0.00732369299772,0.0202400242846,0.00692421883421,1.0,0.0,0.0,0.0,1.0,0.0,0.0,0.0,1.0,0.0227526855469,-0.619112548828,10.039921875,0.1,0.0,0.0,0.0,0.1,0.0,0.0,0.0,0.1
1446041354041854958,248,1446041354038836002,robocape,2.06260418655,0.0939547948046,45.5604865468,0.0,10.0,0.0,0.0,0.0,10.0,0.0,0.0,0.0,10.0,0.0107858024148,0.0198405501211,0.0066579027252,1.0,0.0,0.0,0.0,1.0,0.0,0.0,0.0,1.0,0.0371228027344,-0.603544921875,10.0830322266,0.1,0.0,0.0,0.0,0.1,0.0,0.0,0.0,0.1
1446041354074908917,249,1446041354071899890,robocape,2.07451422968,0.134516071285,45.4017625481,0.0,10.0,0.0,0.0,0.0,10.0,0.0,0.0,0.0,10.0,0.0102531701968,0.0201068662301,0.00692421883421,1.0,0.0,0.0,0.0,1.0,0.0,0.0,0.0,1.0,0.0215551757813,-0.5748046875,10.0590820312,0.1,0.0,0.0,0.0,0.1,0.0,0.0,0.0,0.1
1446041354108473708,250,1446041354105212926,robocape,2.07926064934,0.174862622995,45.2456762593,0.0,10.0,0.0,0.0,0.0,10.0,0.0,0.0,0.0,10.0,0.00652474467069,0.0201068662301,0.00772316716123,1.0,0.0,0.0,0.0,1.0,0.0,0.0,0.0,1.0,0.0311352539063,-0.554447021484,10.0674645996,0.1,0.0,0.0,0.0,0.1,0.0,0.0,0.0,0.1
1446041354143021500,251,1446041354139962911,robocape,2.07637261833,0.214549580026,45.0904583044,0.0,10.0,0.0,0.0,0.0,10.0,0.0,0.0,0.0,10.0,0.00253000303558,0.0198405501211,0.00745685105222,1.0,0.0,0.0,0.0,1.0,0.0,0.0,0.0,1.0,0.0203576660156,-0.578397216797,10.0614770508,0.1,0.0,0.0,0.0,0.1,0.0,0.0,0.0,0.1
1446041354174858958,252,1446041354171660900,robocape,2.07043516304,0.253796557304,44.9369367876,0.0,10.0,0.0,0.0,0.0,10.0,0.0,0.0,0.0,10.0,0.000932106381528,0.0197073920666,0.00772316716123,1.0,0.0,0.0,0.0,1.0,0.0,0.0,0.0,1.0,0.0275427246094,-0.609532470703,10.0423168945,0.1,0.0,0.0,0.0,0.1,0.0,0.0,0.0,0.1
1446041354207943208,253,1446041354204775094,robocape,2.0672890071,0.294453556531,44.7833848829,0.0,10.0,0.0,0.0,0.0,10.0,0.0,0.0,0.0,10.0,0.00239684498107,0.0205063403936,0.00692421883421,1.0,0.0,0.0,0.0,1.0,0.0,0.0,0.0,1.0,0.0323327636719,-0.626297607422,10.0686621094,0.1,0.0,0.0,0.0,0.1,0.0,0.0,0.0,0.1
1446041354242338417,254,1446041354238993883,robocape,2.07300360595,0.333175314426,44.6311695511,0.0,10.0,0.0,0.0,0.0,10.0,0.0,0.0,0.0,10.0,0.00705737688871,0.0195742340121,0.00705737688871,1.0,0.0,0.0,0.0,1.0,0.0,0.0,0.0,1.0,0.0311352539063,-0.63228515625,10.0626745605,0.1,0.0,0.0,0.0,0.1,0.0,0.0,0.0,0.1
1446041354274723250,255,1446041354271487951,robocape,2.08273502457,0.37201717028,44.4799385348,0.0,10.0,0.0,0.0,0.0,10.0,0.0,0.0,0.0,10.0,0.00918790576077,0.0197073920666,0.00692421883421,1.0,0.0,0.0,0.0,1.0,0.0,0.0,0.0,1.0,0.0383203125,-0.602347412109,10.0866247559,0.1,0.0,0.0,0.0,0.1,0.0,0.0,0.0,0.1
1446041354308147417,256,1446041354304851055,robocape,2.09368199227,0.411478342591,44.329928432,0.0,10.0,0.0,0.0,0.0,10.0,0.0,0.0,0.0,10.0,0.00985369603329,0.0201068662301,0.00692421883421,1.0,0.0,0.0,0.0,1.0,0.0,0.0,0.0,1.0,0.0395178222656,-0.572409667969,10.0566870117,0.1,0.0,0.0,0.0,0.1,0.0,0.0,0.0,0.1
1446041354341596500,257,1446041354338385105,robocape,2.09824241632,0.449513732478,44.1813170198,0.0,10.0,0.0,0.0,0.0,10.0,0.0,0.0,0.0,10.0,0.00652474467069,0.0194410759576,0.00705737688871,1.0,0.0,0.0,0.0,1.0,0.0,0.0,0.0,1.0,0.0227526855469,-0.564027099609,10.0530944824,0.1,0.0,0.0,0.0,0.1,0.0,0.0,0.0,0.1
1446041354374923792,258,1446041354371613979,robocape,2.09745027305,0.488691966203,44.0332922163,0.0,10.0,0.0,0.0,0.0,10.0,0.0,0.0,0.0,10.0,0.00372842552611,0.0201068662301,0.0066579027252,1.0,0.0,0.0,0.0,1.0,0.0,0.0,0.0,1.0,0.0347277832031,-0.573607177734,10.0590820312,0.1,0.0,0.0,0.0,0.1,0.0,0.0,0.0,0.1
1446041354408188958,259,1446041354404912948,robocape,2.09360875169,0.526664718567,43.8872769834,0.0,10.0,0.0,0.0,0.0,10.0,0.0,0.0,0.0,10.0,0.00213052887206,0.0195742340121,0.00719053494321,1.0,0.0,0.0,0.0,1.0,0.0,0.0,0.0,1.0,0.0311352539063,-0.587977294922,10.0459094238,0.1,0.0,0.0,0.0,0.1,0.0,0.0,0.0,0.1
1446041354441860584,260,1446041354438574075,robocape,2.09306004007,0.565260181269,43.7421841352,0.0,10.0,0.0,0.0,0.0,10.0,0.0,0.0,0.0,10.0,0.00386158358061,0.0199737081756,0.00705737688871,1.0,0.0,0.0,0.0,1.0,0.0,0.0,0.0,1.0,0.0323327636719,-0.605939941406,10.0291442871,0.1,0.0,0.0,0.0,0.1,0.0,0.0,0.0,0.1
1446041354474965167,261,1446041354471693038,robocape,2.09756822858,0.603705335555,43.598404603,0.0,10.0,0.0,0.0,0.0,10.0,0.0,0.0,0.0,10.0,0.00652474467069,0.0199737081756,0.00719053494321,1.0,0.0,0.0,0.0,1.0,0.0,0.0,0.0,1.0,0.0179626464844,-0.623902587891,10.0566870117,0.1,0.0,0.0,0.0,0.1,0.0,0.0,0.0,0.1
1446041354508005459,262,1446041354504822015,robocape,2.10686048225,0.643038241843,43.4555230269,0.0,10.0,0.0,0.0,0.0,10.0,0.0,0.0,0.0,10.0,0.00905474770627,0.0205063403936,0.00705737688871,1.0,0.0,0.0,0.0,1.0,0.0,0.0,0.0,1.0,0.0335302734375,-0.605939941406,10.0698596191,0.1,0.0,0.0,0.0,0.1,0.0,0.0,0.0,0.1
1446041354541923042,263,1446041354538880109,robocape,2.11636101246,0.681483466556,43.3134951612,0.0,10.0,0.0,0.0,0.0,10.0,0.0,0.0,0.0,10.0,0.00918790576077,0.0201068662301,0.00692421883421,1.0,0.0,0.0,0.0,1.0,0.0,0.0,0.0,1.0,0.0383203125,-0.591569824219,10.0614770508,0.1,0.0,0.0,0.0,0.1,0.0,0.0,0.0,0.1
1446041354580726459,264,1446041354577649116,robocape,2.12125176516,0.719826932438,43.1717018199,0.0,10.0,0.0,0.0,0.0,10.0,0.0,0.0,0.0,10.0,0.0067910607797,0.0201068662301,0.00639158661619,1.0,0.0,0.0,0.0,1.0,0.0,0.0,0.0,1.0,0.0359252929688,-0.564027099609,10.0674645996,0.1,0.0,0.0,0.0,0.1,0.0,0.0,0.0,0.1
1446041354608482750,265,1446041354604847908,robocape,2.12231925032,0.756987841422,43.0316291176,0.0,10.0,0.0,0.0,0.0,10.0,0.0,0.0,0.0,10.0,0.00479368996214,0.0195742340121,0.0067910607797,1.0,0.0,0.0,0.0,1.0,0.0,0.0,0.0,1.0,0.0347277832031,-0.572409667969,10.0662670898,0.1,0.0,0.0,0.0,0.1,0.0,0.0,0.0,0.1
1446041354641906750,266,1446041354638708114,robocape,2.11906750312,0.794504679639,42.8928715981,0.0,10.0,0.0,0.0,0.0,10.0,0.0,0.0,0.0,10.0,0.00253000303558,0.0198405501211,0.00692421883421,1.0,0.0,0.0,0.0,1.0,0.0,0.0,0.0,1.0,0.0263452148438,-0.589174804688,10.0578845215,0.1,0.0,0.0,0.0,0.1,0.0,0.0,0.0,0.1
1446041354674940042,267,1446041354671581983,robocape,2.11732670294,0.832445258918,42.7538461505,0.0,10.0,0.0,0.0,0.0,10.0,0.0,0.0,0.0,10.0,0.0033289513626,0.0201068662301,0.00612527050718,1.0,0.0,0.0,0.0,1.0,0.0,0.0,0.0,1.0,0.0227526855469,-0.601149902344,10.0746496582,0.1,0.0,0.0,0.0,0.1,0.0,0.0,0.0,0.1
1446041354707929250,268,1446041354704823017,robocape,2.12040977077,0.869932947285,42.6173639473,0.0,10.0,0.0,0.0,0.0,10.0,0.0,0.0,0.0,10.0,0.00585895439817,0.0199737081756,0.00705737688871,1.0,0.0,0.0,0.0,1.0,0.0,0.0,0.0,1.0,0.028740234375,-0.601149902344,10.075847168,0.1,0.0,0.0,0.0,0.1,0.0,0.0,0.0,0.1
1446041354742068084,269,1446041354738754034,robocape,2.12777933593,0.907556291263,42.4816656198,0.0,10.0,0.0,0.0,0.0,10.0,0.0,0.0,0.0,10.0,0.00812264132474,0.0201068662301,0.00692421883421,1.0,0.0,0.0,0.0,1.0,0.0,0.0,0.0,1.0,0.0251477050781,-0.610729980469,10.0674645996,0.1,0.0,0.0,0.0,0.1,0.0,0.0,0.0,0.1
1446041354774933209,270,1446041354771646022,robocape,2.13536512509,0.944818426692,42.3465255755,0.0,10.0,0.0,0.0,0.0,10.0,0.0,0.0,0.0,10.0,0.00825579937925,0.0199737081756,0.0066579027252,1.0,0.0,0.0,0.0,1.0,0.0,0.0,0.0,1.0,0.0179626464844,-0.589174804688,10.0770446777,0.1,0.0,0.0,0.0,0.1,0.0,0.0,0.0,0.1
1446041354808301625,271,1446041354805147886,robocape,2.14165776071,0.982432053973,42.2130679402,0.0,10.0,0.0,0.0,0.0,10.0,0.0,0.0,0.0,10.0,0.00759000910673,0.0202400242846,0.00705737688871,1.0,0.0,0.0,0.0,1.0,0.0,0.0,0.0,1.0,0.0179626464844,-0.585582275391,10.0746496582,0.1,0.0,0.0,0.0,0.1,0.0,0.0,0.0,0.1
1446041354841979584,272,1446041354838604927,robocape,2.14234815819,1.01915278101,42.0805946096,0.0,10.0,0.0,0.0,0.0,10.0,0.0,0.0,0.0,10.0,0.00466053190764,0.0198405501211,0.00705737688871,1.0,0.0,0.0,0.0,1.0,0.0,0.0,0.0,1.0,0.0239501953125,-0.584384765625,10.0734521484,0.1,0.0,0.0,0.0,0.1,0.0,0.0,0.0,0.1
1446041354874824959,273,1446041354871567964,robocape,2.14076343315,1.05544090138,41.9501955929,0.0,10.0,0.0,0.0,0.0,10.0,0.0,0.0,0.0,10.0,0.0034621094171,0.0197073920666,0.00772316716123,1.0,0.0,0.0,0.0,1.0,0.0,0.0,0.0,1.0,0.0383203125,-0.579594726562,10.0518969727,0.1,0.0,0.0,0.0,0.1,0.0,0.0,0.0,0.1
1446041354907848334,274,1446041354904778957,robocape,2.13967123648,1.09215589349,41.8196535647,0.0,10.0,0.0,0.0,0.0,10.0,0.0,0.0,0.0,10.0,0.00372842552611,0.0199737081756,0.00705737688871,1.0,0.0,0.0,0.0,1.0,0.0,0.0,0.0,1.0,0.0275427246094,-0.597557373047,10.060279541,0.1,0.0,0.0,0.0,0.1,0.0,0.0,0.0,0.1
1446041354941929584,275,1446041354938715934,robocape,2.1421161065,1.12826872375,41.6893591891,0.0,10.0,0.0,0.0,0.0,10.0,0.0,0.0,0.0,10.0,0.00559263828917,0.0197073920666,0.0066579027252,1.0,0.0,0.0,0.0,1.0,0.0,0.0,0.0,1.0,0.0311352539063,-0.602347412109,10.0578845215,0.1,0.0,0.0,0.0,0.1,0.0,0.0,0.0,0.1
1446041354974772750,276,1446041354971544027,robocape,2.1473512339,1.16446702672,41.5611056835,0.0,10.0,0.0,0.0,0.0,10.0,0.0,0.0,0.0,10.0,0.00705737688871,0.0198405501211,0.00732369299772,1.0,0.0,0.0,0.0,1.0,0.0,0.0,0.0,1.0,0.0347277832031,-0.602347412109,10.0590820312,0.1,0.0,0.0,0.0,0.1,0.0,0.0,0.0,0.1
1446041355007866375,277,1446041355004842996,robocape,2.15535604842,1.20028611022,41.4339749341,0.0,10.0,0.0,0.0,0.0,10.0,0.0,0.0,0.0,10.0,0.00852211548825,0.0197073920666,0.00745685105222,1.0,0.0,0.0,0.0,1.0,0.0,0.0,0.0,1.0,0.0239501953125,-0.576002197266,10.0938098145,0.1,0.0,0.0,0.0,0.1,0.0,0.0,0.0,0.1
1446041355042109709,278,1446041355038878917,robocape,2.16180416705,1.23575544672,41.3073109484,0.0,10.0,0.0,0.0,0.0,10.0,0.0,0.0,0.0,10.0,0.00772316716123,0.0195742340121,0.00719053494321,1.0,0.0,0.0,0.0,1.0,0.0,0.0,0.0,1.0,0.0335302734375,-0.576002197266,10.080637207,0.1,0.0,0.0,0.0,0.1,0.0,0.0,0.0,0.1
1446041355074966000,279,1446041355071765899,robocape,2.16365602244,1.2713888729,41.1809130162,0.0,10.0,0.0,0.0,0.0,10.0,0.0,0.0,0.0,10.0,0.00532632218016,0.0197073920666,0.0067910607797,1.0,0.0,0.0,0.0,1.0,0.0,0.0,0.0,1.0,0.0371228027344,-0.5748046875,10.0650695801,0.1,0.0,0.0,0.0,0.1,0.0,0.0,0.0,0.1
1446041355108401292,280,1446041355105066061,robocape,2.16219660057,1.30742710476,41.0549962377,0.0,10.0,0.0,0.0,0.0,10.0,0.0,0.0,0.0,10.0,0.00359526747161,0.0199737081756,0.00652474467069,1.0,0.0,0.0,0.0,1.0,0.0,0.0,0.0,1.0,0.0251477050781,-0.596359863281,10.0459094238,0.1,0.0,0.0,0.0,0.1,0.0,0.0,0.0,0.1
1446041355142117001,281,1446041355138658046,robocape,2.16024818058,1.34203674417,40.9308157434,0.0,10.0,0.0,0.0,0.0,10.0,0.0,0.0,0.0,10.0,0.0033289513626,0.0193079179031,0.00705737688871,1.0,0.0,0.0,0.0,1.0,0.0,0.0,0.0,1.0,0.028740234375,-0.595162353516,10.0662670898,0.1,0.0,0.0,0.0,0.1,0.0,0.0,0.0,0.1
1446041355174935376,282,1446041355171715974,robocape,2.16134493205,1.37779896883,40.8075314227,0.0,10.0,0.0,0.0,0.0,10.0,0.0,0.0,0.0,10.0,0.00492684801665,0.0199737081756,0.00705737688871,1.0,0.0,0.0,0.0,1.0,0.0,0.0,0.0,1.0,0.0131726074219,-0.609532470703,10.0578845215,0.1,0.0,0.0,0.0,0.1,0.0,0.0,0.0,0.1
1446041355208017209,283,1446041355205008029,robocape,2.16470396023,1.41347639881,40.6844295813,0.0,10.0,0.0,0.0,0.0,10.0,0.0,0.0,0.0,10.0,0.00612527050718,0.0199737081756,0.0066579027252,1.0,0.0,0.0,0.0,1.0,0.0,0.0,0.0,1.0,0.0251477050781,-0.622705078125,10.0638720703,0.1,0.0,0.0,0.0,0.1,0.0,0.0,0.0,0.1
1446041355242024292,284,1446041355238440990,robocape,2.17058863137,1.44903239966,40.5623954964,0.0,10.0,0.0,0.0,0.0,10.0,0.0,0.0,0.0,10.0,0.00745685105222,0.0199737081756,0.0067910607797,1.0,0.0,0.0,0.0,1.0,0.0,0.0,0.0,1.0,0.0239501953125,-0.592767333984,10.0614770508,0.1,0.0,0.0,0.0,0.1,0.0,0.0,0.0,0.1
1446041355283025667,285,1446041355279782056,robocape,2.17468848325,1.4831894582,40.4416212096,0.0,10.0,0.0,0.0,0.0,10.0,0.0,0.0,0.0,10.0,0.00652474467069,0.0193079179031,0.00705737688871,1.0,0.0,0.0,0.0,1.0,0.0,0.0,0.0,1.0,0.0155676269531,-0.581989746094,10.0674645996,0.1,0.0,0.0,0.0,0.1,0.0,0.0,0.0,0.1
1446041355317302792,286,1446041355314152002,robocape,2.17676644195,1.51745017222,40.3225899627,0.0,10.0,0.0,0.0,0.0,10.0,0.0,0.0,0.0,10.0,0.00545948023466,0.0194410759576,0.00759000910673,1.0,0.0,0.0,0.0,1.0,0.0,0.0,0.0,1.0,0.0239501953125,-0.572409667969,10.075847168,0.1,0.0,0.0,0.0,0.1,0.0,0.0,0.0,0.1
1446041355342146542,287,1446041355338587999,robocape,2.17654714894,1.55288672593,40.2039791026,0.0,10.0,0.0,0.0,0.0,10.0,0.0,0.0,0.0,10.0,0.00426105774413,0.0201068662301,0.00732369299772,1.0,0.0,0.0,0.0,1.0,0.0,0.0,0.0,1.0,0.0323327636719,-0.577199707031,10.0650695801,0.1,0.0,0.0,0.0,0.1,0.0,0.0,0.0,0.1
1446041355374747292,288,1446041355371537923,robocape,2.17580666728,1.58697309071,40.0854693087,0.0,10.0,0.0,0.0,0.0,10.0,0.0,0.0,0.0,10.0,0.00399474163512,0.0194410759576,0.00692421883421,1.0,0.0,0.0,0.0,1.0,0.0,0.0,0.0,1.0,0.028740234375,-0.599952392578,10.0866247559,0.1,0.0,0.0,0.0,0.1,0.0,0.0,0.0,0.1
1446041355407911709,289,1446041355404839992,robocape,2.17604674152,1.62127592976,39.9662018895,0.0,10.0,0.0,0.0,0.0,10.0,0.0,0.0,0.0,10.0,0.00452737385313,0.0195742340121,0.00599211245268,1.0,0.0,0.0,0.0,1.0,0.0,0.0,0.0,1.0,0.0251477050781,-0.602347412109,10.0542919922,0.1,0.0,0.0,0.0,0.1,0.0,0.0,0.0,0.1
1446041355442262834,290,1446041355438864946,robocape,2.17909500789,1.65517893796,39.848616373,0.0,10.0,0.0,0.0,0.0,10.0,0.0,0.0,0.0,10.0,0.00599211245268,0.0194410759576,0.00652474467069,1.0,0.0,0.0,0.0,1.0,0.0,0.0,0.0,1.0,0.0347277832031,-0.607137451172,10.0447119141,0.1,0.0,0.0,0.0,0.1,0.0,0.0,0.0,0.1
1446041355474713751,291,1446041355471515893,robocape,2.18442586995,1.69022603643,39.732302066,0.0,10.0,0.0,0.0,0.0,10.0,0.0,0.0,0.0,10.0,0.00719053494321,0.0201068662301,0.0067910607797,1.0,0.0,0.0,0.0,1.0,0.0,0.0,0.0,1.0,0.0239501953125,-0.596359863281,10.075847168,0.1,0.0,0.0,0.0,0.1,0.0,0.0,0.0,0.1
1446041355507876667,292,1446041355504827022,robocape,2.18875983355,1.72535853235,39.618127173,0.0,10.0,0.0,0.0,0.0,10.0,0.0,0.0,0.0,10.0,0.0066579027252,0.0202400242846,0.00759000910673,1.0,0.0,0.0,0.0,1.0,0.0,0.0,0.0,1.0,0.0263452148438,-0.590372314453,10.0614770508,0.1,0.0,0.0,0.0,0.1,0.0,0.0,0.0,0.1
1446041355542065251,293,1446041355538686990,robocape,2.1915550427,1.75938106118,39.5044669415,0.0,10.0,0.0,0.0,0.0,10.0,0.0,0.0,0.0,10.0,0.00585895439817,0.0197073920666,0.00745685105222,1.0,0.0,0.0,0.0,1.0,0.0,0.0,0.0,1.0,0.0119750976563,-0.573607177734,10.0566870117,0.1,0.0,0.0,0.0,0.1,0.0,0.0,0.0,0.1
1446041355580258376,294,1446041355577095985,robocape,2.19128440479,1.79358238938,39.3909104716,0.0,10.0,0.0,0.0,0.0,10.0,0.0,0.0,0.0,10.0,0.00426105774413,0.0198405501211,0.00705737688871,1.0,0.0,0.0,0.0,1.0,0.0,0.0,0.0,1.0,0.0359252929688,-0.591569824219,10.0866247559,0.1,0.0,0.0,0.0,0.1,0.0,0.0,0.0,0.1
1446041355612375959,295,1446041355609359025,robocape,2.19125177076,1.8272031761,39.2774145016,0.0,10.0,0.0,0.0,0.0,10.0,0.0,0.0,0.0,10.0,0.00439421579863,0.0195742340121,0.0066579027252,1.0,0.0,0.0,0.0,1.0,0.0,0.0,0.0,1.0,0.0227526855469,-0.601149902344,10.0626745605,0.1,0.0,0.0,0.0,0.1,0.0,0.0,0.0,0.1
1446041355642168126,296,1446041355638659954,robocape,2.1932797243,1.86067075817,39.1657828812,0.0,10.0,0.0,0.0,0.0,10.0,0.0,0.0,0.0,10.0,0.00545948023466,0.0195742340121,0.00732369299772,1.0,0.0,0.0,0.0,1.0,0.0,0.0,0.0,1.0,0.0335302734375,-0.605939941406,10.0842297363,0.1,0.0,0.0,0.0,0.1,0.0,0.0,0.0,0.1
1446041355674656292,297,1446041355671524047,robocape,2.19682476401,1.89454608717,39.0548950632,0.0,10.0,0.0,0.0,0.0,10.0,0.0,0.0,0.0,10.0,0.00625842856169,0.0198405501211,0.00732369299772,1.0,0.0,0.0,0.0,1.0,0.0,0.0,0.0,1.0,0.0239501953125,-0.601149902344,10.0698596191,0.1,0.0,0.0,0.0,0.1,0.0,0.0,0.0,0.1
1446041355707924584,298,1446041355704912900,robocape,2.20034859776,1.92808955338,38.944275513,0.0,10.0,0.0,0.0,0.0,10.0,0.0,0.0,0.0,10.0,0.00625842856169,0.0197073920666,0.00705737688871,1.0,0.0,0.0,0.0,1.0,0.0,0.0,0.0,1.0,0.0203576660156,-0.604742431641,10.0626745605,0.1,0.0,0.0,0.0,0.1,0.0,0.0,0.0,0.1
1446041355742112417,299,1446041355738545894,robocape,2.20513839435,1.96127224758,38.8345901972,0.0,10.0,0.0,0.0,0.0,10.0,0.0,0.0,0.0,10.0,0.00692421883421,0.0195742340121,0.00719053494321,1.0,0.0,0.0,0.0,1.0,0.0,0.0,0.0,1.0,0.0347277832031,-0.585582275391,10.0638720703,0.1,0.0,0.0,0.0,0.1,0.0,0.0,0.0,0.1
1446041355774704584,300,1446041355771550893,robocape,2.20766271017,1.99456857453,38.7265370374,0.0,10.0,0.0,0.0,0.0,10.0,0.0,0.0,0.0,10.0,0.00572579634367,0.0197073920666,0.00772316716123,1.0,0.0,0.0,0.0,1.0,0.0,0.0,0.0,1.0,0.0395178222656,-0.587977294922,10.0530944824,0.1,0.0,0.0,0.0,0.1,0.0,0.0,0.0,0.1
1446041355807910417,301,1446041355804934024,robocape,2.20836745464,2.02833660258,38.6178513853,0.0,10.0,0.0,0.0,0.0,10.0,0.0,0.0,0.0,10.0,0.00479368996214,0.0199737081756,0.00692421883421,1.0,0.0,0.0,0.0,1.0,0.0,0.0,0.0,1.0,0.0347277832031,-0.581989746094,10.0674645996,0.1,0.0,0.0,0.0,0.1,0.0,0.0,0.0,0.1
1446041355842087626,302,1446041355838572978,robocape,2.2080451406,2.0620257714,38.5094164678,0.0,10.0,0.0,0.0,0.0,10.0,0.0,0.0,0.0,10.0,0.00426105774413,0.0199737081756,0.0066579027252,1.0,0.0,0.0,0.0,1.0,0.0,0.0,0.0,1.0,0.0359252929688,-0.597557373047,10.0590820312,0.1,0.0,0.0,0.0,0.1,0.0,0.0,0.0,0.1
1446041355874865418,303,1446041355871649980,robocape,2.21028312762,2.09482578292,38.4023200364,0.0,10.0,0.0,0.0,0.0,10.0,0.0,0.0,0.0,10.0,0.00559263828917,0.0195742340121,0.00705737688871,1.0,0.0,0.0,0.0,1.0,0.0,0.0,0.0,1.0,0.0167651367188,-0.604742431641,10.0650695801,0.1,0.0,0.0,0.0,0.1,0.0,0.0,0.0,0.1
1446041355907996334,304,1446041355904902935,robocape,2.21328608081,2.12904125101,38.2961776817,0.0,10.0,0.0,0.0,0.0,10.0,0.0,0.0,0.0,10.0,0.00599211245268,0.0203731823391,0.00719053494321,1.0,0.0,0.0,0.0,1.0,0.0,0.0,0.0,1.0,0.0263452148438,-0.595162353516,10.0590820312,0.1,0.0,0.0,0.0,0.1,0.0,0.0,0.0,0.1
1446041355942233293,305,1446041355938863039,robocape,2.21728965573,2.16215770744,38.1904489354,0.0,10.0,0.0,0.0,0.0,10.0,0.0,0.0,0.0,10.0,0.00652474467069,0.0198405501211,0.00705737688871,1.0,0.0,0.0,0.0,1.0,0.0,0.0,0.0,1.0,0.0299377441406,-0.59396484375,10.0483044434,0.1,0.0,0.0,0.0,0.1,0.0,0.0,0.0,0.1
1446041355975081751,306,1446041355971858978,robocape,2.22229919427,2.19594202656,38.0854101325,0.0,10.0,0.0,0.0,0.0,10.0,0.0,0.0,0.0,10.0,0.00705737688871,0.0202400242846,0.00705737688871,1.0,0.0,0.0,0.0,1.0,0.0,0.0,0.0,1.0,0.0251477050781,-0.585582275391,10.0722546387,0.1,0.0,0.0,0.0,0.1,0.0,0.0,0.0,0.1
1446041356009485418,307,1446041356006237030,robocape,2.22553866338,2.22935648811,37.9814865784,0.0,10.0,0.0,0.0,0.0,10.0,0.0,0.0,0.0,10.0,0.00612527050718,0.0201068662301,0.00732369299772,1.0,0.0,0.0,0.0,1.0,0.0,0.0,0.0,1.0,0.0263452148438,-0.580792236328,10.0662670898,0.1,0.0,0.0,0.0,0.1,0.0,0.0,0.0,0.1
1446041356043676751,308,1446041356039768934,robocape,2.2269905405,2.26192720736,37.8779724424,0.0,10.0,0.0,0.0,0.0,10.0,0.0,0.0,0.0,10.0,0.00519316412565,0.0197073920666,0.00719053494321,1.0,0.0,0.0,0.0,1.0,0.0,0.0,0.0,1.0,0.0395178222656,-0.592767333984,10.0734521484,0.1,0.0,0.0,0.0,0.1,0.0,0.0,0.0,0.1
1446041356076431376,309,1446041356073127985,robocape,2.22692225102,2.29465836002,37.7751189204,0.0,10.0,0.0,0.0,0.0,10.0,0.0,0.0,0.0,10.0,0.00439421579863,0.0198405501211,0.00719053494321,1.0,0.0,0.0,0.0,1.0,0.0,0.0,0.0,1.0,0.0275427246094,-0.586779785156,10.0746496582,0.1,0.0,0.0,0.0,0.1,0.0,0.0,0.0,0.1
1446041356110251293,310,1446041356106672048,robocape,2.22761140267,2.32705484236,37.6726676687,0.0,10.0,0.0,0.0,0.0,10.0,0.0,0.0,0.0,10.0,0.00479368996214,0.0197073920666,0.00705737688871,1.0,0.0,0.0,0.0,1.0,0.0,0.0,0.0,1.0,0.0263452148438,-0.592767333984,10.0926123047,0.1,0.0,0.0,0.0,0.1,0.0,0.0,0.0,0.1
1446041356143321043,311,1446041356139431953,robocape,2.23086354938,2.35882303737,37.5715086307,0.0,10.0,0.0,0.0,0.0,10.0,0.0,0.0,0.0,10.0,0.00612527050718,0.0194410759576,0.00745685105222,1.0,0.0,0.0,0.0,1.0,0.0,0.0,0.0,1.0,0.0311352539063,-0.605939941406,10.055489502,0.1,0.0,0.0,0.0,0.1,0.0,0.0,0.0,0.1
1446041356176153918,312,1446041356172887086,robocape,2.23510082615,2.39231109671,37.4703446764,0.0,10.0,0.0,0.0,0.0,10.0,0.0,0.0,0.0,10.0,0.0066579027252,0.0203731823391,0.00705737688871,1.0,0.0,0.0,0.0,1.0,0.0,0.0,0.0,1.0,0.0167651367188,-0.59396484375,10.0746496582,0.1,0.0,0.0,0.0,0.1,0.0,0.0,0.0,0.1
1446041356209728751,313,1446041356206403017,robocape,2.23906791651,2.42343994129,37.3695073922,0.0,10.0,0.0,0.0,0.0,10.0,0.0,0.0,0.0,10.0,0.00652474467069,0.0191747598486,0.00692421883421,1.0,0.0,0.0,0.0,1.0,0.0,0.0,0.0,1.0,0.0155676269531,-0.597557373047,10.0626745605,0.1,0.0,0.0,0.0,0.1,0.0,0.0,0.0,0.1
1446041356242930293,314,1446041356239481925,robocape,2.24050366361,2.45447268239,37.2695259213,0.0,10.0,0.0,0.0,0.0,10.0,0.0,0.0,0.0,10.0,0.00519316412565,0.0191747598486,0.00705737688871,1.0,0.0,0.0,0.0,1.0,0.0,0.0,0.0,1.0,0.01916015625,-0.59396484375,10.0542919922,0.1,0.0,0.0,0.0,0.1,0.0,0.0,0.0,0.1
1446041356275868668,315,1446041356272660017,robocape,2.24146169417,2.48640050249,37.1708713275,0.0,10.0,0.0,0.0,0.0,10.0,0.0,0.0,0.0,10.0,0.00492684801665,0.0197073920666,0.00745685105222,1.0,0.0,0.0,0.0,1.0,0.0,0.0,0.0,1.0,0.028740234375,-0.603544921875,10.0638720703,0.1,0.0,0.0,0.0,0.1,0.0,0.0,0.0,0.1
1446041356309499834,316,1446041356306349039,robocape,2.24165373298,2.51825172222,37.0725914254,0.0,10.0,0.0,0.0,0.0,10.0,0.0,0.0,0.0,10.0,0.00452737385313,0.0197073920666,0.00732369299772,1.0,0.0,0.0,0.0,1.0,0.0,0.0,0.0,1.0,0.0311352539063,-0.59396484375,10.0734521484,0.1,0.0,0.0,0.0,0.1,0.0,0.0,0.0,0.1
1446041356343541293,317,1446041356340152025,robocape,2.24389793981,2.55050161691,36.9753711733,0.0,10.0,0.0,0.0,0.0,10.0,0.0,0.0,0.0,10.0,0.00559263828917,0.0199737081756,0.00759000910673,1.0,0.0,0.0,0.0,1.0,0.0,0.0,0.0,1.0,0.0383203125,-0.589174804688,10.0518969727,0.1,0.0,0.0,0.0,0.1,0.0,0.0,0.0,0.1
1446041356375850959,318,1446041356372744083,robocape,2.24834887022,2.58224922113,36.876889383,0.0,10.0,0.0,0.0,0.0,10.0,0.0,0.0,0.0,10.0,0.0067910607797,0.0197073920666,0.00652474467069,1.0,0.0,0.0,0.0,1.0,0.0,0.0,0.0,1.0,0.0371228027344,-0.602347412109,10.0650695801,0.1,0.0,0.0,0.0,0.1,0.0,0.0,0.0,0.1
1446041356409220793,319,1446041356406125068,robocape,2.25255854662,2.61439819658,36.7794733309,0.0,10.0,0.0,0.0,0.0,10.0,0.0,0.0,0.0,10.0,0.0066579027252,0.0199737081756,0.0067910607797,1.0,0.0,0.0,0.0,1.0,0.0,0.0,0.0,1.0,0.0275427246094,-0.597557373047,10.0746496582,0.1,0.0,0.0,0.0,0.1,0.0,0.0,0.0,0.1
1446041356444596834,320,1446041356441061973,robocape,2.25627423833,2.64618741344,36.6830921468,0.0,10.0,0.0,0.0,0.0,10.0,0.0,0.0,0.0,10.0,0.00639158661619,0.0198405501211,0.00705737688871,1.0,0.0,0.0,0.0,1.0,0.0,0.0,0.0,1.0,0.01916015625,-0.595162353516,10.0686621094,0.1,0.0,0.0,0.0,0.1,0.0,0.0,0.0,0.1
1446041356482187334,321,1446041356478952884,robocape,2.2594981537,2.67761778431,36.5877377555,0.0,10.0,0.0,0.0,0.0,10.0,0.0,0.0,0.0,10.0,0.00612527050718,0.0197073920666,0.00732369299772,1.0,0.0,0.0,0.0,1.0,0.0,0.0,0.0,1.0,0.0263452148438,-0.595162353516,10.0650695801,0.1,0.0,0.0,0.0,0.1,0.0,0.0,0.0,0.1
1446041356513259043,322,1446041356509916067,robocape,2.26221284507,2.70896605933,36.4929524799,0.0,10.0,0.0,0.0,0.0,10.0,0.0,0.0,0.0,10.0,0.00585895439817,0.0197073920666,0.00732369299772,1.0,0.0,0.0,0.0,1.0,0.0,0.0,0.0,1.0,0.0323327636719,-0.596359863281,10.0818347168,0.1,0.0,0.0,0.0,0.1,0.0,0.0,0.0,0.1
1446041356545933668,323,1446041356542567968,robocape,2.26411626978,2.73952913004,36.397563814,0.0,10.0,0.0,0.0,0.0,10.0,0.0,0.0,0.0,10.0,0.00545948023466,0.0193079179031,0.0066579027252,1.0,0.0,0.0,0.0,1.0,0.0,0.0,0.0,1.0,0.0239501953125,-0.601149902344,10.055489502,0.1,0.0,0.0,0.0,0.1,0.0,0.0,0.0,0.1
1446041356585088418,324,1446041356581913948,robocape,2.26680265919,2.77049733776,36.3032086231,0.0,10.0,0.0,0.0,0.0,10.0,0.0,0.0,0.0,10.0,0.00585895439817,0.0195742340121,0.00692421883421,1.0,0.0,0.0,0.0,1.0,0.0,0.0,0.0,1.0,0.0227526855469,-0.610729980469,10.0746496582,0.1,0.0,0.0,0.0,0.1,0.0,0.0,0.0,0.1
1446041356616832001,325,1446041356613662958,robocape,2.27122239444,2.80168584398,36.2084935312,0.0,10.0,0.0,0.0,0.0,10.0,0.0,0.0,0.0,10.0,0.0067910607797,0.0197073920666,0.00639158661619,1.0,0.0,0.0,0.0,1.0,0.0,0.0,0.0,1.0,0.0203576660156,-0.599952392578,10.0854272461,0.1,0.0,0.0,0.0,0.1,0.0,0.0,0.0,0.1
1446041356648400835,326,1446041356645266056,robocape,2.27597327909,2.83295797561,36.1161743065,0.0,10.0,0.0,0.0,0.0,10.0,0.0,0.0,0.0,10.0,0.00692421883421,0.0198405501211,0.00745685105222,1.0,0.0,0.0,0.0,1.0,0.0,0.0,0.0,1.0,0.0227526855469,-0.589174804688,10.0590820312,0.1,0.0,0.0,0.0,0.1,0.0,0.0,0.0,0.1
1446041356678966168,327,1446041356675426959,robocape,2.28014823787,2.86472636505,36.0230355744,0.0,10.0,0.0,0.0,0.0,10.0,0.0,0.0,0.0,10.0,0.0066579027252,0.0201068662301,0.0066579027252,1.0,0.0,0.0,0.0,1.0,0.0,0.0,0.0,1.0,0.028740234375,-0.598754882812,10.0614770508,0.1,0.0,0.0,0.0,0.1,0.0,0.0,0.0,0.1
1446041356709630793,328,1446041356706538915,robocape,2.28281850946,2.89639107721,35.9309020754,0.0,10.0,0.0,0.0,0.0,10.0,0.0,0.0,0.0,10.0,0.00585895439817,0.0201068662301,0.00692421883421,1.0,0.0,0.0,0.0,1.0,0.0,0.0,0.0,1.0,0.0155676269531,-0.597557373047,10.0638720703,0.1,0.0,0.0,0.0,0.1,0.0,0.0,0.0,0.1
1446041356745820293,329,1446041356742273092,robocape,2.28524537665,2.92720412794,35.8395088056,0.0,10.0,0.0,0.0,0.0,10.0,0.0,0.0,0.0,10.0,0.00572579634367,0.0197073920666,0.00705737688871,1.0,0.0,0.0,0.0,1.0,0.0,0.0,0.0,1.0,0.0335302734375,-0.598754882812,10.0734521484,0.1,0.0,0.0,0.0,0.1,0.0,0.0,0.0,0.1
1446041356776057293,330,1446041356773029088,robocape,2.28667026064,2.95818060727,35.7488833027,0.0,10.0,0.0,0.0,0.0,10.0,0.0,0.0,0.0,10.0,0.00519316412565,0.0198405501211,0.00719053494321,1.0,0.0,0.0,0.0,1.0,0.0,0.0,0.0,1.0,0.0311352539063,-0.59396484375,10.0722546387,0.1,0.0,0.0,0.0,0.1,0.0,0.0,0.0,0.1
1446041356808744876,331,1446041356805567026,robocape,2.28941065865,2.98852655248,35.659678171,0.0,10.0,0.0,0.0,0.0,10.0,0.0,0.0,0.0,10.0,0.00585895439817,0.0195742340121,0.00772316716123,1.0,0.0,0.0,0.0,1.0,0.0,0.0,0.0,1.0,0.0143701171875,-0.604742431641,10.0686621094,0.1,0.0,0.0,0.0,0.1,0.0,0.0,0.0,0.1
1446041356842601793,332,1446041356839024066,robocape,2.29287889115,3.01883195202,35.5702919996,0.0,10.0,0.0,0.0,0.0,10.0,0.0,0.0,0.0,10.0,0.00625842856169,0.0195742340121,0.00732369299772,1.0,0.0,0.0,0.0,1.0,0.0,0.0,0.0,1.0,0.0335302734375,-0.601149902344,10.0542919922,0.1,0.0,0.0,0.0,0.1,0.0,0.0,0.0,0.1
1446041356875359585,333,1446041356872265100,robocape,2.29661111359,3.04981084232,35.481668965,0.0,10.0,0.0,0.0,0.0,10.0,0.0,0.0,0.0,10.0,0.00639158661619,0.0199737081756,0.00745685105222,1.0,0.0,0.0,0.0,1.0,0.0,0.0,0.0,1.0,0.0155676269531,-0.608334960938,10.0650695801,0.1,0.0,0.0,0.0,0.1,0.0,0.0,0.0,0.1
1446041356908571210,334,1446041356905452013,robocape,2.29826645851,3.07974603989,35.3926044423,0.0,10.0,0.0,0.0,0.0,10.0,0.0,0.0,0.0,10.0,0.00532632218016,0.0194410759576,0.00692421883421,1.0,0.0,0.0,0.0,1.0,0.0,0.0,0.0,1.0,0.028740234375,-0.596359863281,10.0914147949,0.1,0.0,0.0,0.0,0.1,0.0,0.0,0.0,0.1
1446041356943334418,335,1446041356939696073,robocape,2.29992597047,3.1098604123,35.3040516777,0.0,10.0,0.0,0.0,0.0,10.0,0.0,0.0,0.0,10.0,0.00532632218016,0.0195742340121,0.00692421883421,1.0,0.0,0.0,0.0,1.0,0.0,0.0,0.0,1.0,0.0143701171875,-0.599952392578,10.0878222656,0.1,0.0,0.0,0.0,0.1,0.0,0.0,0.0,0.1
1446041356976102335,336,1446041356972795963,robocape,2.30107022525,3.13915224807,35.2157459547,0.0,10.0,0.0,0.0,0.0,10.0,0.0,0.0,0.0,10.0,0.00506000607115,0.0191747598486,0.0067910607797,1.0,0.0,0.0,0.0,1.0,0.0,0.0,0.0,1.0,0.0323327636719,-0.601149902344,10.0722546387,0.1,0.0,0.0,0.0,0.1,0.0,0.0,0.0,0.1
1446041357009795293,337,1446041357006566047,robocape,2.30374169401,3.16862623493,35.1279393198,0.0,10.0,0.0,0.0,0.0,10.0,0.0,0.0,0.0,10.0,0.00585895439817,0.0193079179031,0.0067910607797,1.0,0.0,0.0,0.0,1.0,0.0,0.0,0.0,1.0,0.0323327636719,-0.598754882812,10.0866247559,0.1,0.0,0.0,0.0,0.1,0.0,0.0,0.0,0.1
1446041357042863585,338,1446041357039432048,robocape,2.30536536915,3.19932989355,35.0399740293,0.0,10.0,0.0,0.0,0.0,10.0,0.0,0.0,0.0,10.0,0.00532632218016,0.0199737081756,0.00639158661619,1.0,0.0,0.0,0.0,1.0,0.0,0.0,0.0,1.0,0.0251477050781,-0.595162353516,10.0686621094,0.1,0.0,0.0,0.0,0.1,0.0,0.0,0.0,0.1
1446041357075851335,339,1446041357072628021,robocape,2.30756029683,3.22990003928,34.9536512917,0.0,10.0,0.0,0.0,0.0,10.0,0.0,0.0,0.0,10.0,0.00559263828917,0.0199737081756,0.00705737688871,1.0,0.0,0.0,0.0,1.0,0.0,0.0,0.0,1.0,0.0203576660156,-0.59396484375,10.075847168,0.1,0.0,0.0,0.0,0.1,0.0,0.0,0.0,0.1
1446041357108910043,340,1446041357105698108,robocape,2.3094790817,3.25965987477,34.8673237663,0.0,10.0,0.0,0.0,0.0,10.0,0.0,0.0,0.0,10.0,0.00545948023466,0.0195742340121,0.0067910607797,1.0,0.0,0.0,0.0,1.0,0.0,0.0,0.0,1.0,0.0323327636719,-0.586779785156,10.060279541,0.1,0.0,0.0,0.0,0.1,0.0,0.0,0.0,0.1
1446041357142680376,341,1446041357139327049,robocape,2.3116672336,3.28908316867,34.7816967531,0.0,10.0,0.0,0.0,0.0,10.0,0.0,0.0,0.0,10.0,0.00559263828917,0.0194410759576,0.00692421883421,1.0,0.0,0.0,0.0,1.0,0.0,0.0,0.0,1.0,0.0251477050781,-0.596359863281,10.060279541,0.1,0.0,0.0,0.0,0.1,0.0,0.0,0.0,0.1
1446041357176377668,342,1446041357173151969,robocape,2.31288230965,3.31890651711,34.697254371,0.0,10.0,0.0,0.0,0.0,10.0,0.0,0.0,0.0,10.0,0.00506000607115,0.0197073920666,0.00732369299772,1.0,0.0,0.0,0.0,1.0,0.0,0.0,0.0,1.0,0.0335302734375,-0.590372314453,10.060279541,0.1,0.0,0.0,0.0,0.1,0.0,0.0,0.0,0.1
1446041357209901751,343,1446041357206756114,robocape,2.31454729859,3.34922406143,34.61213329,0.0,10.0,0.0,0.0,0.0,10.0,0.0,0.0,0.0,10.0,0.00532632218016,0.0199737081756,0.0066579027252,1.0,0.0,0.0,0.0,1.0,0.0,0.0,0.0,1.0,0.0311352539063,-0.605939941406,10.0662670898,0.1,0.0,0.0,0.0,0.1,0.0,0.0,0.0,0.1
1446041357243454210,344,1446041357240112066,robocape,2.31676102314,3.37842082684,34.5281399296,0.0,10.0,0.0,0.0,0.0,10.0,0.0,0.0,0.0,10.0,0.00559263828917,0.0194410759576,0.00705737688871,1.0,0.0,0.0,0.0,1.0,0.0,0.0,0.0,1.0,0.0335302734375,-0.605939941406,10.0818347168,0.1,0.0,0.0,0.0,0.1,0.0,0.0,0.0,0.1
1446041357275802627,345,1446041357272597074,robocape,2.31971363841,3.40858575543,34.4441707963,0.0,10.0,0.0,0.0,0.0,10.0,0.0,0.0,0.0,10.0,0.00599211245268,0.0199737081756,0.0067910607797,1.0,0.0,0.0,0.0,1.0,0.0,0.0,0.0,1.0,0.0347277832031,-0.611927490234,10.0626745605,0.1,0.0,0.0,0.0,0.1,0.0,0.0,0.0,0.1
1446041357309520585,346,1446041357306384086,robocape,2.32347922466,3.43787276946,34.3615598171,0.0,10.0,0.0,0.0,0.0,10.0,0.0,0.0,0.0,10.0,0.00639158661619,0.0195742340121,0.00732369299772,1.0,0.0,0.0,0.0,1.0,0.0,0.0,0.0,1.0,0.0371228027344,-0.592767333984,10.0770446777,0.1,0.0,0.0,0.0,0.1,0.0,0.0,0.0,0.1
1446041357342762627,347,1446041357339689970,robocape,2.3280188519,3.46834626368,34.2796657339,0.0,10.0,0.0,0.0,0.0,10.0,0.0,0.0,0.0,10.0,0.0067910607797,0.0202400242846,0.00745685105222,1.0,0.0,0.0,0.0,1.0,0.0,0.0,0.0,1.0,0.0215551757813,-0.604742431641,10.0842297363,0.1,0.0,0.0,0.0,0.1,0.0,0.0,0.0,0.1
1446041357375711877,348,1446041357372606039,robocape,2.33174059284,3.49803729201,34.1972663658,0.0,10.0,0.0,0.0,0.0,10.0,0.0,0.0,0.0,10.0,0.00639158661619,0.0198405501211,0.00692421883421,1.0,0.0,0.0,0.0,1.0,0.0,0.0,0.0,1.0,0.0407153320313,-0.599952392578,10.0530944824,0.1,0.0,0.0,0.0,0.1,0.0,0.0,0.0,0.1
1446041357409477127,349,1446041357406327962,robocape,2.33367258711,3.52691154001,34.1150609144,0.0,10.0,0.0,0.0,0.0,10.0,0.0,0.0,0.0,10.0,0.00545948023466,0.0194410759576,0.0067910607797,1.0,0.0,0.0,0.0,1.0,0.0,0.0,0.0,1.0,0.0299377441406,-0.584384765625,10.0698596191,0.1,0.0,0.0,0.0,0.1,0.0,0.0,0.0,0.1
1446041357442910752,350,1446041357439519882,robocape,2.33534230652,3.55623727662,34.0330803646,0.0,10.0,0.0,0.0,0.0,10.0,0.0,0.0,0.0,10.0,0.00532632218016,0.0197073920666,0.0066579027252,1.0,0.0,0.0,0.0,1.0,0.0,0.0,0.0,1.0,0.028740234375,-0.592767333984,10.039921875,0.1,0.0,0.0,0.0,0.1,0.0,0.0,0.0,0.1
1446041357475639085,351,1446041357472496032,robocape,2.33683159955,3.5851812303,33.9526916725,0.0,10.0,0.0,0.0,0.0,10.0,0.0,0.0,0.0,10.0,0.00519316412565,0.0195742340121,0.00732369299772,1.0,0.0,0.0,0.0,1.0,0.0,0.0,0.0,1.0,0.0347277832031,-0.596359863281,10.0626745605,0.1,0.0,0.0,0.0,0.1,0.0,0.0,0.0,0.1
1446041357509526127,352,1446041357506300926,robocape,2.33932667046,3.6135643184,33.8724806087,0.0,10.0,0.0,0.0,0.0,10.0,0.0,0.0,0.0,10.0,0.00572579634367,0.0193079179031,0.00719053494321,1.0,0.0,0.0,0.0,1.0,0.0,0.0,0.0,1.0,0.0455053710938,-0.597557373047,10.0590820312,0.1,0.0,0.0,0.0,0.1,0.0,0.0,0.0,0.1
1446041357542138377,353,1446041357538743972,robocape,2.34078391625,3.64291932115,33.7922645909,0.0,10.0,0.0,0.0,0.0,10.0,0.0,0.0,0.0,10.0,0.00519316412565,0.0198405501211,0.00692421883421,1.0,0.0,0.0,0.0,1.0,0.0,0.0,0.0,1.0,0.0143701171875,-0.596359863281,10.0674645996,0.1,0.0,0.0,0.0,0.1,0.0,0.0,0.0,0.1
1446041357580648502,354,1446041357577342033,robocape,2.34372600783,3.6724971054,33.711778293,0.0,10.0,0.0,0.0,0.0,10.0,0.0,0.0,0.0,10.0,0.00599211245268,0.0199737081756,0.00652474467069,1.0,0.0,0.0,0.0,1.0,0.0,0.0,0.0,1.0,0.0263452148438,-0.596359863281,10.0638720703,0.1,0.0,0.0,0.0,0.1,0.0,0.0,0.0,0.1
1446041357612195002,355,1446041357608755111,robocape,2.3456973838,3.70146450744,33.6324014566,0.0,10.0,0.0,0.0,0.0,10.0,0.0,0.0,0.0,10.0,0.00545948023466,0.0197073920666,0.00692421883421,1.0,0.0,0.0,0.0,1.0,0.0,0.0,0.0,1.0,0.0203576660156,-0.611927490234,10.0698596191,0.1,0.0,0.0,0.0,0.1,0.0,0.0,0.0,0.1
1446041357641950460,356,1446041357638840913,robocape,2.34868766148,3.7306197241,33.5534464134,0.0,10.0,0.0,0.0,0.0,10.0,0.0,0.0,0.0,10.0,0.00599211245268,0.0198405501211,0.00692421883421,1.0,0.0,0.0,0.0,1.0,0.0,0.0,0.0,1.0,0.0311352539063,-0.607137451172,10.0770446777,0.1,0.0,0.0,0.0,0.1,0.0,0.0,0.0,0.1
1446041357675184585,357,1446041357671925067,robocape,2.35014307201,3.75896146115,33.4746531055,0.0,10.0,0.0,0.0,0.0,10.0,0.0,0.0,0.0,10.0,0.00519316412565,0.0194410759576,0.0067910607797,1.0,0.0,0.0,0.0,1.0,0.0,0.0,0.0,1.0,0.0383203125,-0.59396484375,10.0710571289,0.1,0.0,0.0,0.0,0.1,0.0,0.0,0.0,0.1
1446041357708494085,358,1446041357705348968,robocape,2.35246772609,3.78740692053,33.3979071208,0.0,10.0,0.0,0.0,0.0,10.0,0.0,0.0,0.0,10.0,0.00559263828917,0.0195742340121,0.00772316716123,1.0,0.0,0.0,0.0,1.0,0.0,0.0,0.0,1.0,0.0299377441406,-0.596359863281,10.0722546387,0.1,0.0,0.0,0.0,0.1,0.0,0.0,0.0,0.1
1446041357741494835,359,1446041357738446950,robocape,2.35397744873,3.81634365966,33.3206459049,0.0,10.0,0.0,0.0,0.0,10.0,0.0,0.0,0.0,10.0,0.00519316412565,0.0198405501211,0.00719053494321,1.0,0.0,0.0,0.0,1.0,0.0,0.0,0.0,1.0,0.0131726074219,-0.602347412109,10.0363293457,0.1,0.0,0.0,0.0,0.1,0.0,0.0,0.0,0.1
1446041357775283543,360,1446041357772047996,robocape,2.35650800772,3.84597506919,33.2438051509,0.0,10.0,0.0,0.0,0.0,10.0,0.0,0.0,0.0,10.0,0.00572579634367,0.0202400242846,0.00719053494321,1.0,0.0,0.0,0.0,1.0,0.0,0.0,0.0,1.0,0.0239501953125,-0.590372314453,10.0614770508,0.1,0.0,0.0,0.0,0.1,0.0,0.0,0.0,0.1
1446041357809068918,361,1446041357805877923,robocape,2.358787777,3.87553997897,33.1673617734,0.0,10.0,0.0,0.0,0.0,10.0,0.0,0.0,0.0,10.0,0.00559263828917,0.0202400242846,0.00719053494321,1.0,0.0,0.0,0.0,1.0,0.0,0.0,0.0,1.0,0.0275427246094,-0.591569824219,10.0387243652,0.1,0.0,0.0,0.0,0.1,0.0,0.0,0.0,0.1
1446041357842316793,362,1446041357839133024,robocape,2.36205380713,3.90379807459,33.0908037805,0.0,10.0,0.0,0.0,0.0,10.0,0.0,0.0,0.0,10.0,0.00612527050718,0.0195742340121,0.00692421883421,1.0,0.0,0.0,0.0,1.0,0.0,0.0,0.0,1.0,0.028740234375,-0.596359863281,10.0722546387,0.1,0.0,0.0,0.0,0.1,0.0,0.0,0.0,0.1
1446041357876235168,363,1446041357872951030,robocape,2.36559071899,3.93248841857,33.0148873317,0.0,10.0,0.0,0.0,0.0,10.0,0.0,0.0,0.0,10.0,0.00625842856169,0.0198405501211,0.00705737688871,1.0,0.0,0.0,0.0,1.0,0.0,0.0,0.0,1.0,0.0275427246094,-0.592767333984,10.0938098145,0.1,0.0,0.0,0.0,0.1,0.0,0.0,0.0,0.1
1446041357909524252,364,1446041357906419038,robocape,2.36839912219,3.96185039584,32.9398518323,0.0,10.0,0.0,0.0,0.0,10.0,0.0,0.0,0.0,10.0,0.00585895439817,0.0202400242846,0.00732369299772,1.0,0.0,0.0,0.0,1.0,0.0,0.0,0.0,1.0,0.0323327636719,-0.592767333984,10.0794396973,0.1,0.0,0.0,0.0,0.1,0.0,0.0,0.0,0.1
1446041357943421210,365,1446041357940084934,robocape,2.37114709452,3.99043790189,32.8642409696,0.0,10.0,0.0,0.0,0.0,10.0,0.0,0.0,0.0,10.0,0.00585895439817,0.0198405501211,0.0067910607797,1.0,0.0,0.0,0.0,1.0,0.0,0.0,0.0,1.0,0.0251477050781,-0.597557373047,10.0530944824,0.1,0.0,0.0,0.0,0.1,0.0,0.0,0.0,0.1
1446041357976218085,366,1446041357972956895,robocape,2.37587926784,4.01874815364,32.7882999607,0.0,10.0,0.0,0.0,0.0,10.0,0.0,0.0,0.0,10.0,0.00692421883421,0.0197073920666,0.00639158661619,1.0,0.0,0.0,0.0,1.0,0.0,0.0,0.0,1.0,0.0347277832031,-0.601149902344,10.0578845215,0.1,0.0,0.0,0.0,0.1,0.0,0.0,0.0,0.1
1446041358009458877,367,1446041358006247997,robocape,2.37968949516,4.04717593574,32.7141578458,0.0,10.0,0.0,0.0,0.0,10.0,0.0,0.0,0.0,10.0,0.00639158661619,0.0198405501211,0.00719053494321,1.0,0.0,0.0,0.0,1.0,0.0,0.0,0.0,1.0,0.01916015625,-0.59396484375,10.0447119141,0.1,0.0,0.0,0.0,0.1,0.0,0.0,0.0,0.1
1446041358042963877,368,1446041358039628028,robocape,2.38231115713,4.07522621504,32.641556,0.0,10.0,0.0,0.0,0.0,10.0,0.0,0.0,0.0,10.0,0.00572579634367,0.0197073920666,0.00785632521573,1.0,0.0,0.0,0.0,1.0,0.0,0.0,0.0,1.0,0.0443078613281,-0.59396484375,10.0746496582,0.1,0.0,0.0,0.0,0.1,0.0,0.0,0.0,0.1
1446041358076261377,369,1446041358072999000,robocape,2.38457053843,4.10279713757,32.567666669,0.0,10.0,0.0,0.0,0.0,10.0,0.0,0.0,0.0,10.0,0.00559263828917,0.0194410759576,0.00692421883421,1.0,0.0,0.0,0.0,1.0,0.0,0.0,0.0,1.0,0.0251477050781,-0.604742431641,10.0495019531,0.1,0.0,0.0,0.0,0.1,0.0,0.0,0.0,0.1
1446041358109254002,370,1446041358106060028,robocape,2.38659570718,4.1290305167,32.4943442954,0.0,10.0,0.0,0.0,0.0,10.0,0.0,0.0,0.0,10.0,0.00545948023466,0.0187752856851,0.00705737688871,1.0,0.0,0.0,0.0,1.0,0.0,0.0,0.0,1.0,0.0323327636719,-0.611927490234,10.0662670898,0.1,0.0,0.0,0.0,0.1,0.0,0.0,0.0,0.1
1446041358143034460,371,1446041358139637947,robocape,2.38812068412,4.15596746924,32.4214135361,0.0,10.0,0.0,0.0,0.0,10.0,0.0,0.0,0.0,10.0,0.00519316412565,0.0191747598486,0.00705737688871,1.0,0.0,0.0,0.0,1.0,0.0,0.0,0.0,1.0,0.0335302734375,-0.599952392578,10.0566870117,0.1,0.0,0.0,0.0,0.1,0.0,0.0,0.0,0.1
1446041358177353835,372,1446041358173974037,robocape,2.39043121232,4.1841000845,32.3491172497,0.0,10.0,0.0,0.0,0.0,10.0,0.0,0.0,0.0,10.0,0.00559263828917,0.0198405501211,0.00719053494321,1.0,0.0,0.0,0.0,1.0,0.0,0.0,0.0,1.0,0.0155676269531,-0.585582275391,10.0495019531,0.1,0.0,0.0,0.0,0.1,0.0,0.0,0.0,0.1
1446041358208574419,373,1446041358205365896,robocape,2.39269606693,4.21170407878,32.2764611668,0.0,10.0,0.0,0.0,0.0,10.0,0.0,0.0,0.0,10.0,0.00559263828917,0.0195742340121,0.0067910607797,1.0,0.0,0.0,0.0,1.0,0.0,0.0,0.0,1.0,0.0299377441406,-0.602347412109,10.0818347168,0.1,0.0,0.0,0.0,0.1,0.0,0.0,0.0,0.1
1446041358241430002,374,1446041358238301992,robocape,2.39677410365,4.23947786342,32.204637104,0.0,10.0,0.0,0.0,0.0,10.0,0.0,0.0,0.0,10.0,0.00652474467069,0.0197073920666,0.00705737688871,1.0,0.0,0.0,0.0,1.0,0.0,0.0,0.0,1.0,0.0263452148438,-0.599952392578,10.0626745605,0.1,0.0,0.0,0.0,0.1,0.0,0.0,0.0,0.1
1446041358275737585,375,1446041358272416114,robocape,2.39860332021,4.26716734749,32.1336431888,0.0,10.0,0.0,0.0,0.0,10.0,0.0,0.0,0.0,10.0,0.00532632218016,0.0197073920666,0.00732369299772,1.0,0.0,0.0,0.0,1.0,0.0,0.0,0.0,1.0,0.01916015625,-0.592767333984,10.075847168,0.1,0.0,0.0,0.0,0.1,0.0,0.0,0.0,0.1
1446041358307818835,376,1446041358304755926,robocape,2.40091157817,4.29457036558,32.0625199242,0.0,10.0,0.0,0.0,0.0,10.0,0.0,0.0,0.0,10.0,0.00559263828917,0.0195742340121,0.00705737688871,1.0,0.0,0.0,0.0,1.0,0.0,0.0,0.0,1.0,0.0179626464844,-0.592767333984,10.0722546387,0.1,0.0,0.0,0.0,0.1,0.0,0.0,0.0,0.1
1446041358341504419,377,1446041358338360071,robocape,2.40216060771,4.32296603218,31.9910743523,0.0,10.0,0.0,0.0,0.0,10.0,0.0,0.0,0.0,10.0,0.00506000607115,0.0201068662301,0.0066579027252,1.0,0.0,0.0,0.0,1.0,0.0,0.0,0.0,1.0,0.0299377441406,-0.587977294922,10.0734521484,0.1,0.0,0.0,0.0,0.1,0.0,0.0,0.0,0.1
1446041358376042169,378,1446041358372903108,robocape,2.40366935341,4.35079509756,31.9199608975,0.0,10.0,0.0,0.0,0.0,10.0,0.0,0.0,0.0,10.0,0.00519316412565,0.0198405501211,0.0066579027252,1.0,0.0,0.0,0.0,1.0,0.0,0.0,0.0,1.0,0.0227526855469,-0.595162353516,10.0938098145,0.1,0.0,0.0,0.0,0.1,0.0,0.0,0.0,0.1
1446041358408651752,379,1446041358405474901,robocape,2.40569102896,4.37805942904,31.849176581,0.0,10.0,0.0,0.0,0.0,10.0,0.0,0.0,0.0,10.0,0.00545948023466,0.0195742340121,0.0066579027252,1.0,0.0,0.0,0.0,1.0,0.0,0.0,0.0,1.0,0.0179626464844,-0.605939941406,10.0638720703,0.1,0.0,0.0,0.0,0.1,0.0,0.0,0.0,0.1
1446041358442668710,380,1446041358439466953,robocape,2.40824426418,4.40651979625,31.7790082439,0.0,10.0,0.0,0.0,0.0,10.0,0.0,0.0,0.0,10.0,0.00572579634367,0.0202400242846,0.0067910607797,1.0,0.0,0.0,0.0,1.0,0.0,0.0,0.0,1.0,0.0299377441406,-0.595162353516,10.0698596191,0.1,0.0,0.0,0.0,0.1,0.0,0.0,0.0,0.1
1446041358475274335,381,1446041358472258090,robocape,2.41032971592,4.4356539975,31.709673841,0.0,10.0,0.0,0.0,0.0,10.0,0.0,0.0,0.0,10.0,0.00545948023466,0.0206394984481,0.00705737688871,1.0,0.0,0.0,0.0,1.0,0.0,0.0,0.0,1.0,0.0335302734375,-0.598754882812,10.0686621094,0.1,0.0,0.0,0.0,0.1,0.0,0.0,0.0,0.1
1446041358508379002,382,1446041358505354881,robocape,2.41297746466,4.46316964367,31.6413314709,0.0,10.0,0.0,0.0,0.0,10.0,0.0,0.0,0.0,10.0,0.00572579634367,0.0198405501211,0.00745685105222,1.0,0.0,0.0,0.0,1.0,0.0,0.0,0.0,1.0,0.0359252929688,-0.599952392578,10.0842297363,0.1,0.0,0.0,0.0,0.1,0.0,0.0,0.0,0.1
1446041358542508544,383,1446041358539372920,robocape,2.41534045081,4.49090688806,31.5728556096,0.0,10.0,0.0,0.0,0.0,10.0,0.0,0.0,0.0,10.0,0.00559263828917,0.0199737081756,0.00719053494321,1.0,0.0,0.0,0.0,1.0,0.0,0.0,0.0,1.0,0.0395178222656,-0.601149902344,10.0746496582,0.1,0.0,0.0,0.0,0.1,0.0,0.0,0.0,0.1
1446041358579227502,384,1446041358575860023,robocape,2.41672849247,4.51805429538,31.5051659052,0.0,10.0,0.0,0.0,0.0,10.0,0.0,0.0,0.0,10.0,0.00506000607115,0.0197073920666,0.00745685105222,1.0,0.0,0.0,0.0,1.0,0.0,0.0,0.0,1.0,0.0251477050781,-0.595162353516,10.060279541,0.1,0.0,0.0,0.0,0.1,0.0,0.0,0.0,0.1
1446041358613039127,385,1446041358609543085,robocape,2.41962739665,4.54515856906,31.437560396,0.0,10.0,0.0,0.0,0.0,10.0,0.0,0.0,0.0,10.0,0.00585895439817,0.0197073920666,0.00732369299772,1.0,0.0,0.0,0.0,1.0,0.0,0.0,0.0,1.0,0.0467028808594,-0.577199707031,10.055489502,0.1,0.0,0.0,0.0,0.1,0.0,0.0,0.0,0.1
1446041358644541502,386,1446041358641325950,robocape,2.42272660765,4.57047470876,31.3695159338,0.0,10.0,0.0,0.0,0.0,10.0,0.0,0.0,0.0,10.0,0.00599211245268,0.0187752856851,0.00692421883421,1.0,0.0,0.0,0.0,1.0,0.0,0.0,0.0,1.0,0.028740234375,-0.595162353516,10.0506994629,0.1,0.0,0.0,0.0,0.1,0.0,0.0,0.0,0.1
1446041358677078461,387,1446041358673993110,robocape,2.42604964348,4.59779101217,31.3013855859,0.0,10.0,0.0,0.0,0.0,10.0,0.0,0.0,0.0,10.0,0.00612527050718,0.0198405501211,0.0066579027252,1.0,0.0,0.0,0.0,1.0,0.0,0.0,0.0,1.0,0.0407153320313,-0.613125,10.0842297363,0.1,0.0,0.0,0.0,0.1,0.0,0.0,0.0,0.1
1446041358709510961,388,1446041358706290006,robocape,2.42788945307,4.62477258979,31.2340456157,0.0,10.0,0.0,0.0,0.0,10.0,0.0,0.0,0.0,10.0,0.00532632218016,0.0197073920666,0.00692421883421,1.0,0.0,0.0,0.0,1.0,0.0,0.0,0.0,1.0,0.0455053710938,-0.59396484375,10.0674645996,0.1,0.0,0.0,0.0,0.1,0.0,0.0,0.0,0.1
1446041358742297127,389,1446041358739191055,robocape,2.42922811398,4.65169897116,31.1670245586,0.0,10.0,0.0,0.0,0.0,10.0,0.0,0.0,0.0,10.0,0.00506000607115,0.0197073920666,0.00692421883421,1.0,0.0,0.0,0.0,1.0,0.0,0.0,0.0,1.0,0.0239501953125,-0.59396484375,10.0578845215,0.1,0.0,0.0,0.0,0.1,0.0,0.0,0.0,0.1
1446041358775950502,390,1446041358772697925,robocape,2.43088259604,4.67802521683,31.1010104918,0.0,10.0,0.0,0.0,0.0,10.0,0.0,0.0,0.0,10.0,0.00519316412565,0.0194410759576,0.00732369299772,1.0,0.0,0.0,0.0,1.0,0.0,0.0,0.0,1.0,0.028740234375,-0.601149902344,10.0590820312,0.1,0.0,0.0,0.0,0.1,0.0,0.0,0.0,0.1
