%time,field.header.seq,field.header.stamp,field.header.frame_id,field.orientation.x,field.orientation.y,field.orientation.z,field.orientation.w,field.orientation_covariance0,field.orientation_covariance1,field.orientation_covariance2,field.orientation_covariance3,field.orientation_covariance4,field.orientation_covariance5,field.orientation_covariance6,field.orientation_covariance7,field.orientation_covariance8,field.angular_velocity.x,field.angular_velocity.y,field.angular_velocity.z,field.angular_velocity_covariance0,field.angular_velocity_covariance1,field.angular_velocity_covariance2,field.angular_velocity_covariance3,field.angular_velocity_covariance4,field.angular_velocity_covariance5,field.angular_velocity_covariance6,field.angular_velocity_covariance7,field.angular_velocity_covariance8,field.linear_acceleration.x,field.linear_acceleration.y,field.linear_acceleration.z,field.linear_acceleration_covariance0,field.linear_acceleration_covariance1,field.linear_acceleration_covariance2,field.linear_acceleration_covariance3,field.linear_acceleration_covariance4,field.linear_acceleration_covariance5,field.linear_acceleration_covariance6,field.linear_acceleration_covariance7,field.linear_acceleration_covariance8
1446035409666319520,3574,1446035409599945068,robocape,73.1941709538,20.3876608993,147.763308379,0.0,10.0,0.0,0.0,0.0,10.0,0.0,0.0,0.0,10.0,0.00812264132474,0.0123836990689,0.00892158965177,1.0,0.0,0.0,0.0,1.0,0.0,0.0,0.0,1.0,0.246687011719,-0.301772460938,10.1357226563,0.1,0.0,0.0,0.0,0.1,0.0,0.0,0.0,0.1
1446035409687135145,3575,1446035409636143922,robocape,73.2115988112,20.3847859187,147.7818138,0.0,10.0,0.0,0.0,0.0,10.0,0.0,0.0,0.0,10.0,0.00798948327024,0.0125168571234,0.00852211548825,1.0,0.0,0.0,0.0,1.0,0.0,0.0,0.0,1.0,0.251477050781,-0.289797363281,10.132130127,0.1,0.0,0.0,0.0,0.1,0.0,0.0,0.0,0.1
1446035409689266353,3576,1446035409651849031,robocape,73.2297447113,20.3818192854,147.80090498,0.0,10.0,0.0,0.0,0.0,10.0,0.0,0.0,0.0,10.0,0.00838895743375,0.0129163312869,0.00878843159726,1.0,0.0,0.0,0.0,1.0,0.0,0.0,0.0,1.0,0.243094482422,-0.286204833984,10.1189575195,0.1,0.0,0.0,0.0,0.1,0.0,0.0,0.0,0.1
1446035409692510186,3577,1446035409675971984,robocape,73.2473114951,20.3792364882,147.81904504,0.0,10.0,0.0,0.0,0.0,10.0,0.0,0.0,0.0,10.0,0.00825579937925,0.0123836990689,0.00798948327024,1.0,0.0,0.0,0.0,1.0,0.0,0.0,0.0,1.0,0.244291992188,-0.28740234375,10.1081799316,0.1,0.0,0.0,0.0,0.1,0.0,0.0,0.0,0.1
1446035409717781853,3578,1446035409696259021,robocape,73.2644620104,20.3764891432,147.837281029,0.0,10.0,0.0,0.0,0.0,10.0,0.0,0.0,0.0,10.0,0.00785632521573,0.0123836990689,0.00825579937925,1.0,0.0,0.0,0.0,1.0,0.0,0.0,0.0,1.0,0.250279541016,-0.288599853516,10.1105749512,0.1,0.0,0.0,0.0,0.1,0.0,0.0,0.0,0.1
1446035409737397311,3579,1446035409732186079,robocape,73.283383948,20.3739972631,147.85606969,0.0,10.0,0.0,0.0,0.0,10.0,0.0,0.0,0.0,10.0,0.00918790576077,0.0129163312869,0.00798948327024,1.0,0.0,0.0,0.0,1.0,0.0,0.0,0.0,1.0,0.245489501953,-0.28740234375,10.1177600098,0.1,0.0,0.0,0.0,0.1,0.0,0.0,0.0,0.1
1446035409754635728,3580,1446035409750747919,robocape,73.3012506129,20.3714698192,147.875231711,0.0,10.0,0.0,0.0,0.0,10.0,0.0,0.0,0.0,10.0,0.00812264132474,0.0131826473959,0.00812264132474,1.0,0.0,0.0,0.0,1.0,0.0,0.0,0.0,1.0,0.246687011719,-0.286204833984,10.1500927734,0.1,0.0,0.0,0.0,0.1,0.0,0.0,0.0,0.1
1446035409773651603,3581,1446035409771886110,robocape,73.3193403988,20.368963333,147.894554721,0.0,10.0,0.0,0.0,0.0,10.0,0.0,0.0,0.0,10.0,0.00825579937925,0.0133158054504,0.00812264132474,1.0,0.0,0.0,0.0,1.0,0.0,0.0,0.0,1.0,0.239501953125,-0.295784912109,10.1417102051,0.1,0.0,0.0,0.0,0.1,0.0,0.0,0.0,0.1
1446035409792556020,3582,1446035409790745973,robocape,73.3372810473,20.3660900282,147.913205274,0.0,10.0,0.0,0.0,0.0,10.0,0.0,0.0,0.0,10.0,0.00838895743375,0.0126500151779,0.00852211548825,1.0,0.0,0.0,0.0,1.0,0.0,0.0,0.0,1.0,0.246687011719,-0.296982421875,10.1333276367,0.1,0.0,0.0,0.0,0.1,0.0,0.0,0.0,0.1
1446035409810484478,3583,1446035409808760881,robocape,73.3549222017,20.3632293649,147.932555534,0.0,10.0,0.0,0.0,0.0,10.0,0.0,0.0,0.0,10.0,0.00785632521573,0.0131826473959,0.00865527354276,1.0,0.0,0.0,0.0,1.0,0.0,0.0,0.0,1.0,0.244291992188,-0.302969970703,10.1105749512,0.1,0.0,0.0,0.0,0.1,0.0,0.0,0.0,0.1
1446035409826595061,3584,1446035409824850082,robocape,73.3725599383,20.3606163488,147.951217772,0.0,10.0,0.0,0.0,0.0,10.0,0.0,0.0,0.0,10.0,0.00812264132474,0.0127831732324,0.00812264132474,1.0,0.0,0.0,0.0,1.0,0.0,0.0,0.0,1.0,0.252674560547,-0.300574951172,10.1237475586,0.1,0.0,0.0,0.0,0.1,0.0,0.0,0.0,0.1
1446035409845605353,3585,1446035409843832015,robocape,73.3901744688,20.3583961247,147.970172774,0.0,10.0,0.0,0.0,0.0,10.0,0.0,0.0,0.0,10.0,0.00798948327024,0.0131826473959,0.00759000910673,1.0,0.0,0.0,0.0,1.0,0.0,0.0,0.0,1.0,0.247884521484,-0.290994873047,10.1129699707,0.1,0.0,0.0,0.0,0.1,0.0,0.0,0.0,0.1
1446035409869376520,3586,1446035409867609977,robocape,73.4077061941,20.3558818637,147.988945043,0.0,10.0,0.0,0.0,0.0,10.0,0.0,0.0,0.0,10.0,0.00798948327024,0.0129163312869,0.00798948327024,1.0,0.0,0.0,0.0,1.0,0.0,0.0,0.0,1.0,0.250279541016,-0.292192382813,10.132130127,0.1,0.0,0.0,0.0,0.1,0.0,0.0,0.0,0.1
1446035409890775936,3587,1446035409889065027,robocape,73.4253369205,20.3532594452,148.007600252,0.0,10.0,0.0,0.0,0.0,10.0,0.0,0.0,0.0,10.0,0.00812264132474,0.0127831732324,0.00812264132474,1.0,0.0,0.0,0.0,1.0,0.0,0.0,0.0,1.0,0.24908203125,-0.310155029297,10.1249450684,0.1,0.0,0.0,0.0,0.1,0.0,0.0,0.0,0.1
1446035409915657603,3588,1446035409913908004,robocape,73.4437362032,20.3506491659,148.026955288,0.0,10.0,0.0,0.0,0.0,10.0,0.0,0.0,0.0,10.0,0.00852211548825,0.0133158054504,0.00825579937925,1.0,0.0,0.0,0.0,1.0,0.0,0.0,0.0,1.0,0.237106933594,-0.301772460938,10.1500927734,0.1,0.0,0.0,0.0,0.1,0.0,0.0,0.0,0.1
1446035409944897145,3589,1446035409942729949,robocape,73.461586272,20.3477293267,148.045424395,0.0,10.0,0.0,0.0,0.0,10.0,0.0,0.0,0.0,10.0,0.00838895743375,0.0125168571234,0.00852211548825,1.0,0.0,0.0,0.0,1.0,0.0,0.0,0.0,1.0,0.239501953125,-0.293389892578,10.1105749512,0.1,0.0,0.0,0.0,0.1,0.0,0.0,0.0,0.1
1446035409967270853,3590,1446035409965135097,robocape,73.4788529622,20.3449922571,148.063957299,0.0,10.0,0.0,0.0,0.0,10.0,0.0,0.0,0.0,10.0,0.00785632521573,0.0126500151779,0.00825579937925,1.0,0.0,0.0,0.0,1.0,0.0,0.0,0.0,1.0,0.252674560547,-0.300574951172,10.1201550293,0.1,0.0,0.0,0.0,0.1,0.0,0.0,0.0,0.1
1446035409990227270,3591,1446035409988418102,robocape,73.4961736937,20.3417421334,148.082614931,0.0,10.0,0.0,0.0,0.0,10.0,0.0,0.0,0.0,10.0,0.00785632521573,0.0125168571234,0.00905474770627,1.0,0.0,0.0,0.0,1.0,0.0,0.0,0.0,1.0,0.244291992188,-0.307760009766,10.1201550293,0.1,0.0,0.0,0.0,0.1,0.0,0.0,0.0,0.1
1446035410015709895,3592,1446035410014014959,robocape,73.5135499914,20.3387978055,148.100373904,0.0,10.0,0.0,0.0,0.0,10.0,0.0,0.0,0.0,10.0,0.00825579937925,0.0119842249054,0.00838895743375,1.0,0.0,0.0,0.0,1.0,0.0,0.0,0.0,1.0,0.234711914063,-0.301772460938,10.0997973633,0.1,0.0,0.0,0.0,0.1,0.0,0.0,0.0,0.1
1446035410045090936,3593,1446035410043088912,robocape,73.5310903108,20.3355650971,148.119189186,0.0,10.0,0.0,0.0,0.0,10.0,0.0,0.0,0.0,10.0,0.00798948327024,0.0126500151779,0.00905474770627,1.0,0.0,0.0,0.0,1.0,0.0,0.0,0.0,1.0,0.241896972656,-0.301772460938,10.1117724609,0.1,0.0,0.0,0.0,0.1,0.0,0.0,0.0,0.1
1446035410066353228,3594,1446035410064745903,robocape,73.5491152052,20.3325150454,148.138068385,0.0,10.0,0.0,0.0,0.0,10.0,0.0,0.0,0.0,10.0,0.00838895743375,0.0127831732324,0.00878843159726,1.0,0.0,0.0,0.0,1.0,0.0,0.0,0.0,1.0,0.256267089844,-0.300574951172,10.1105749512,0.1,0.0,0.0,0.0,0.1,0.0,0.0,0.0,0.1
1446035410090366686,3595,1446035410088466882,robocape,73.5666135653,20.3293898903,148.156454372,0.0,10.0,0.0,0.0,0.0,10.0,0.0,0.0,0.0,10.0,0.00812264132474,0.0123836990689,0.00878843159726,1.0,0.0,0.0,0.0,1.0,0.0,0.0,0.0,1.0,0.240699462891,-0.299377441406,10.1357226563,0.1,0.0,0.0,0.0,0.1,0.0,0.0,0.0,0.1
1446035410115322061,3596,1446035410113627910,robocape,73.584472548,20.3263186505,148.174625862,0.0,10.0,0.0,0.0,0.0,10.0,0.0,0.0,0.0,10.0,0.00852211548825,0.0122505410144,0.00865527354276,1.0,0.0,0.0,0.0,1.0,0.0,0.0,0.0,1.0,0.247884521484,-0.292192382813,10.1213525391,0.1,0.0,0.0,0.0,0.1,0.0,0.0,0.0,0.1
1446035410144203436,3597,1446035410142441034,robocape,73.6030792788,20.3236545643,148.193794513,0.0,10.0,0.0,0.0,0.0,10.0,0.0,0.0,0.0,10.0,0.00878843159726,0.0131826473959,0.00825579937925,1.0,0.0,0.0,0.0,1.0,0.0,0.0,0.0,1.0,0.235909423828,-0.308957519531,10.0950073242,0.1,0.0,0.0,0.0,0.1,0.0,0.0,0.0,0.1
1446035410166986270,3598,1446035410165173053,robocape,73.6205552671,20.3206149646,148.212825963,0.0,10.0,0.0,0.0,0.0,10.0,0.0,0.0,0.0,10.0,0.00785632521573,0.0129163312869,0.00878843159726,1.0,0.0,0.0,0.0,1.0,0.0,0.0,0.0,1.0,0.247884521484,-0.299377441406,10.1069824219,0.1,0.0,0.0,0.0,0.1,0.0,0.0,0.0,0.1
1446035410191696145,3599,1446035410189616918,robocape,73.6378243715,20.317467099,148.231739167,0.0,10.0,0.0,0.0,0.0,10.0,0.0,0.0,0.0,10.0,0.00772316716123,0.0127831732324,0.00892158965177,1.0,0.0,0.0,0.0,1.0,0.0,0.0,0.0,1.0,0.247884521484,-0.289797363281,10.1141674805,0.1,0.0,0.0,0.0,0.1,0.0,0.0,0.0,0.1
1446035410215645353,3600,1446035410213951110,robocape,73.6557877202,20.3142444458,148.250158979,0.0,10.0,0.0,0.0,0.0,10.0,0.0,0.0,0.0,10.0,0.00852211548825,0.0123836990689,0.00892158965177,1.0,0.0,0.0,0.0,1.0,0.0,0.0,0.0,1.0,0.252674560547,-0.286204833984,10.1093774414,0.1,0.0,0.0,0.0,0.1,0.0,0.0,0.0,0.1
1446035410243285687,3601,1446035410241596937,robocape,73.6727403178,20.3113908194,148.268711256,0.0,10.0,0.0,0.0,0.0,10.0,0.0,0.0,0.0,10.0,0.00759000910673,0.0126500151779,0.00838895743375,1.0,0.0,0.0,0.0,1.0,0.0,0.0,0.0,1.0,0.243094482422,-0.294587402344,10.1405126953,0.1,0.0,0.0,0.0,0.1,0.0,0.0,0.0,0.1
1446035410267287228,3602,1446035410265244960,robocape,73.6901391111,20.3082666987,148.287241044,0.0,10.0,0.0,0.0,0.0,10.0,0.0,0.0,0.0,10.0,0.00798948327024,0.0125168571234,0.00878843159726,1.0,0.0,0.0,0.0,1.0,0.0,0.0,0.0,1.0,0.24908203125,-0.28740234375,10.1261425781,0.1,0.0,0.0,0.0,0.1,0.0,0.0,0.0,0.1
1446035410290312853,3603,1446035410288408994,robocape,73.707907799,20.3054641569,148.305576764,0.0,10.0,0.0,0.0,0.0,10.0,0.0,0.0,0.0,10.0,0.00838895743375,0.0125168571234,0.00825579937925,1.0,0.0,0.0,0.0,1.0,0.0,0.0,0.0,1.0,0.225131835938,-0.292192382813,10.1273400879,0.1,0.0,0.0,0.0,0.1,0.0,0.0,0.0,0.1
1446035410315532645,3604,1446035410313770055,robocape,73.7252302387,20.3026246878,148.324284769,0.0,10.0,0.0,0.0,0.0,10.0,0.0,0.0,0.0,10.0,0.00785632521573,0.0127831732324,0.00838895743375,1.0,0.0,0.0,0.0,1.0,0.0,0.0,0.0,1.0,0.245489501953,-0.305364990234,10.1117724609,0.1,0.0,0.0,0.0,0.1,0.0,0.0,0.0,0.1
1446035410342316770,3605,1446035410340538024,robocape,73.7432542883,20.2997244359,148.343201421,0.0,10.0,0.0,0.0,0.0,10.0,0.0,0.0,0.0,10.0,0.00838895743375,0.0129163312869,0.00852211548825,1.0,0.0,0.0,0.0,1.0,0.0,0.0,0.0,1.0,0.238304443359,-0.293389892578,10.1153649902,0.1,0.0,0.0,0.0,0.1,0.0,0.0,0.0,0.1
1446035410369626937,3606,1446035410367369890,robocape,73.7604563514,20.297017338,148.361645377,0.0,10.0,0.0,0.0,0.0,10.0,0.0,0.0,0.0,10.0,0.00785632521573,0.0126500151779,0.00812264132474,1.0,0.0,0.0,0.0,1.0,0.0,0.0,0.0,1.0,0.250279541016,-0.292192382813,10.1153649902,0.1,0.0,0.0,0.0,0.1,0.0,0.0,0.0,0.1
1446035410390471728,3607,1446035410388593912,robocape,73.7780105564,20.2940972268,148.379854992,0.0,10.0,0.0,0.0,0.0,10.0,0.0,0.0,0.0,10.0,0.00825579937925,0.0123836990689,0.00838895743375,1.0,0.0,0.0,0.0,1.0,0.0,0.0,0.0,1.0,0.233514404297,-0.290994873047,10.1417102051,0.1,0.0,0.0,0.0,0.1,0.0,0.0,0.0,0.1
1446035410415652770,3608,1446035410413902997,robocape,73.7951770293,20.29119762,148.398225555,0.0,10.0,0.0,0.0,0.0,10.0,0.0,0.0,0.0,10.0,0.00785632521573,0.0125168571234,0.00838895743375,1.0,0.0,0.0,0.0,1.0,0.0,0.0,0.0,1.0,0.244291992188,-0.283809814453,10.1393151855,0.1,0.0,0.0,0.0,0.1,0.0,0.0,0.0,0.1
1446035410441201853,3609,1446035410439352035,robocape,73.812943967,20.2883420796,148.416920642,0.0,10.0,0.0,0.0,0.0,10.0,0.0,0.0,0.0,10.0,0.00825579937925,0.0127831732324,0.00838895743375,1.0,0.0,0.0,0.0,1.0,0.0,0.0,0.0,1.0,0.246687011719,-0.288599853516,10.1177600098,0.1,0.0,0.0,0.0,0.1,0.0,0.0,0.0,0.1
1446035410470167687,3610,1446035410467922925,robocape,73.8306500588,20.2853652963,148.434795244,0.0,10.0,0.0,0.0,0.0,10.0,0.0,0.0,0.0,10.0,0.00852211548825,0.0121173829599,0.00838895743375,1.0,0.0,0.0,0.0,1.0,0.0,0.0,0.0,1.0,0.250279541016,-0.296982421875,10.1021923828,0.1,0.0,0.0,0.0,0.1,0.0,0.0,0.0,0.1
1446035410490234687,3611,1446035410488535881,robocape,73.8484440575,20.2820728608,148.453558436,0.0,10.0,0.0,0.0,0.0,10.0,0.0,0.0,0.0,10.0,0.00825579937925,0.0126500151779,0.00905474770627,1.0,0.0,0.0,0.0,1.0,0.0,0.0,0.0,1.0,0.245489501953,-0.295784912109,10.1189575195,0.1,0.0,0.0,0.0,0.1,0.0,0.0,0.0,0.1
1446035410515159728,3612,1446035410513426065,robocape,73.8658078722,20.278963372,148.472387546,0.0,10.0,0.0,0.0,0.0,10.0,0.0,0.0,0.0,10.0,0.00785632521573,0.0127831732324,0.00878843159726,1.0,0.0,0.0,0.0,1.0,0.0,0.0,0.0,1.0,0.253872070313,-0.300574951172,10.100994873,0.1,0.0,0.0,0.0,0.1,0.0,0.0,0.0,0.1
1446035410540808895,3613,1446035410539011955,robocape,73.8835216883,20.2762575495,148.490977407,0.0,10.0,0.0,0.0,0.0,10.0,0.0,0.0,0.0,10.0,0.00825579937925,0.0127831732324,0.00812264132474,1.0,0.0,0.0,0.0,1.0,0.0,0.0,0.0,1.0,0.255069580078,-0.301772460938,10.1033898926,0.1,0.0,0.0,0.0,0.1,0.0,0.0,0.0,0.1
1446035410570801728,3614,1446035410568942070,robocape,73.9012466057,20.2735141357,148.509939237,0.0,10.0,0.0,0.0,0.0,10.0,0.0,0.0,0.0,10.0,0.00812264132474,0.0130494893414,0.00825579937925,1.0,0.0,0.0,0.0,1.0,0.0,0.0,0.0,1.0,0.244291992188,-0.308957519531,10.1213525391,0.1,0.0,0.0,0.0,0.1,0.0,0.0,0.0,0.1
1446035410592249978,3615,1446035410589607000,robocape,73.9186292854,20.2708833669,148.528476988,0.0,10.0,0.0,0.0,0.0,10.0,0.0,0.0,0.0,10.0,0.00798948327024,0.0127831732324,0.00798948327024,1.0,0.0,0.0,0.0,1.0,0.0,0.0,0.0,1.0,0.240699462891,-0.3065625,10.0914147949,0.1,0.0,0.0,0.0,0.1,0.0,0.0,0.0,0.1
1446035410615556687,3616,1446035410613790035,robocape,73.9367243341,20.2678421817,148.547247979,0.0,10.0,0.0,0.0,0.0,10.0,0.0,0.0,0.0,10.0,0.00852211548825,0.0127831732324,0.00865527354276,1.0,0.0,0.0,0.0,1.0,0.0,0.0,0.0,1.0,0.244291992188,-0.300574951172,10.1069824219,0.1,0.0,0.0,0.0,0.1,0.0,0.0,0.0,0.1
1446035410640822895,3617,1446035410639008045,robocape,73.9545396087,20.2646692845,148.565735992,0.0,10.0,0.0,0.0,0.0,10.0,0.0,0.0,0.0,10.0,0.00838895743375,0.0125168571234,0.00878843159726,1.0,0.0,0.0,0.0,1.0,0.0,0.0,0.0,1.0,0.252674560547,-0.288599853516,10.1033898926,0.1,0.0,0.0,0.0,0.1,0.0,0.0,0.0,0.1
1446035410672827103,3618,1446035410669687986,robocape,73.9727929357,20.2618301927,148.583495089,0.0,10.0,0.0,0.0,0.0,10.0,0.0,0.0,0.0,10.0,0.00905474770627,0.0121173829599,0.00812264132474,1.0,0.0,0.0,0.0,1.0,0.0,0.0,0.0,1.0,0.259859619141,-0.290994873047,10.1189575195,0.1,0.0,0.0,0.0,0.1,0.0,0.0,0.0,0.1
1446035410694087312,3619,1446035410691909074,robocape,73.9913830405,20.2588716733,148.601672779,0.0,10.0,0.0,0.0,0.0,10.0,0.0,0.0,0.0,10.0,0.00918790576077,0.0123836990689,0.00838895743375,1.0,0.0,0.0,0.0,1.0,0.0,0.0,0.0,1.0,0.239501953125,-0.295784912109,10.1345251465,0.1,0.0,0.0,0.0,0.1,0.0,0.0,0.0,0.1
1446035410715224312,3620,1446035410713442087,robocape,74.0100178333,20.255758739,148.620643019,0.0,10.0,0.0,0.0,0.0,10.0,0.0,0.0,0.0,10.0,0.00892158965177,0.0129163312869,0.00878843159726,1.0,0.0,0.0,0.0,1.0,0.0,0.0,0.0,1.0,0.250279541016,-0.298179931641,10.1512902832,0.1,0.0,0.0,0.0,0.1,0.0,0.0,0.0,0.1
1446035410740745395,3621,1446035410738945960,robocape,74.0272838733,20.2525956895,148.639283076,0.0,10.0,0.0,0.0,0.0,10.0,0.0,0.0,0.0,10.0,0.00785632521573,0.0126500151779,0.00878843159726,1.0,0.0,0.0,0.0,1.0,0.0,0.0,0.0,1.0,0.247884521484,-0.289797363281,10.1249450684,0.1,0.0,0.0,0.0,0.1,0.0,0.0,0.0,0.1
1446035410769969603,3622,1446035410768173933,robocape,74.0447692744,20.2497556081,148.657733073,0.0,10.0,0.0,0.0,0.0,10.0,0.0,0.0,0.0,10.0,0.00812264132474,0.0126500151779,0.00825579937925,1.0,0.0,0.0,0.0,1.0,0.0,0.0,0.0,1.0,0.238304443359,-0.300574951172,10.1165625,0.1,0.0,0.0,0.0,0.1,0.0,0.0,0.0,0.1
1446035410791933728,3623,1446035410789994955,robocape,74.0623764386,20.2470405366,148.676461091,0.0,10.0,0.0,0.0,0.0,10.0,0.0,0.0,0.0,10.0,0.00812264132474,0.0129163312869,0.00812264132474,1.0,0.0,0.0,0.0,1.0,0.0,0.0,0.0,1.0,0.241896972656,-0.3065625,10.1213525391,0.1,0.0,0.0,0.0,0.1,0.0,0.0,0.0,0.1
1446035410815202228,3624,1446035410813463926,robocape,74.0796109224,20.244252423,148.69469564,0.0,10.0,0.0,0.0,0.0,10.0,0.0,0.0,0.0,10.0,0.00798948327024,0.0125168571234,0.00812264132474,1.0,0.0,0.0,0.0,1.0,0.0,0.0,0.0,1.0,0.237106933594,-0.296982421875,10.1261425781,0.1,0.0,0.0,0.0,0.1,0.0,0.0,0.0,0.1
1446035410840405603,3625,1446035410838644027,robocape,74.0976445851,20.241601114,148.712670699,0.0,10.0,0.0,0.0,0.0,10.0,0.0,0.0,0.0,10.0,0.00878843159726,0.0123836990689,0.00785632521573,1.0,0.0,0.0,0.0,1.0,0.0,0.0,0.0,1.0,0.240699462891,-0.294587402344,10.132130127,0.1,0.0,0.0,0.0,0.1,0.0,0.0,0.0,0.1
1446035410867453812,3626,1446035410865649938,robocape,74.1158445519,20.2392261189,148.731368596,0.0,10.0,0.0,0.0,0.0,10.0,0.0,0.0,0.0,10.0,0.00865527354276,0.0130494893414,0.00759000910673,1.0,0.0,0.0,0.0,1.0,0.0,0.0,0.0,1.0,0.239501953125,-0.277822265625,10.1273400879,0.1,0.0,0.0,0.0,0.1,0.0,0.0,0.0,0.1
1446035410894471979,3627,1446035410892385959,robocape,74.1335218971,20.2364749198,148.749923082,0.0,10.0,0.0,0.0,0.0,10.0,0.0,0.0,0.0,10.0,0.00825579937925,0.0127831732324,0.00812264132474,1.0,0.0,0.0,0.0,1.0,0.0,0.0,0.0,1.0,0.244291992188,-0.285007324219,10.1213525391,0.1,0.0,0.0,0.0,0.1,0.0,0.0,0.0,0.1
1446035410915275395,3628,1446035410913297891,robocape,74.150932657,20.2335572082,148.768568067,0.0,10.0,0.0,0.0,0.0,10.0,0.0,0.0,0.0,10.0,0.00798948327024,0.0127831732324,0.00838895743375,1.0,0.0,0.0,0.0,1.0,0.0,0.0,0.0,1.0,0.251477050781,-0.281414794922,10.1129699707,0.1,0.0,0.0,0.0,0.1,0.0,0.0,0.0,0.1
1446035410940315770,3629,1446035410938560009,robocape,74.1682976142,20.2311031989,148.786768092,0.0,10.0,0.0,0.0,0.0,10.0,0.0,0.0,0.0,10.0,0.00812264132474,0.0126500151779,0.00759000910673,1.0,0.0,0.0,0.0,1.0,0.0,0.0,0.0,1.0,0.247884521484,-0.294587402344,10.132130127,0.1,0.0,0.0,0.0,0.1,0.0,0.0,0.0,0.1
1446035410968098604,3630,1446035410966310024,robocape,74.1856718451,20.2279925678,148.805337026,0.0,10.0,0.0,0.0,0.0,10.0,0.0,0.0,0.0,10.0,0.00798948327024,0.0126500151779,0.00865527354276,1.0,0.0,0.0,0.0,1.0,0.0,0.0,0.0,1.0,0.255069580078,-0.3065625,10.1249450684,0.1,0.0,0.0,0.0,0.1,0.0,0.0,0.0,0.1
1446035410995328895,3631,1446035410993196964,robocape,74.2027815405,20.2246581842,148.822967171,0.0,10.0,0.0,0.0,0.0,10.0,0.0,0.0,0.0,10.0,0.00812264132474,0.0118510668509,0.00878843159726,1.0,0.0,0.0,0.0,1.0,0.0,0.0,0.0,1.0,0.245489501953,-0.296982421875,10.1237475586,0.1,0.0,0.0,0.0,0.1,0.0,0.0,0.0,0.1
1446035411015163020,3632,1446035411013431072,robocape,74.2204346363,20.2216227669,148.841484199,0.0,10.0,0.0,0.0,0.0,10.0,0.0,0.0,0.0,10.0,0.00825579937925,0.0126500151779,0.00852211548825,1.0,0.0,0.0,0.0,1.0,0.0,0.0,0.0,1.0,0.234711914063,-0.300574951172,10.1057849121,0.1,0.0,0.0,0.0,0.1,0.0,0.0,0.0,0.1
1446035411040453354,3633,1446035411038711071,robocape,74.2380499296,20.2180829319,148.859574686,0.0,10.0,0.0,0.0,0.0,10.0,0.0,0.0,0.0,10.0,0.00838895743375,0.0121173829599,0.00918790576077,1.0,0.0,0.0,0.0,1.0,0.0,0.0,0.0,1.0,0.234711914063,-0.289797363281,10.1309326172,0.1,0.0,0.0,0.0,0.1,0.0,0.0,0.0,0.1
1446035411065973270,3634,1446035411064151048,robocape,74.2548364545,20.2150891828,148.877175059,0.0,10.0,0.0,0.0,0.0,10.0,0.0,0.0,0.0,10.0,0.00785632521573,0.0119842249054,0.00825579937925,1.0,0.0,0.0,0.0,1.0,0.0,0.0,0.0,1.0,0.229921875,-0.301772460938,10.1393151855,0.1,0.0,0.0,0.0,0.1,0.0,0.0,0.0,0.1
1446035411094667854,3635,1446035411092756032,robocape,74.2720373613,20.2122560027,148.894680581,0.0,10.0,0.0,0.0,0.0,10.0,0.0,0.0,0.0,10.0,0.00825579937925,0.0119842249054,0.00798948327024,1.0,0.0,0.0,0.0,1.0,0.0,0.0,0.0,1.0,0.233514404297,-0.294587402344,10.1249450684,0.1,0.0,0.0,0.0,0.1,0.0,0.0,0.0,0.1
1446035411115204895,3636,1446035411113545894,robocape,74.2891251079,20.2089519867,148.912623859,0.0,10.0,0.0,0.0,0.0,10.0,0.0,0.0,0.0,10.0,0.00798948327024,0.0121173829599,0.00878843159726,1.0,0.0,0.0,0.0,1.0,0.0,0.0,0.0,1.0,0.243094482422,-0.292192382813,10.2602636719,0.1,0.0,0.0,0.0,0.1,0.0,0.0,0.0,0.1
1446035411140124979,3637,1446035411138402938,robocape,74.3066192061,20.2058544386,148.930799695,0.0,10.0,0.0,0.0,0.0,10.0,0.0,0.0,0.0,10.0,0.00825579937925,0.0123836990689,0.00852211548825,1.0,0.0,0.0,0.0,1.0,0.0,0.0,0.0,1.0,0.233514404297,-0.292192382813,10.1177600098,0.1,0.0,0.0,0.0,0.1,0.0,0.0,0.0,0.1
1446035411166497729,3638,1446035411164731979,robocape,74.3239094919,20.2029633596,148.949208367,0.0,10.0,0.0,0.0,0.0,10.0,0.0,0.0,0.0,10.0,0.00798948327024,0.0126500151779,0.00825579937925,1.0,0.0,0.0,0.0,1.0,0.0,0.0,0.0,1.0,0.250279541016,-0.285007324219,10.1153649902,0.1,0.0,0.0,0.0,0.1,0.0,0.0,0.0,0.1
1446035411195054520,3639,1446035411193084955,robocape,74.3413737067,20.200301725,148.968013942,0.0,10.0,0.0,0.0,0.0,10.0,0.0,0.0,0.0,10.0,0.00798948327024,0.0130494893414,0.00798948327024,1.0,0.0,0.0,0.0,1.0,0.0,0.0,0.0,1.0,0.247884521484,-0.298179931641,10.1201550293,0.1,0.0,0.0,0.0,0.1,0.0,0.0,0.0,0.1
1446035411216429687,3640,1446035411214658021,robocape,74.3597993175,20.1974271732,148.986581249,0.0,10.0,0.0,0.0,0.0,10.0,0.0,0.0,0.0,10.0,0.00892158965177,0.0127831732324,0.00825579937925,1.0,0.0,0.0,0.0,1.0,0.0,0.0,0.0,1.0,0.245489501953,-0.300574951172,10.1261425781,0.1,0.0,0.0,0.0,0.1,0.0,0.0,0.0,0.1
1446035411240236729,3641,1446035411238570928,robocape,74.3773108244,20.1941890367,149.00446443,0.0,10.0,0.0,0.0,0.0,10.0,0.0,0.0,0.0,10.0,0.00838895743375,0.0121173829599,0.00865527354276,1.0,0.0,0.0,0.0,1.0,0.0,0.0,0.0,1.0,0.243094482422,-0.299377441406,10.1261425781,0.1,0.0,0.0,0.0,0.1,0.0,0.0,0.0,0.1
1446035411265730812,3642,1446035411263952970,robocape,74.395313496,20.1911440421,149.023117921,0.0,10.0,0.0,0.0,0.0,10.0,0.0,0.0,0.0,10.0,0.00852211548825,0.0127831732324,0.00852211548825,1.0,0.0,0.0,0.0,1.0,0.0,0.0,0.0,1.0,0.252674560547,-0.299377441406,10.1417102051,0.1,0.0,0.0,0.0,0.1,0.0,0.0,0.0,0.1
1446035411293945229,3643,1446035411291894912,robocape,74.4141809576,20.188000349,149.042351396,0.0,10.0,0.0,0.0,0.0,10.0,0.0,0.0,0.0,10.0,0.00905474770627,0.0131826473959,0.00878843159726,1.0,0.0,0.0,0.0,1.0,0.0,0.0,0.0,1.0,0.241896972656,-0.305364990234,10.1165625,0.1,0.0,0.0,0.0,0.1,0.0,0.0,0.0,0.1
1446035411317156937,3644,1446035411315157890,robocape,74.4317201156,20.1849485209,149.060999212,0.0,10.0,0.0,0.0,0.0,10.0,0.0,0.0,0.0,10.0,0.00812264132474,0.0127831732324,0.00852211548825,1.0,0.0,0.0,0.0,1.0,0.0,0.0,0.0,1.0,0.237106933594,-0.304167480469,10.1213525391,0.1,0.0,0.0,0.0,0.1,0.0,0.0,0.0,0.1
1446035411340142937,3645,1446035411338397979,robocape,74.4495214268,20.1820573452,149.079553069,0.0,10.0,0.0,0.0,0.0,10.0,0.0,0.0,0.0,10.0,0.00838895743375,0.0127831732324,0.00825579937925,1.0,0.0,0.0,0.0,1.0,0.0,0.0,0.0,1.0,0.241896972656,-0.305364990234,10.1213525391,0.1,0.0,0.0,0.0,0.1,0.0,0.0,0.0,0.1
1446035411365774687,3646,1446035411363939046,robocape,74.4673602248,20.178998903,149.098195396,0.0,10.0,0.0,0.0,0.0,10.0,0.0,0.0,0.0,10.0,0.00838895743375,0.0127831732324,0.00852211548825,1.0,0.0,0.0,0.0,1.0,0.0,0.0,0.0,1.0,0.24908203125,-0.295784912109,10.1189575195,0.1,0.0,0.0,0.0,0.1,0.0,0.0,0.0,0.1
1446035411393968437,3647,1446035411392061948,robocape,74.4852361716,20.1754678024,149.11727173,0.0,10.0,0.0,0.0,0.0,10.0,0.0,0.0,0.0,10.0,0.00825579937925,0.0129163312869,0.00932106381528,1.0,0.0,0.0,0.0,1.0,0.0,0.0,0.0,1.0,0.239501953125,-0.304167480469,10.1057849121,0.1,0.0,0.0,0.0,0.1,0.0,0.0,0.0,0.1
1446035411419472270,3648,1446035411417190074,robocape,74.5027716508,20.1720517326,149.135926301,0.0,10.0,0.0,0.0,0.0,10.0,0.0,0.0,0.0,10.0,0.00812264132474,0.0126500151779,0.00905474770627,1.0,0.0,0.0,0.0,1.0,0.0,0.0,0.0,1.0,0.239501953125,-0.298179931641,10.0926123047,0.1,0.0,0.0,0.0,0.1,0.0,0.0,0.0,0.1
1446035411440326937,3649,1446035411438471078,robocape,74.5193524012,20.1684365898,149.153804062,0.0,10.0,0.0,0.0,0.0,10.0,0.0,0.0,0.0,10.0,0.00759000910673,0.0119842249054,0.00918790576077,1.0,0.0,0.0,0.0,1.0,0.0,0.0,0.0,1.0,0.243094482422,-0.301772460938,10.1273400879,0.1,0.0,0.0,0.0,0.1,0.0,0.0,0.0,0.1
1446035411465864770,3650,1446035411463970899,robocape,74.5369418992,20.1650732083,149.172243368,0.0,10.0,0.0,0.0,0.0,10.0,0.0,0.0,0.0,10.0,0.00825579937925,0.0125168571234,0.00892158965177,1.0,0.0,0.0,0.0,1.0,0.0,0.0,0.0,1.0,0.234711914063,-0.289797363281,10.1249450684,0.1,0.0,0.0,0.0,0.1,0.0,0.0,0.0,0.1
1446035411493611520,3651,1446035411491789102,robocape,74.5544845799,20.1622304404,149.191272473,0.0,10.0,0.0,0.0,0.0,10.0,0.0,0.0,0.0,10.0,0.00798948327024,0.0131826473959,0.00825579937925,1.0,0.0,0.0,0.0,1.0,0.0,0.0,0.0,1.0,0.258662109375,-0.294587402344,10.1117724609,0.1,0.0,0.0,0.0,0.1,0.0,0.0,0.0,0.1
1446035411520335562,3652,1446035411517052888,robocape,74.5724662908,20.1591067476,149.209570178,0.0,10.0,0.0,0.0,0.0,10.0,0.0,0.0,0.0,10.0,0.00865527354276,0.0125168571234,0.00852211548825,1.0,0.0,0.0,0.0,1.0,0.0,0.0,0.0,1.0,0.250279541016,-0.292192382813,10.1309326172,0.1,0.0,0.0,0.0,0.1,0.0,0.0,0.0,0.1
1446035411540245479,3653,1446035411538444995,robocape,74.5904053789,20.1561439977,149.227774692,0.0,10.0,0.0,0.0,0.0,10.0,0.0,0.0,0.0,10.0,0.00865527354276,0.0125168571234,0.00825579937925,1.0,0.0,0.0,0.0,1.0,0.0,0.0,0.0,1.0,0.24908203125,-0.290994873047,10.1309326172,0.1,0.0,0.0,0.0,0.1,0.0,0.0,0.0,0.1
1446035411565448562,3654,1446035411563632011,robocape,74.6085655799,20.1528946234,149.246484754,0.0,10.0,0.0,0.0,0.0,10.0,0.0,0.0,0.0,10.0,0.00865527354276,0.0127831732324,0.00878843159726,1.0,0.0,0.0,0.0,1.0,0.0,0.0,0.0,1.0,0.257464599609,-0.299377441406,10.1153649902,0.1,0.0,0.0,0.0,0.1,0.0,0.0,0.0,0.1
1446035411591763229,3655,1446035411590049982,robocape,74.6275342712,20.150106041,149.265994749,0.0,10.0,0.0,0.0,0.0,10.0,0.0,0.0,0.0,10.0,0.00905474770627,0.0135821215594,0.00825579937925,1.0,0.0,0.0,0.0,1.0,0.0,0.0,0.0,1.0,0.243094482422,-0.289797363281,10.1309326172,0.1,0.0,0.0,0.0,0.1,0.0,0.0,0.0,0.1
1446035411619125396,3656,1446035411616898059,robocape,74.6447859485,20.1471189098,149.284727758,0.0,10.0,0.0,0.0,0.0,10.0,0.0,0.0,0.0,10.0,0.00785632521573,0.0129163312869,0.00838895743375,1.0,0.0,0.0,0.0,1.0,0.0,0.0,0.0,1.0,0.244291992188,-0.295784912109,10.1093774414,0.1,0.0,0.0,0.0,0.1,0.0,0.0,0.0,0.1
1446035411643071729,3657,1446035411640830039,robocape,74.6627560758,20.143312894,149.302670579,0.0,10.0,0.0,0.0,0.0,10.0,0.0,0.0,0.0,10.0,0.00878843159726,0.0119842249054,0.00945422186978,1.0,0.0,0.0,0.0,1.0,0.0,0.0,0.0,1.0,0.241896972656,-0.299377441406,10.1177600098,0.1,0.0,0.0,0.0,0.1,0.0,0.0,0.0,0.1
1446035411670898812,3658,1446035411663701057,robocape,74.6808928657,20.1400869113,149.320996069,0.0,10.0,0.0,0.0,0.0,10.0,0.0,0.0,0.0,10.0,0.00878843159726,0.0125168571234,0.00865527354276,1.0,0.0,0.0,0.0,1.0,0.0,0.0,0.0,1.0,0.250279541016,-0.298179931641,10.1249450684,0.1,0.0,0.0,0.0,0.1,0.0,0.0,0.0,0.1
1446035411694052437,3659,1446035411691833019,robocape,74.6983572107,20.1371043364,149.339184083,0.0,10.0,0.0,0.0,0.0,10.0,0.0,0.0,0.0,10.0,0.00825579937925,0.0125168571234,0.00825579937925,1.0,0.0,0.0,0.0,1.0,0.0,0.0,0.0,1.0,0.247884521484,-0.296982421875,10.1393151855,0.1,0.0,0.0,0.0,0.1,0.0,0.0,0.0,0.1
1446035411722800437,3660,1446035411720980882,robocape,74.7163453365,20.1335278834,149.358219573,0.0,10.0,0.0,0.0,0.0,10.0,0.0,0.0,0.0,10.0,0.00838895743375,0.0129163312869,0.00932106381528,1.0,0.0,0.0,0.0,1.0,0.0,0.0,0.0,1.0,0.235909423828,-0.294587402344,10.1177600098,0.1,0.0,0.0,0.0,0.1,0.0,0.0,0.0,0.1
1446035411741796229,3661,1446035411738698959,robocape,74.7343843836,20.1303592751,149.377028031,0.0,10.0,0.0,0.0,0.0,10.0,0.0,0.0,0.0,10.0,0.00852211548825,0.0129163312869,0.00865527354276,1.0,0.0,0.0,0.0,1.0,0.0,0.0,0.0,1.0,0.238304443359,-0.294587402344,10.1033898926,0.1,0.0,0.0,0.0,0.1,0.0,0.0,0.0,0.1
1446035411765264104,3662,1446035411763325929,robocape,74.7521893588,20.1275164713,149.395654816,0.0,10.0,0.0,0.0,0.0,10.0,0.0,0.0,0.0,10.0,0.00838895743375,0.0129163312869,0.00812264132474,1.0,0.0,0.0,0.0,1.0,0.0,0.0,0.0,1.0,0.255069580078,-0.295784912109,10.1129699707,0.1,0.0,0.0,0.0,0.1,0.0,0.0,0.0,0.1
1446035411790670604,3663,1446035411788721084,robocape,74.7702444127,20.1245656221,149.414159738,0.0,10.0,0.0,0.0,0.0,10.0,0.0,0.0,0.0,10.0,0.00865527354276,0.0127831732324,0.00825579937925,1.0,0.0,0.0,0.0,1.0,0.0,0.0,0.0,1.0,0.252674560547,-0.295784912109,10.1249450684,0.1,0.0,0.0,0.0,0.1,0.0,0.0,0.0,0.1
1446035411819200354,3664,1446035411817276000,robocape,74.7871867943,20.1217689387,149.431872538,0.0,10.0,0.0,0.0,0.0,10.0,0.0,0.0,0.0,10.0,0.00798948327024,0.0122505410144,0.00785632521573,1.0,0.0,0.0,0.0,1.0,0.0,0.0,0.0,1.0,0.252674560547,-0.307760009766,10.1189575195,0.1,0.0,0.0,0.0,0.1,0.0,0.0,0.0,0.1
1446035411842547979,3665,1446035411840642929,robocape,74.8041025824,20.1184375301,149.450222596,0.0,10.0,0.0,0.0,0.0,10.0,0.0,0.0,0.0,10.0,0.00772316716123,0.0125168571234,0.00878843159726,1.0,0.0,0.0,0.0,1.0,0.0,0.0,0.0,1.0,0.251477050781,-0.304167480469,10.1249450684,0.1,0.0,0.0,0.0,0.1,0.0,0.0,0.0,0.1
1446035411865240271,3666,1446035411863429069,robocape,74.8209823975,20.1149157756,149.468494804,0.0,10.0,0.0,0.0,0.0,10.0,0.0,0.0,0.0,10.0,0.00772316716123,0.0123836990689,0.00905474770627,1.0,0.0,0.0,0.0,1.0,0.0,0.0,0.0,1.0,0.243094482422,-0.300574951172,10.096204834,0.1,0.0,0.0,0.0,0.1,0.0,0.0,0.0,0.1
1446035411890456062,3667,1446035411888752937,robocape,74.8387440843,20.1115107921,149.486347145,0.0,10.0,0.0,0.0,0.0,10.0,0.0,0.0,0.0,10.0,0.00865527354276,0.0121173829599,0.00878843159726,1.0,0.0,0.0,0.0,1.0,0.0,0.0,0.0,1.0,0.243094482422,-0.283809814453,10.1153649902,0.1,0.0,0.0,0.0,0.1,0.0,0.0,0.0,0.1
1446035411918735771,3668,1446035411916919946,robocape,74.8559449446,20.1082072771,149.504316053,0.0,10.0,0.0,0.0,0.0,10.0,0.0,0.0,0.0,10.0,0.00812264132474,0.0122505410144,0.00865527354276,1.0,0.0,0.0,0.0,1.0,0.0,0.0,0.0,1.0,0.255069580078,-0.28740234375,10.1045874023,0.1,0.0,0.0,0.0,0.1,0.0,0.0,0.0,0.1
1446035411942259562,3669,1446035411940268993,robocape,74.8739166753,20.1048626476,149.522654281,0.0,10.0,0.0,0.0,0.0,10.0,0.0,0.0,0.0,10.0,0.00865527354276,0.0125168571234,0.00878843159726,1.0,0.0,0.0,0.0,1.0,0.0,0.0,0.0,1.0,0.239501953125,-0.302969970703,10.1225500488,0.1,0.0,0.0,0.0,0.1,0.0,0.0,0.0,0.1
1446035411965268687,3670,1446035411963511943,robocape,74.8913167713,20.101657297,149.540736997,0.0,10.0,0.0,0.0,0.0,10.0,0.0,0.0,0.0,10.0,0.00825579937925,0.0123836990689,0.00852211548825,1.0,0.0,0.0,0.0,1.0,0.0,0.0,0.0,1.0,0.232316894531,-0.301772460938,10.1237475586,0.1,0.0,0.0,0.0,0.1,0.0,0.0,0.0,0.1
1446035411990627187,3671,1446035411988842964,robocape,74.9088752091,20.0984041953,149.558488953,0.0,10.0,0.0,0.0,0.0,10.0,0.0,0.0,0.0,10.0,0.00852211548825,0.0121173829599,0.00852211548825,1.0,0.0,0.0,0.0,1.0,0.0,0.0,0.0,1.0,0.255069580078,-0.312550048828,10.1488952637,0.1,0.0,0.0,0.0,0.1,0.0,0.0,0.0,0.1
1446035412017177146,3672,1446035412015378952,robocape,74.9268906012,20.0951542674,149.576938081,0.0,10.0,0.0,0.0,0.0,10.0,0.0,0.0,0.0,10.0,0.00865527354276,0.0126500151779,0.00865527354276,1.0,0.0,0.0,0.0,1.0,0.0,0.0,0.0,1.0,0.243094482422,-0.293389892578,10.1225500488,0.1,0.0,0.0,0.0,0.1,0.0,0.0,0.0,0.1
1446035412043312562,3673,1446035412041464090,robocape,74.9443679105,20.0922310316,149.595207804,0.0,10.0,0.0,0.0,0.0,10.0,0.0,0.0,0.0,10.0,0.00825579937925,0.0126500151779,0.00812264132474,1.0,0.0,0.0,0.0,1.0,0.0,0.0,0.0,1.0,0.256267089844,-0.294587402344,10.1117724609,0.1,0.0,0.0,0.0,0.1,0.0,0.0,0.0,0.1
1446035412065372646,3674,1446035412063426971,robocape,74.9616320565,20.0888857497,149.612995304,0.0,10.0,0.0,0.0,0.0,10.0,0.0,0.0,0.0,10.0,0.00825579937925,0.0121173829599,0.00865527354276,1.0,0.0,0.0,0.0,1.0,0.0,0.0,0.0,1.0,0.244291992188,-0.298179931641,10.1165625,0.1,0.0,0.0,0.0,0.1,0.0,0.0,0.0,0.1
1446035412090415229,3675,1446035412088644027,robocape,74.9789038274,20.0854990378,149.63115189,0.0,10.0,0.0,0.0,0.0,10.0,0.0,0.0,0.0,10.0,0.00812264132474,0.0123836990689,0.00878843159726,1.0,0.0,0.0,0.0,1.0,0.0,0.0,0.0,1.0,0.247884521484,-0.299377441406,10.132130127,0.1,0.0,0.0,0.0,0.1,0.0,0.0,0.0,0.1
1446035412117686854,3676,1446035412115911960,robocape,74.9965692055,20.0827151462,149.64986165,0.0,10.0,0.0,0.0,0.0,10.0,0.0,0.0,0.0,10.0,0.00825579937925,0.0130494893414,0.00798948327024,1.0,0.0,0.0,0.0,1.0,0.0,0.0,0.0,1.0,0.247884521484,-0.304167480469,10.1129699707,0.1,0.0,0.0,0.0,0.1,0.0,0.0,0.0,0.1
1446035412143613979,3677,1446035412141623973,robocape,75.013453188,20.0796522835,149.667836785,0.0,10.0,0.0,0.0,0.0,10.0,0.0,0.0,0.0,10.0,0.00785632521573,0.0123836990689,0.00825579937925,1.0,0.0,0.0,0.0,1.0,0.0,0.0,0.0,1.0,0.244291992188,-0.294587402344,10.1201550293,0.1,0.0,0.0,0.0,0.1,0.0,0.0,0.0,0.1
1446035412165325229,3678,1446035412163456916,robocape,75.0302729976,20.0765258253,149.686017163,0.0,10.0,0.0,0.0,0.0,10.0,0.0,0.0,0.0,10.0,0.00772316716123,0.0125168571234,0.00838895743375,1.0,0.0,0.0,0.0,1.0,0.0,0.0,0.0,1.0,0.247884521484,-0.298179931641,10.1249450684,0.1,0.0,0.0,0.0,0.1,0.0,0.0,0.0,0.1
1446035412190575896,3679,1446035412188796043,robocape,75.0473896791,20.0730821017,149.703834256,0.0,10.0,0.0,0.0,0.0,10.0,0.0,0.0,0.0,10.0,0.00812264132474,0.0121173829599,0.00878843159726,1.0,0.0,0.0,0.0,1.0,0.0,0.0,0.0,1.0,0.258662109375,-0.299377441406,10.1081799316,0.1,0.0,0.0,0.0,0.1,0.0,0.0,0.0,0.1
1446035412216345437,3680,1446035412214590072,robocape,75.0642980396,20.0695304692,149.721528136,0.0,10.0,0.0,0.0,0.0,10.0,0.0,0.0,0.0,10.0,0.00798948327024,0.0119842249054,0.00892158965177,1.0,0.0,0.0,0.0,1.0,0.0,0.0,0.0,1.0,0.235909423828,-0.290994873047,10.1129699707,0.1,0.0,0.0,0.0,0.1,0.0,0.0,0.0,0.1
1446035412244993979,3681,1446035412242619991,robocape,75.0821538023,20.066168402,149.739995302,0.0,10.0,0.0,0.0,0.0,10.0,0.0,0.0,0.0,10.0,0.00852211548825,0.0126500151779,0.00878843159726,1.0,0.0,0.0,0.0,1.0,0.0,0.0,0.0,1.0,0.245489501953,-0.285007324219,10.1261425781,0.1,0.0,0.0,0.0,0.1,0.0,0.0,0.0,0.1
1446035412265416854,3682,1446035412263509035,robocape,75.099834819,20.062885615,149.758415797,0.0,10.0,0.0,0.0,0.0,10.0,0.0,0.0,0.0,10.0,0.00838895743375,0.0126500151779,0.00865527354276,1.0,0.0,0.0,0.0,1.0,0.0,0.0,0.0,1.0,0.261057128906,-0.290994873047,10.1165625,0.1,0.0,0.0,0.0,0.1,0.0,0.0,0.0,0.1
1446035412290369646,3683,1446035412288625001,robocape,75.1178135691,20.0599522425,149.776822955,0.0,10.0,0.0,0.0,0.0,10.0,0.0,0.0,0.0,10.0,0.00865527354276,0.0127831732324,0.00812264132474,1.0,0.0,0.0,0.0,1.0,0.0,0.0,0.0,1.0,0.241896972656,-0.295784912109,10.1405126953,0.1,0.0,0.0,0.0,0.1,0.0,0.0,0.0,0.1
1446035412315824979,3684,1446035412314070940,robocape,75.135547363,20.0570814899,149.795719587,0.0,10.0,0.0,0.0,0.0,10.0,0.0,0.0,0.0,10.0,0.00825579937925,0.0131826473959,0.00812264132474,1.0,0.0,0.0,0.0,1.0,0.0,0.0,0.0,1.0,0.251477050781,-0.295784912109,10.1417102051,0.1,0.0,0.0,0.0,0.1,0.0,0.0,0.0,0.1
1446035412345355813,3685,1446035412343471050,robocape,75.1534353554,20.0538545073,149.814623581,0.0,10.0,0.0,0.0,0.0,10.0,0.0,0.0,0.0,10.0,0.00838895743375,0.0130494893414,0.00865527354276,1.0,0.0,0.0,0.0,1.0,0.0,0.0,0.0,1.0,0.239501953125,-0.285007324219,10.1297351074,0.1,0.0,0.0,0.0,0.1,0.0,0.0,0.0,0.1
1446035412366610313,3686,1446035412364677906,robocape,75.1709672034,20.0508285227,149.833066238,0.0,10.0,0.0,0.0,0.0,10.0,0.0,0.0,0.0,10.0,0.00825579937925,0.0127831732324,0.00825579937925,1.0,0.0,0.0,0.0,1.0,0.0,0.0,0.0,1.0,0.244291992188,-0.301772460938,10.1225500488,0.1,0.0,0.0,0.0,0.1,0.0,0.0,0.0,0.1
1446035412390628563,3687,1446035412388906002,robocape,75.1884683417,20.0479258513,149.851790928,0.0,10.0,0.0,0.0,0.0,10.0,0.0,0.0,0.0,10.0,0.00812264132474,0.0130494893414,0.00812264132474,1.0,0.0,0.0,0.0,1.0,0.0,0.0,0.0,1.0,0.231119384766,-0.293389892578,10.1129699707,0.1,0.0,0.0,0.0,0.1,0.0,0.0,0.0,0.1
1446035412415642063,3688,1446035412413888931,robocape,75.2058362901,20.0445793605,149.869866118,0.0,10.0,0.0,0.0,0.0,10.0,0.0,0.0,0.0,10.0,0.00825579937925,0.0123836990689,0.00865527354276,1.0,0.0,0.0,0.0,1.0,0.0,0.0,0.0,1.0,0.252674560547,-0.289797363281,10.1129699707,0.1,0.0,0.0,0.0,0.1,0.0,0.0,0.0,0.1
1446035412443007479,3689,1446035412440980911,robocape,75.2237276922,20.0416091255,149.888792866,0.0,10.0,0.0,0.0,0.0,10.0,0.0,0.0,0.0,10.0,0.00838895743375,0.0131826473959,0.00825579937925,1.0,0.0,0.0,0.0,1.0,0.0,0.0,0.0,1.0,0.243094482422,-0.3065625,10.1189575195,0.1,0.0,0.0,0.0,0.1,0.0,0.0,0.0,0.1
1446035412467049396,3690,1446035412465101003,robocape,75.2409901859,20.038360729,149.906983082,0.0,10.0,0.0,0.0,0.0,10.0,0.0,0.0,0.0,10.0,0.00812264132474,0.0125168571234,0.00852211548825,1.0,0.0,0.0,0.0,1.0,0.0,0.0,0.0,1.0,0.243094482422,-0.304167480469,10.1213525391,0.1,0.0,0.0,0.0,0.1,0.0,0.0,0.0,0.1
1446035412490204896,3691,1446035412488517999,robocape,75.2583457916,20.0353576199,149.925040902,0.0,10.0,0.0,0.0,0.0,10.0,0.0,0.0,0.0,10.0,0.00825579937925,0.0125168571234,0.00812264132474,1.0,0.0,0.0,0.0,1.0,0.0,0.0,0.0,1.0,0.255069580078,-0.298179931641,10.1165625,0.1,0.0,0.0,0.0,0.1,0.0,0.0,0.0,0.1
1446035412515518646,3692,1446035412513783931,robocape,75.2757400095,20.0318323478,149.943190823,0.0,10.0,0.0,0.0,0.0,10.0,0.0,0.0,0.0,10.0,0.00825579937925,0.0123836990689,0.00892158965177,1.0,0.0,0.0,0.0,1.0,0.0,0.0,0.0,1.0,0.255069580078,-0.294587402344,10.1141674805,0.1,0.0,0.0,0.0,0.1,0.0,0.0,0.0,0.1
1446035412543560771,3693,1446035412541786909,robocape,75.2927786581,20.0285088761,149.960880263,0.0,10.0,0.0,0.0,0.0,10.0,0.0,0.0,0.0,10.0,0.00812264132474,0.0121173829599,0.00852211548825,1.0,0.0,0.0,0.0,1.0,0.0,0.0,0.0,1.0,0.244291992188,-0.289797363281,10.1249450684,0.1,0.0,0.0,0.0,0.1,0.0,0.0,0.0,0.1
1446035412569252146,3694,1446035412565279006,robocape,75.3100011412,20.0253697867,149.978644872,0.0,10.0,0.0,0.0,0.0,10.0,0.0,0.0,0.0,10.0,0.00825579937925,0.0122505410144,0.00825579937925,1.0,0.0,0.0,0.0,1.0,0.0,0.0,0.0,1.0,0.238304443359,-0.293389892578,10.1225500488,0.1,0.0,0.0,0.0,0.1,0.0,0.0,0.0,0.1
1446035412590253479,3695,1446035412588433027,robocape,75.3271304374,20.0222887548,149.9961997,0.0,10.0,0.0,0.0,0.0,10.0,0.0,0.0,0.0,10.0,0.00825579937925,0.0121173829599,0.00812264132474,1.0,0.0,0.0,0.0,1.0,0.0,0.0,0.0,1.0,0.252674560547,-0.296982421875,10.1057849121,0.1,0.0,0.0,0.0,0.1,0.0,0.0,0.0,0.1
1446035412615545146,3696,1446035412613743066,robocape,75.3449670424,20.0190999391,150.01363068,0.0,10.0,0.0,0.0,0.0,10.0,0.0,0.0,0.0,10.0,0.00892158965177,0.0119842249054,0.00825579937925,1.0,0.0,0.0,0.0,1.0,0.0,0.0,0.0,1.0,0.240699462891,-0.293389892578,10.1153649902,0.1,0.0,0.0,0.0,0.1,0.0,0.0,0.0,0.1
1446035412643006563,3697,1446035412641221046,robocape,75.3623338606,20.0159513161,150.031387092,0.0,10.0,0.0,0.0,0.0,10.0,0.0,0.0,0.0,10.0,0.00838895743375,0.0122505410144,0.00825579937925,1.0,0.0,0.0,0.0,1.0,0.0,0.0,0.0,1.0,0.243094482422,-0.295784912109,10.1441052246,0.1,0.0,0.0,0.0,0.1,0.0,0.0,0.0,0.1
1446035412673016229,3698,1446035412667325973,robocape,75.3801494431,20.0124892287,150.049476152,0.0,10.0,0.0,0.0,0.0,10.0,0.0,0.0,0.0,10.0,0.00865527354276,0.0123836990689,0.00878843159726,1.0,0.0,0.0,0.0,1.0,0.0,0.0,0.0,1.0,0.234711914063,-0.301772460938,10.1201550293,0.1,0.0,0.0,0.0,0.1,0.0,0.0,0.0,0.1
1446035412696925521,3699,1446035412695141077,robocape,75.3975944379,20.0089588704,150.067069817,0.0,10.0,0.0,0.0,0.0,10.0,0.0,0.0,0.0,10.0,0.00852211548825,0.0119842249054,0.00878843159726,1.0,0.0,0.0,0.0,1.0,0.0,0.0,0.0,1.0,0.239501953125,-0.293389892578,10.1033898926,0.1,0.0,0.0,0.0,0.1,0.0,0.0,0.0,0.1
1446035412716911854,3700,1446035412715109109,robocape,75.4151394562,20.0059916238,150.085595657,0.0,10.0,0.0,0.0,0.0,10.0,0.0,0.0,0.0,10.0,0.00825579937925,0.0129163312869,0.00812264132474,1.0,0.0,0.0,0.0,1.0,0.0,0.0,0.0,1.0,0.251477050781,-0.299377441406,10.1177600098,0.1,0.0,0.0,0.0,0.1,0.0,0.0,0.0,0.1
1446035412742414271,3701,1446035412740638017,robocape,75.4322641152,20.0024979979,150.103511602,0.0,10.0,0.0,0.0,0.0,10.0,0.0,0.0,0.0,10.0,0.00812264132474,0.0122505410144,0.00878843159726,1.0,0.0,0.0,0.0,1.0,0.0,0.0,0.0,1.0,0.245489501953,-0.305364990234,10.1045874023,0.1,0.0,0.0,0.0,0.1,0.0,0.0,0.0,0.1
1446035412770425521,3702,1446035412766469001,robocape,75.4486852122,19.9990626478,150.121217837,0.0,10.0,0.0,0.0,0.0,10.0,0.0,0.0,0.0,10.0,0.00759000910673,0.0121173829599,0.00865527354276,1.0,0.0,0.0,0.0,1.0,0.0,0.0,0.0,1.0,0.240699462891,-0.295784912109,10.1069824219,0.1,0.0,0.0,0.0,0.1,0.0,0.0,0.0,0.1
1446035412790269771,3703,1446035412788496017,robocape,75.4654706966,19.9956888179,150.139413587,0.0,10.0,0.0,0.0,0.0,10.0,0.0,0.0,0.0,10.0,0.00772316716123,0.0125168571234,0.00865527354276,1.0,0.0,0.0,0.0,1.0,0.0,0.0,0.0,1.0,0.252674560547,-0.28740234375,10.1261425781,0.1,0.0,0.0,0.0,0.1,0.0,0.0,0.0,0.1
1446035412815428604,3704,1446035412813515901,robocape,75.482791606,19.9922932239,150.158141354,0.0,10.0,0.0,0.0,0.0,10.0,0.0,0.0,0.0,10.0,0.00798948327024,0.0129163312869,0.00878843159726,1.0,0.0,0.0,0.0,1.0,0.0,0.0,0.0,1.0,0.24908203125,-0.281414794922,10.1417102051,0.1,0.0,0.0,0.0,0.1,0.0,0.0,0.0,0.1
1446035412841228438,3705,1446035412839469909,robocape,75.4995801294,19.9888727751,150.176702026,0.0,10.0,0.0,0.0,0.0,10.0,0.0,0.0,0.0,10.0,0.00759000910673,0.0127831732324,0.00878843159726,1.0,0.0,0.0,0.0,1.0,0.0,0.0,0.0,1.0,0.252674560547,-0.283809814453,10.1201550293,0.1,0.0,0.0,0.0,0.1,0.0,0.0,0.0,0.1
1446035412870215313,3706,1446035412868207931,robocape,75.5171446753,19.9857198619,150.195296625,0.0,10.0,0.0,0.0,0.0,10.0,0.0,0.0,0.0,10.0,0.00825579937925,0.0129163312869,0.00838895743375,1.0,0.0,0.0,0.0,1.0,0.0,0.0,0.0,1.0,0.239501953125,-0.290994873047,10.1261425781,0.1,0.0,0.0,0.0,0.1,0.0,0.0,0.0,0.1
1446035412891940813,3707,1446035412889683008,robocape,75.5346723182,19.9823731407,150.213110043,0.0,10.0,0.0,0.0,0.0,10.0,0.0,0.0,0.0,10.0,0.00852211548825,0.0122505410144,0.00852211548825,1.0,0.0,0.0,0.0,1.0,0.0,0.0,0.0,1.0,0.241896972656,-0.301772460938,10.1225500488,0.1,0.0,0.0,0.0,0.1,0.0,0.0,0.0,0.1
1446035412915197021,3708,1446035412913351058,robocape,75.5527719741,19.9788379172,150.2315399,0.0,10.0,0.0,0.0,0.0,10.0,0.0,0.0,0.0,10.0,0.00878843159726,0.0126500151779,0.00892158965177,1.0,0.0,0.0,0.0,1.0,0.0,0.0,0.0,1.0,0.232316894531,-0.295784912109,10.1165625,0.1,0.0,0.0,0.0,0.1,0.0,0.0,0.0,0.1
1446035412940564979,3709,1446035412938807010,robocape,75.5696281149,19.9757341613,150.249220637,0.0,10.0,0.0,0.0,0.0,10.0,0.0,0.0,0.0,10.0,0.00798948327024,0.0122505410144,0.00812264132474,1.0,0.0,0.0,0.0,1.0,0.0,0.0,0.0,1.0,0.247884521484,-0.302969970703,10.1141674805,0.1,0.0,0.0,0.0,0.1,0.0,0.0,0.0,0.1
1446035412969633771,3710,1446035412967463016,robocape,75.5869037106,19.9724418683,150.267517835,0.0,10.0,0.0,0.0,0.0,10.0,0.0,0.0,0.0,10.0,0.00812264132474,0.0126500151779,0.00852211548825,1.0,0.0,0.0,0.0,1.0,0.0,0.0,0.0,1.0,0.241896972656,-0.28740234375,10.1465002441,0.1,0.0,0.0,0.0,0.1,0.0,0.0,0.0,0.1
1446035412992097105,3711,1446035412989825963,robocape,75.6047596813,19.969269943,150.285399493,0.0,10.0,0.0,0.0,0.0,10.0,0.0,0.0,0.0,10.0,0.00878843159726,0.0123836990689,0.00825579937925,1.0,0.0,0.0,0.0,1.0,0.0,0.0,0.0,1.0,0.240699462891,-0.293389892578,10.1237475586,0.1,0.0,0.0,0.0,0.1,0.0,0.0,0.0,0.1
1446035413015132771,3712,1446035413013372898,robocape,75.622441961,19.9661779951,150.303236259,0.0,10.0,0.0,0.0,0.0,10.0,0.0,0.0,0.0,10.0,0.00865527354276,0.0123836990689,0.00812264132474,1.0,0.0,0.0,0.0,1.0,0.0,0.0,0.0,1.0,0.241896972656,-0.290994873047,10.136920166,0.1,0.0,0.0,0.0,0.1,0.0,0.0,0.0,0.1
1446035413040657980,3713,1446035413038917064,robocape,75.6394317117,19.96274982,150.321238544,0.0,10.0,0.0,0.0,0.0,10.0,0.0,0.0,0.0,10.0,0.00798948327024,0.0123836990689,0.00865527354276,1.0,0.0,0.0,0.0,1.0,0.0,0.0,0.0,1.0,0.240699462891,-0.275427246094,10.1081799316,0.1,0.0,0.0,0.0,0.1,0.0,0.0,0.0,0.1
1446035413068954605,3714,1446035413067158937,robocape,75.6570808329,19.9594248964,150.340058782,0.0,10.0,0.0,0.0,0.0,10.0,0.0,0.0,0.0,10.0,0.00825579937925,0.0130494893414,0.00865527354276,1.0,0.0,0.0,0.0,1.0,0.0,0.0,0.0,1.0,0.245489501953,-0.293389892578,10.1261425781,0.1,0.0,0.0,0.0,0.1,0.0,0.0,0.0,0.1
1446035413092173355,3715,1446035413090378999,robocape,75.673972262,19.9564085152,150.358544141,0.0,10.0,0.0,0.0,0.0,10.0,0.0,0.0,0.0,10.0,0.00772316716123,0.0129163312869,0.00812264132474,1.0,0.0,0.0,0.0,1.0,0.0,0.0,0.0,1.0,0.244291992188,-0.295784912109,10.1201550293,0.1,0.0,0.0,0.0,0.1,0.0,0.0,0.0,0.1
1446035413115072480,3716,1446035413113385915,robocape,75.691472725,19.9530343616,150.377030257,0.0,10.0,0.0,0.0,0.0,10.0,0.0,0.0,0.0,10.0,0.00825579937925,0.0127831732324,0.00865527354276,1.0,0.0,0.0,0.0,1.0,0.0,0.0,0.0,1.0,0.24908203125,-0.290994873047,10.1309326172,0.1,0.0,0.0,0.0,0.1,0.0,0.0,0.0,0.1
1446035413140456896,3717,1446035413138756990,robocape,75.7087040145,19.9491339277,150.394901641,0.0,10.0,0.0,0.0,0.0,10.0,0.0,0.0,0.0,10.0,0.00825579937925,0.0121173829599,0.00932106381528,1.0,0.0,0.0,0.0,1.0,0.0,0.0,0.0,1.0,0.232316894531,-0.301772460938,10.1213525391,0.1,0.0,0.0,0.0,0.1,0.0,0.0,0.0,0.1
1446035413167855438,3718,1446035413166146039,robocape,75.7262959567,19.9456499075,150.413957888,0.0,10.0,0.0,0.0,0.0,10.0,0.0,0.0,0.0,10.0,0.00812264132474,0.0131826473959,0.00892158965177,1.0,0.0,0.0,0.0,1.0,0.0,0.0,0.0,1.0,0.247884521484,-0.301772460938,10.1297351074,0.1,0.0,0.0,0.0,0.1,0.0,0.0,0.0,0.1
1446035413195016063,3719,1446035413192600965,robocape,75.7439565392,19.9425368652,150.432473939,0.0,10.0,0.0,0.0,0.0,10.0,0.0,0.0,0.0,10.0,0.00838895743375,0.0129163312869,0.00825579937925,1.0,0.0,0.0,0.0,1.0,0.0,0.0,0.0,1.0,0.239501953125,-0.298179931641,10.132130127,0.1,0.0,0.0,0.0,0.1,0.0,0.0,0.0,0.1
1446035413215266188,3720,1446035413213336944,robocape,75.7614788201,19.9396918655,150.451026406,0.0,10.0,0.0,0.0,0.0,10.0,0.0,0.0,0.0,10.0,0.00825579937925,0.0130494893414,0.00785632521573,1.0,0.0,0.0,0.0,1.0,0.0,0.0,0.0,1.0,0.243094482422,-0.294587402344,10.1117724609,0.1,0.0,0.0,0.0,0.1,0.0,0.0,0.0,0.1
1446035413240909605,3721,1446035413239090919,robocape,75.7794562954,19.9368435799,150.469576347,0.0,10.0,0.0,0.0,0.0,10.0,0.0,0.0,0.0,10.0,0.00865527354276,0.0130494893414,0.00785632521573,1.0,0.0,0.0,0.0,1.0,0.0,0.0,0.0,1.0,0.244291992188,-0.293389892578,10.096204834,0.1,0.0,0.0,0.0,0.1,0.0,0.0,0.0,0.1
1446035413267751188,3722,1446035413265980958,robocape,75.7961572127,19.933887513,150.488001159,0.0,10.0,0.0,0.0,0.0,10.0,0.0,0.0,0.0,10.0,0.00759000910673,0.0129163312869,0.00798948327024,1.0,0.0,0.0,0.0,1.0,0.0,0.0,0.0,1.0,0.256267089844,-0.298179931641,9.97286132813,0.1,0.0,0.0,0.0,0.1,0.0,0.0,0.0,0.1
1446035413293705521,3723,1446035413291811943,robocape,75.8131173066,19.9307815245,150.505972294,0.0,10.0,0.0,0.0,0.0,10.0,0.0,0.0,0.0,10.0,0.00798948327024,0.0125168571234,0.00812264132474,1.0,0.0,0.0,0.0,1.0,0.0,0.0,0.0,1.0,0.245489501953,-0.300574951172,10.1393151855,0.1,0.0,0.0,0.0,0.1,0.0,0.0,0.0,0.1
1446035413315288813,3724,1446035413313482046,robocape,75.8298861327,19.9278393461,150.523857837,0.0,10.0,0.0,0.0,0.0,10.0,0.0,0.0,0.0,10.0,0.00785632521573,0.0125168571234,0.00785632521573,1.0,0.0,0.0,0.0,1.0,0.0,0.0,0.0,1.0,0.24908203125,-0.296982421875,10.2662512207,0.1,0.0,0.0,0.0,0.1,0.0,0.0,0.0,0.1
1446035413340580396,3725,1446035413338820934,robocape,75.8466355607,19.9242675855,150.541702436,0.0,10.0,0.0,0.0,0.0,10.0,0.0,0.0,0.0,10.0,0.00785632521573,0.0122505410144,0.00878843159726,1.0,0.0,0.0,0.0,1.0,0.0,0.0,0.0,1.0,0.237106933594,-0.28740234375,10.1021923828,0.1,0.0,0.0,0.0,0.1,0.0,0.0,0.0,0.1
1446035413366485896,3726,1446035413364712953,robocape,75.863702471,19.9209648061,150.560282453,0.0,10.0,0.0,0.0,0.0,10.0,0.0,0.0,0.0,10.0,0.00785632521573,0.0129163312869,0.00852211548825,1.0,0.0,0.0,0.0,1.0,0.0,0.0,0.0,1.0,0.255069580078,-0.294587402344,10.1081799316,0.1,0.0,0.0,0.0,0.1,0.0,0.0,0.0,0.1
1446035413397526313,3727,1446035413395648956,robocape,75.8818803788,19.9174495331,150.57861372,0.0,10.0,0.0,0.0,0.0,10.0,0.0,0.0,0.0,10.0,0.00892158965177,0.0126500151779,0.00878843159726,1.0,0.0,0.0,0.0,1.0,0.0,0.0,0.0,1.0,0.255069580078,-0.298179931641,10.1177600098,0.1,0.0,0.0,0.0,0.1,0.0,0.0,0.0,0.1
1446035413415147063,3728,1446035413413404941,robocape,75.899444512,19.9142859703,150.596941027,0.0,10.0,0.0,0.0,0.0,10.0,0.0,0.0,0.0,10.0,0.00838895743375,0.0127831732324,0.00825579937925,1.0,0.0,0.0,0.0,1.0,0.0,0.0,0.0,1.0,0.256267089844,-0.305364990234,10.1153649902,0.1,0.0,0.0,0.0,0.1,0.0,0.0,0.0,0.1
1446035413440322605,3729,1446035413438555002,robocape,75.9166039655,19.9108680964,150.614691012,0.0,10.0,0.0,0.0,0.0,10.0,0.0,0.0,0.0,10.0,0.00825579937925,0.0122505410144,0.00852211548825,1.0,0.0,0.0,0.0,1.0,0.0,0.0,0.0,1.0,0.264649658203,-0.285007324219,10.1105749512,0.1,0.0,0.0,0.0,0.1,0.0,0.0,0.0,0.1
1446035413465748563,3730,1446035413463979959,robocape,75.933427348,19.907572509,150.632725446,0.0,10.0,0.0,0.0,0.0,10.0,0.0,0.0,0.0,10.0,0.00785632521573,0.0125168571234,0.00838895743375,1.0,0.0,0.0,0.0,1.0,0.0,0.0,0.0,1.0,0.244291992188,-0.296982421875,10.1285375977,0.1,0.0,0.0,0.0,0.1,0.0,0.0,0.0,0.1
1446035413494616188,3731,1446035413492621898,robocape,75.9500698092,19.9043990821,150.650346338,0.0,10.0,0.0,0.0,0.0,10.0,0.0,0.0,0.0,10.0,0.00785632521573,0.0122505410144,0.00812264132474,1.0,0.0,0.0,0.0,1.0,0.0,0.0,0.0,1.0,0.247884521484,-0.298179931641,10.1249450684,0.1,0.0,0.0,0.0,0.1,0.0,0.0,0.0,0.1
1446035413516815063,3732,1446035413515042066,robocape,75.9674623218,19.9012643605,150.668293078,0.0,10.0,0.0,0.0,0.0,10.0,0.0,0.0,0.0,10.0,0.00838895743375,0.0125168571234,0.00812264132474,1.0,0.0,0.0,0.0,1.0,0.0,0.0,0.0,1.0,0.245489501953,-0.28740234375,10.1093774414,0.1,0.0,0.0,0.0,0.1,0.0,0.0,0.0,0.1
1446035413540542688,3733,1446035413538790941,robocape,75.9841705601,19.8981055855,150.686072878,0.0,10.0,0.0,0.0,0.0,10.0,0.0,0.0,0.0,10.0,0.00785632521573,0.0123836990689,0.00812264132474,1.0,0.0,0.0,0.0,1.0,0.0,0.0,0.0,1.0,0.243094482422,-0.298179931641,10.1069824219,0.1,0.0,0.0,0.0,0.1,0.0,0.0,0.0,0.1
1446035413565795271,3734,1446035413564021110,robocape,76.0008124186,19.8948809396,150.704055281,0.0,10.0,0.0,0.0,0.0,10.0,0.0,0.0,0.0,10.0,0.00772316716123,0.0125168571234,0.00825579937925,1.0,0.0,0.0,0.0,1.0,0.0,0.0,0.0,1.0,0.241896972656,-0.292192382813,10.1069824219,0.1,0.0,0.0,0.0,0.1,0.0,0.0,0.0,0.1
1446035413593656605,3735,1446035413591701030,robocape,76.0176681321,19.8920715059,150.721830373,0.0,10.0,0.0,0.0,0.0,10.0,0.0,0.0,0.0,10.0,0.00798948327024,0.0125168571234,0.00759000910673,1.0,0.0,0.0,0.0,1.0,0.0,0.0,0.0,1.0,0.244291992188,-0.293389892578,10.132130127,0.1,0.0,0.0,0.0,0.1,0.0,0.0,0.0,0.1
1446035413616875521,3736,1446035413615041971,robocape,76.0344572499,19.8888406144,150.739807451,0.0,10.0,0.0,0.0,0.0,10.0,0.0,0.0,0.0,10.0,0.00785632521573,0.0125168571234,0.00825579937925,1.0,0.0,0.0,0.0,1.0,0.0,0.0,0.0,1.0,0.237106933594,-0.299377441406,10.1273400879,0.1,0.0,0.0,0.0,0.1,0.0,0.0,0.0,0.1
1446035413640128188,3737,1446035413638375997,robocape,76.0515772114,19.8858368592,150.757495043,0.0,10.0,0.0,0.0,0.0,10.0,0.0,0.0,0.0,10.0,0.00825579937925,0.0123836990689,0.00785632521573,1.0,0.0,0.0,0.0,1.0,0.0,0.0,0.0,1.0,0.244291992188,-0.293389892578,10.1117724609,0.1,0.0,0.0,0.0,0.1,0.0,0.0,0.0,0.1
1446035413671456438,3738,1446035413663904905,robocape,76.068450245,19.8828923681,150.775672979,0.0,10.0,0.0,0.0,0.0,10.0,0.0,0.0,0.0,10.0,0.00785632521573,0.0127831732324,0.00785632521573,1.0,0.0,0.0,0.0,1.0,0.0,0.0,0.0,1.0,0.240699462891,-0.296982421875,10.1177600098,0.1,0.0,0.0,0.0,0.1,0.0,0.0,0.0,0.1
1446035413694495147,3739,1446035413691971063,robocape,76.0863066295,19.8796097088,150.794011235,0.0,10.0,0.0,0.0,0.0,10.0,0.0,0.0,0.0,10.0,0.00865527354276,0.0127831732324,0.00838895743375,1.0,0.0,0.0,0.0,1.0,0.0,0.0,0.0,1.0,0.251477050781,-0.295784912109,9.97405883789,0.1,0.0,0.0,0.0,0.1,0.0,0.0,0.0,0.1
1446035413719650647,3740,1446035413717279911,robocape,76.1037302696,19.8761984496,150.812058673,0.0,10.0,0.0,0.0,0.0,10.0,0.0,0.0,0.0,10.0,0.00838895743375,0.0125168571234,0.00852211548825,1.0,0.0,0.0,0.0,1.0,0.0,0.0,0.0,1.0,0.229921875,-0.296982421875,10.1189575195,0.1,0.0,0.0,0.0,0.1,0.0,0.0,0.0,0.1
1446035413740349522,3741,1446035413738560914,robocape,76.1209623416,19.8725956044,150.830020093,0.0,10.0,0.0,0.0,0.0,10.0,0.0,0.0,0.0,10.0,0.00825579937925,0.0123836990689,0.00878843159726,1.0,0.0,0.0,0.0,1.0,0.0,0.0,0.0,1.0,0.257464599609,-0.458646240234,10.1177600098,0.1,0.0,0.0,0.0,0.1,0.0,0.0,0.0,0.1
1446035413765780688,3742,1446035413763931035,robocape,76.1384931277,19.8689883637,150.84867621,0.0,10.0,0.0,0.0,0.0,10.0,0.0,0.0,0.0,10.0,0.00825579937925,0.0129163312869,0.00892158965177,1.0,0.0,0.0,0.0,1.0,0.0,0.0,0.0,1.0,0.252674560547,-0.286204833984,10.1357226563,0.1,0.0,0.0,0.0,0.1,0.0,0.0,0.0,0.1
1446035413793918105,3743,1446035413792141914,robocape,76.1559436375,19.8657553962,150.866798003,0.0,10.0,0.0,0.0,0.0,10.0,0.0,0.0,0.0,10.0,0.00838895743375,0.0126500151779,0.00825579937925,1.0,0.0,0.0,0.0,1.0,0.0,0.0,0.0,1.0,0.243094482422,-0.293389892578,10.1273400879,0.1,0.0,0.0,0.0,0.1,0.0,0.0,0.0,0.1
1446035413818616522,3744,1446035413816585063,robocape,76.1726318637,19.8625204489,150.884219309,0.0,10.0,0.0,0.0,0.0,10.0,0.0,0.0,0.0,10.0,0.00798948327024,0.0121173829599,0.00812264132474,1.0,0.0,0.0,0.0,1.0,0.0,0.0,0.0,1.0,0.244291992188,-0.295784912109,10.1165625,0.1,0.0,0.0,0.0,0.1,0.0,0.0,0.0,0.1
1446035413840445063,3745,1446035413838408946,robocape,76.1898728558,19.8588218539,150.901511294,0.0,10.0,0.0,0.0,0.0,10.0,0.0,0.0,0.0,10.0,0.00852211548825,0.0118510668509,0.00878843159726,1.0,0.0,0.0,0.0,1.0,0.0,0.0,0.0,1.0,0.231119384766,-0.299377441406,10.1213525391,0.1,0.0,0.0,0.0,0.1,0.0,0.0,0.0,0.1
1446035413865639897,3746,1446035413863867998,robocape,76.2069278756,19.8555997482,150.91978902,0.0,10.0,0.0,0.0,0.0,10.0,0.0,0.0,0.0,10.0,0.00798948327024,0.0127831732324,0.00825579937925,1.0,0.0,0.0,0.0,1.0,0.0,0.0,0.0,1.0,0.235909423828,-0.302969970703,10.1057849121,0.1,0.0,0.0,0.0,0.1,0.0,0.0,0.0,0.1
1446035413893303272,3747,1446035413891519069,robocape,76.2238349266,19.8523775374,150.936668755,0.0,10.0,0.0,0.0,0.0,10.0,0.0,0.0,0.0,10.0,0.00838895743375,0.0117179087963,0.00798948327024,1.0,0.0,0.0,0.0,1.0,0.0,0.0,0.0,1.0,0.252674560547,-0.304167480469,10.0866247559,0.1,0.0,0.0,0.0,0.1,0.0,0.0,0.0,0.1
1446035413920095397,3748,1446035413917772054,robocape,76.2408170985,19.8491300791,150.954079075,0.0,10.0,0.0,0.0,0.0,10.0,0.0,0.0,0.0,10.0,0.00825579937925,0.0121173829599,0.00812264132474,1.0,0.0,0.0,0.0,1.0,0.0,0.0,0.0,1.0,0.243094482422,-0.313747558594,10.152487793,0.1,0.0,0.0,0.0,0.1,0.0,0.0,0.0,0.1
1446035413940184855,3749,1446035413938411951,robocape,76.2579262744,19.8456053865,150.972140494,0.0,10.0,0.0,0.0,0.0,10.0,0.0,0.0,0.0,10.0,0.00812264132474,0.0125168571234,0.00865527354276,1.0,0.0,0.0,0.0,1.0,0.0,0.0,0.0,1.0,0.244291992188,-0.296982421875,10.1213525391,0.1,0.0,0.0,0.0,0.1,0.0,0.0,0.0,0.1
1446035413965252480,3750,1446035413963480949,robocape,76.2754315049,19.8423721227,150.989709598,0.0,10.0,0.0,0.0,0.0,10.0,0.0,0.0,0.0,10.0,0.00865527354276,0.0122505410144,0.00812264132474,1.0,0.0,0.0,0.0,1.0,0.0,0.0,0.0,1.0,0.245489501953,-0.299377441406,10.1189575195,0.1,0.0,0.0,0.0,0.1,0.0,0.0,0.0,0.1
1446035413991835772,3751,1446035413990062952,robocape,76.2925990411,19.8389042547,151.007560594,0.0,10.0,0.0,0.0,0.0,10.0,0.0,0.0,0.0,10.0,0.00825579937925,0.0123836990689,0.00852211548825,1.0,0.0,0.0,0.0,1.0,0.0,0.0,0.0,1.0,0.239501953125,-0.300574951172,10.1117724609,0.1,0.0,0.0,0.0,0.1,0.0,0.0,0.0,0.1
1446035414019779605,3752,1446035414017924070,robocape,76.3095764678,19.8356011071,151.025328556,0.0,10.0,0.0,0.0,0.0,10.0,0.0,0.0,0.0,10.0,0.00812264132474,0.0123836990689,0.00825579937925,1.0,0.0,0.0,0.0,1.0,0.0,0.0,0.0,1.0,0.250279541016,-0.301772460938,10.1117724609,0.1,0.0,0.0,0.0,0.1,0.0,0.0,0.0,0.1
1446035414040724647,3753,1446035414038719892,robocape,76.326516581,19.8324627962,151.043013741,0.0,10.0,0.0,0.0,0.0,10.0,0.0,0.0,0.0,10.0,0.00812264132474,0.0123836990689,0.00798948327024,1.0,0.0,0.0,0.0,1.0,0.0,0.0,0.0,1.0,0.251477050781,-0.292192382813,10.1165625,0.1,0.0,0.0,0.0,0.1,0.0,0.0,0.0,0.1
1446035414065330605,3754,1446035414063564062,robocape,76.3433358615,19.8291533269,151.060776195,0.0,10.0,0.0,0.0,0.0,10.0,0.0,0.0,0.0,10.0,0.00798948327024,0.0123836990689,0.00825579937925,1.0,0.0,0.0,0.0,1.0,0.0,0.0,0.0,1.0,0.255069580078,-0.296982421875,10.1141674805,0.1,0.0,0.0,0.0,0.1,0.0,0.0,0.0,0.1
1446035414091045188,3755,1446035414089107036,robocape,76.3602232198,19.8258611006,151.078700239,0.0,10.0,0.0,0.0,0.0,10.0,0.0,0.0,0.0,10.0,0.00798948327024,0.0125168571234,0.00825579937925,1.0,0.0,0.0,0.0,1.0,0.0,0.0,0.0,1.0,0.238304443359,-0.307760009766,10.1393151855,0.1,0.0,0.0,0.0,0.1,0.0,0.0,0.0,0.1
1446035414120423147,3756,1446035414118614912,robocape,76.3777393701,19.822081635,151.097024923,0.0,10.0,0.0,0.0,0.0,10.0,0.0,0.0,0.0,10.0,0.00838895743375,0.0126500151779,0.00905474770627,1.0,0.0,0.0,0.0,1.0,0.0,0.0,0.0,1.0,0.255069580078,-0.298179931641,10.1273400879,0.1,0.0,0.0,0.0,0.1,0.0,0.0,0.0,0.1
1446035414142099230,3757,1446035414139857053,robocape,76.3949796401,19.8188872749,151.115067785,0.0,10.0,0.0,0.0,0.0,10.0,0.0,0.0,0.0,10.0,0.00825579937925,0.0126500151779,0.00812264132474,1.0,0.0,0.0,0.0,1.0,0.0,0.0,0.0,1.0,0.255069580078,-0.302969970703,10.1153649902,0.1,0.0,0.0,0.0,0.1,0.0,0.0,0.0,0.1
1446035414165377813,3758,1446035414163636922,robocape,76.4121913503,19.815460454,151.132694291,0.0,10.0,0.0,0.0,0.0,10.0,0.0,0.0,0.0,10.0,0.00838895743375,0.0122505410144,0.00838895743375,1.0,0.0,0.0,0.0,1.0,0.0,0.0,0.0,1.0,0.241896972656,-0.294587402344,10.1081799316,0.1,0.0,0.0,0.0,0.1,0.0,0.0,0.0,0.1
1446035414190688730,3759,1446035414188862085,robocape,76.4292671382,19.8123030877,151.150363202,0.0,10.0,0.0,0.0,0.0,10.0,0.0,0.0,0.0,10.0,0.00825579937925,0.0123836990689,0.00798948327024,1.0,0.0,0.0,0.0,1.0,0.0,0.0,0.0,1.0,0.228724365234,-0.307760009766,10.1045874023,0.1,0.0,0.0,0.0,0.1,0.0,0.0,0.0,0.1
1446035414217833897,3760,1446035414215835094,robocape,76.4467027293,19.8088465862,151.168516758,0.0,10.0,0.0,0.0,0.0,10.0,0.0,0.0,0.0,10.0,0.00838895743375,0.0126500151779,0.00852211548825,1.0,0.0,0.0,0.0,1.0,0.0,0.0,0.0,1.0,0.243094482422,-0.310155029297,10.1165625,0.1,0.0,0.0,0.0,0.1,0.0,0.0,0.0,0.1
1446035414241601522,3761,1446035414239658117,robocape,76.464093692,19.8051950679,151.187279254,0.0,10.0,0.0,0.0,0.0,10.0,0.0,0.0,0.0,10.0,0.00812264132474,0.0130494893414,0.00892158965177,1.0,0.0,0.0,0.0,1.0,0.0,0.0,0.0,1.0,0.217946777344,-0.304167480469,10.132130127,0.1,0.0,0.0,0.0,0.1,0.0,0.0,0.0,0.1
1446035414265399772,3762,1446035414263525009,robocape,76.4814951361,19.8018564974,151.205716045,0.0,10.0,0.0,0.0,0.0,10.0,0.0,0.0,0.0,10.0,0.00825579937925,0.0129163312869,0.00838895743375,1.0,0.0,0.0,0.0,1.0,0.0,0.0,0.0,1.0,0.237106933594,-0.316142578125,10.1225500488,0.1,0.0,0.0,0.0,0.1,0.0,0.0,0.0,0.1
1446035414290719897,3763,1446035414288969993,robocape,76.4916706336,19.8123594406,151.218001357,0.0,10.0,0.0,0.0,0.0,10.0,0.0,0.0,0.0,10.0,0.00426105774413,0.0131826473959,-0.0134489635049,1.0,0.0,0.0,0.0,1.0,0.0,0.0,0.0,1.0,0.239501953125,-0.561632080078,10.1189575195,0.1,0.0,0.0,0.0,0.1,0.0,0.0,0.0,0.1
1446035414318137022,3764,1446035414316380977,robocape,76.540668493,19.8340591767,151.220871664,0.0,10.0,0.0,0.0,0.0,10.0,0.0,0.0,0.0,10.0,0.0416784710597,0.0099868540878,-0.031957933081,1.0,0.0,0.0,0.0,1.0,0.0,0.0,0.0,1.0,0.192799072266,0.136516113281,10.0686621094,0.1,0.0,0.0,0.0,0.1,0.0,0.0,0.0,0.1
1446035414344551647,3765,1446035414342262029,robocape,76.543872159,19.8618609541,151.222283108,0.0,10.0,0.0,0.0,0.0,10.0,0.0,0.0,0.0,10.0,0.00226368692657,0.0110521185238,-0.0414121549507,1.0,0.0,0.0,0.0,1.0,0.0,0.0,0.0,1.0,0.265847167969,0.270637207031,10.1584753418,0.1,0.0,0.0,0.0,0.1,0.0,0.0,0.0,0.1
1446035414366732814,3766,1446035414364887952,robocape,76.4383869458,19.8710490359,151.232053755,0.0,10.0,0.0,0.0,0.0,10.0,0.0,0.0,0.0,10.0,-0.0957406411883,0.0107858024148,-0.0119842249054,1.0,0.0,0.0,0.0,1.0,0.0,0.0,0.0,1.0,0.217946777344,-0.184416503906,10.1309326172,0.1,0.0,0.0,0.0,0.1,0.0,0.0,0.0,0.1
1446035414391137522,3767,1446035414389355897,robocape,76.3511279891,19.8980292319,151.234217494,0.0,10.0,0.0,0.0,0.0,10.0,0.0,0.0,0.0,10.0,-0.0769653555033,0.0114515926873,-0.0400805744057,1.0,0.0,0.0,0.0,1.0,0.0,0.0,0.0,1.0,0.264649658203,-0.0502954101563,10.0950073242,0.1,0.0,0.0,0.0,0.1,0.0,0.0,0.0,0.1
1446035414417667730,3768,1446035414415919065,robocape,76.2620404629,19.9332358854,151.232865435,0.0,10.0,0.0,0.0,0.0,10.0,0.0,0.0,0.0,10.0,-0.0772316716123,0.0118510668509,-0.0531300637471,1.0,0.0,0.0,0.0,1.0,0.0,0.0,0.0,1.0,0.204774169922,-1.28013793945,10.1764379883,0.1,0.0,0.0,0.0,0.1,0.0,0.0,0.0,0.1
1446035414444603480,3769,1446035414442373991,robocape,76.2641876735,19.9639614377,151.233592646,0.0,10.0,0.0,0.0,0.0,10.0,0.0,0.0,0.0,10.0,0.00159789665405,0.0118510668509,-0.0460726868584,1.0,0.0,0.0,0.0,1.0,0.0,0.0,0.0,1.0,0.328117675781,-0.155676269531,10.0746496582,0.1,0.0,0.0,0.0,0.1,0.0,0.0,0.0,0.1
1446035414465312939,3770,1446035414463483095,robocape,76.2757826781,20.012857279,151.22448665,0.0,10.0,0.0,0.0,0.0,10.0,0.0,0.0,0.0,10.0,0.0135821215594,0.0110521185238,-0.0753674588492,1.0,0.0,0.0,0.0,1.0,0.0,0.0,0.0,1.0,0.21076171875,-0.490979003906,10.157277832,0.1,0.0,0.0,0.0,0.1,0.0,0.0,0.0,0.1
1446035414490808647,3771,1446035414489008903,robocape,76.2503936329,20.0481374606,151.220160913,0.0,10.0,0.0,0.0,0.0,10.0,0.0,0.0,0.0,10.0,-0.0205063403936,0.00972053797879,-0.0540621701286,1.0,0.0,0.0,0.0,1.0,0.0,0.0,0.0,1.0,0.273032226563,-0.332907714844,10.1261425781,0.1,0.0,0.0,0.0,0.1,0.0,0.0,0.0,0.1
1446035414516615230,3772,1446035414514799118,robocape,76.1872248492,20.0714839032,151.221560793,0.0,10.0,0.0,0.0,0.0,10.0,0.0,0.0,0.0,10.0,-0.0556600667827,0.00972053797879,-0.0350205683345,1.0,0.0,0.0,0.0,1.0,0.0,0.0,0.0,1.0,0.213156738281,0.136516113281,10.0890197754,0.1,0.0,0.0,0.0,0.1,0.0,0.0,0.0,0.1
1446035414543574147,3773,1446035414541729927,robocape,76.1051322562,20.0797856108,151.230959715,0.0,10.0,0.0,0.0,0.0,10.0,0.0,0.0,0.0,10.0,-0.0752343007947,0.0102531701968,-0.0107858024148,1.0,0.0,0.0,0.0,1.0,0.0,0.0,0.0,1.0,0.195194091797,-0.627495117188,10.1225500488,0.1,0.0,0.0,0.0,0.1,0.0,0.0,0.0,0.1
1446035414568178105,3774,1446035414565951108,robocape,76.0801124409,20.0923167291,151.240363609,0.0,10.0,0.0,0.0,0.0,10.0,0.0,0.0,0.0,10.0,-0.0254331884103,0.0118510668509,-0.017177389031,1.0,0.0,0.0,0.0,1.0,0.0,0.0,0.0,1.0,0.276624755859,-0.762813720703,10.152487793,0.1,0.0,0.0,0.0,0.1,0.0,0.0,0.0,0.1
1446035414590481772,3775,1446035414588728904,robocape,76.0977940105,20.1024985082,151.251446037,0.0,10.0,0.0,0.0,0.0,10.0,0.0,0.0,0.0,10.0,0.0111852765783,0.0122505410144,-0.0133158054504,1.0,0.0,0.0,0.0,1.0,0.0,0.0,0.0,1.0,0.220341796875,-0.519719238281,10.1189575195,0.1,0.0,0.0,0.0,0.1,0.0,0.0,0.0,0.1
1446035414615897022,3776,1446035414614123106,robocape,76.1073624379,20.0961983211,151.270115295,0.0,10.0,0.0,0.0,0.0,10.0,0.0,0.0,0.0,10.0,0.00119842249054,0.0118510668509,0.0130494893414,1.0,0.0,0.0,0.0,1.0,0.0,0.0,0.0,1.0,0.274229736328,-0.486188964844,10.1381176758,0.1,0.0,0.0,0.0,0.1,0.0,0.0,0.0,0.1
1446035414644217772,3777,1446035414641804933,robocape,76.1268151563,20.0669985946,151.305084482,0.0,10.0,0.0,0.0,0.0,10.0,0.0,0.0,0.0,10.0,0.00359526747161,0.0157126504315,0.050733218766,1.0,0.0,0.0,0.0,1.0,0.0,0.0,0.0,1.0,0.258662109375,-0.346080322266,10.1716479492,0.1,0.0,0.0,0.0,0.1,0.0,0.0,0.0,0.1
1446035414669121855,3778,1446035414666585922,robocape,76.0961745752,19.997377546,151.356121169,0.0,10.0,0.0,0.0,0.0,10.0,0.0,0.0,0.0,10.0,-0.0462058449129,0.0129163312869,0.114649084928,1.0,0.0,0.0,0.0,1.0,0.0,0.0,0.0,1.0,0.296982421875,-0.8047265625,10.1273400879,0.1,0.0,0.0,0.0,0.1,0.0,0.0,0.0,0.1
1446035414693950064,3779,1446035414691627025,robocape,76.1507472373,19.9399109187,151.405421783,0.0,10.0,0.0,0.0,0.0,10.0,0.0,0.0,0.0,10.0,0.0288952978274,0.0162452826495,0.0957406411883,1.0,0.0,0.0,0.0,1.0,0.0,0.0,0.0,1.0,0.295784912109,-1.00830322266,10.1393151855,0.1,0.0,0.0,0.0,0.1,0.0,0.0,0.0,0.1
1446035414717699564,3780,1446035414715907096,robocape,76.2867661904,19.8889148716,151.450239439,0.0,10.0,0.0,0.0,0.0,10.0,0.0,0.0,0.0,10.0,0.101732753641,0.0154463343225,0.0849548387735,1.0,0.0,0.0,0.0,1.0,0.0,0.0,0.0,1.0,0.198786621094,-0.942440185547,10.1488952637,0.1,0.0,0.0,0.0,0.1,0.0,0.0,0.0,0.1
1446035414744771772,3781,1446035414742914915,robocape,76.5470362976,19.8744448891,151.479040862,0.0,10.0,0.0,0.0,0.0,10.0,0.0,0.0,0.0,10.0,0.216248680514,0.0167779148675,0.0270310850643,1.0,0.0,0.0,0.0,1.0,0.0,0.0,0.0,1.0,0.166453857422,-0.713715820313,10.1764379883,0.1,0.0,0.0,0.0,0.1,0.0,0.0,0.0,0.1
1446035414767044355,3782,1446035414764748096,robocape,76.7874661978,19.8372045309,151.514589659,0.0,10.0,0.0,0.0,0.0,10.0,0.0,0.0,0.0,10.0,0.196408130393,0.0139815957229,0.0623179695079,1.0,0.0,0.0,0.0,1.0,0.0,0.0,0.0,1.0,0.241896972656,0.0598754882813,10.0830322266,0.1,0.0,0.0,0.0,0.1,0.0,0.0,0.0,0.1
1446035414790258855,3783,1446035414788502931,robocape,76.9822166413,19.8040718068,151.54513537,0.0,10.0,0.0,0.0,0.0,10.0,0.0,0.0,0.0,10.0,0.15845808486,0.0118510668509,0.0551274345646,1.0,0.0,0.0,0.0,1.0,0.0,0.0,0.0,1.0,0.246687011719,0.267044677734,10.096204834,0.1,0.0,0.0,0.0,0.1,0.0,0.0,0.0,0.1
1446035414815781564,3784,1446035414814021110,robocape,77.1155046951,19.7847105267,151.570131877,0.0,10.0,0.0,0.0,0.0,10.0,0.0,0.0,0.0,10.0,0.106925917767,0.0125168571234,0.0334226716805,1.0,0.0,0.0,0.0,1.0,0.0,0.0,0.0,1.0,0.282612304688,0.611927490234,10.1177600098,0.1,0.0,0.0,0.0,0.1,0.0,0.0,0.0,0.1
1446035414843340564,3785,1446035414841538906,robocape,77.1289036048,19.7523219617,151.604151279,0.0,10.0,0.0,0.0,0.0,10.0,0.0,0.0,0.0,10.0,-0.00106526443603,0.0150468601589,0.0544616442921,1.0,0.0,0.0,0.0,1.0,0.0,0.0,0.0,1.0,0.274229736328,0.525706787109,10.0686621094,0.1,0.0,0.0,0.0,0.1,0.0,0.0,0.0,0.1
1446035414866704522,3786,1446035414864662885,robocape,77.0717344933,19.7418882081,151.625959995,0.0,10.0,0.0,0.0,0.0,10.0,0.0,0.0,0.0,10.0,-0.0580569117637,0.0131826473959,0.0194410759576,1.0,0.0,0.0,0.0,1.0,0.0,0.0,0.0,1.0,0.252674560547,0.09580078125,10.1560803223,0.1,0.0,0.0,0.0,0.1,0.0,0.0,0.0,0.1
1446035414890707522,3787,1446035414888855934,robocape,76.9938795817,19.7407388653,151.642595683,0.0,10.0,0.0,0.0,0.0,10.0,0.0,0.0,0.0,10.0,-0.0741690363587,0.0123836990689,0.00466053190764,1.0,0.0,0.0,0.0,1.0,0.0,0.0,0.0,1.0,0.241896972656,-0.135318603516,10.1692529297,0.1,0.0,0.0,0.0,0.1,0.0,0.0,0.0,0.1
1446035414915599355,3788,1446035414913748025,robocape,76.9341239175,19.741102623,151.658383546,0.0,10.0,0.0,0.0,0.0,10.0,0.0,0.0,0.0,10.0,-0.0580569117637,0.0122505410144,0.00226368692657,1.0,0.0,0.0,0.0,1.0,0.0,0.0,0.0,1.0,0.243094482422,-0.492176513672,9.98244140625,0.1,0.0,0.0,0.0,0.1,0.0,0.0,0.0,0.1
1446035414942386772,3789,1446035414940589904,robocape,76.9162373837,19.7399693027,151.67502322,0.0,10.0,0.0,0.0,0.0,10.0,0.0,0.0,0.0,10.0,-0.0218379209386,0.0123836990689,0.00466053190764,1.0,0.0,0.0,0.0,1.0,0.0,0.0,0.0,1.0,0.227526855469,-0.696950683594,10.0866247559,0.1,0.0,0.0,0.0,0.1,0.0,0.0,0.0,0.1
1446035414967165480,3790,1446035414965394020,robocape,76.9494337879,19.7354257576,151.69372131,0.0,10.0,0.0,0.0,0.0,10.0,0.0,0.0,0.0,10.0,0.0219710789932,0.0127831732324,0.0101200121423,1.0,0.0,0.0,0.0,1.0,0.0,0.0,0.0,1.0,0.226329345703,-0.684975585938,10.1033898926,0.1,0.0,0.0,0.0,0.1,0.0,0.0,0.0,0.1
1446035414990745564,3791,1446035414988857030,robocape,77.0426284218,19.7374056876,151.709647277,0.0,10.0,0.0,0.0,0.0,10.0,0.0,0.0,0.0,10.0,0.0753674588492,0.0129163312869,-0.000133158054504,1.0,0.0,0.0,0.0,1.0,0.0,0.0,0.0,1.0,0.228724365234,-0.74724609375,10.100994873,0.1,0.0,0.0,0.0,0.1,0.0,0.0,0.0,0.1
1446035415015529730,3792,1446035415013828992,robocape,77.1969336978,19.772369113,151.707250481,0.0,10.0,0.0,0.0,0.0,10.0,0.0,0.0,0.0,10.0,0.135554899485,0.0101200121423,-0.0527305895836,1.0,0.0,0.0,0.0,1.0,0.0,0.0,0.0,1.0,0.183218994141,0.0359252929688,10.157277832,0.1,0.0,0.0,0.0,0.1,0.0,0.0,0.0,0.1
1446035415042562522,3793,1446035415040617942,robocape,77.3129949926,19.84819772,151.686223202,0.0,10.0,0.0,0.0,0.0,10.0,0.0,0.0,0.0,10.0,0.109189604693,0.00958737992429,-0.117445404072,1.0,0.0,0.0,0.0,1.0,0.0,0.0,0.0,1.0,0.365240478516,0.385598144531,10.1297351074,0.1,0.0,0.0,0.0,0.1,0.0,0.0,0.0,0.1
1446035415069932147,3794,1446035415067671060,robocape,77.3176911768,19.9174109797,151.66675912,0.0,10.0,0.0,0.0,0.0,10.0,0.0,0.0,0.0,10.0,0.0114515926873,0.00852211548825,-0.107591708039,1.0,0.0,0.0,0.0,1.0,0.0,0.0,0.0,1.0,0.221539306641,1.18313964844,10.0075891113,0.1,0.0,0.0,0.0,0.1,0.0,0.0,0.0,0.1
1446035415091568147,3795,1446035415089781045,robocape,77.1049498629,19.978879159,151.653694338,0.0,10.0,0.0,0.0,0.0,10.0,0.0,0.0,0.0,10.0,-0.180695479962,0.0110521185238,-0.0950748509158,1.0,0.0,0.0,0.0,1.0,0.0,0.0,0.0,1.0,0.343685302734,1.16517700195,10.2039807129,0.1,0.0,0.0,0.0,0.1,0.0,0.0,0.0,0.1
1446035415116155939,3796,1446035415114382982,robocape,76.7841774389,20.0251123846,151.643124239,0.0,10.0,0.0,0.0,0.0,10.0,0.0,0.0,0.0,10.0,-0.275903488932,0.00812264132474,-0.0717721913776,1.0,0.0,0.0,0.0,1.0,0.0,0.0,0.0,1.0,0.176033935547,-0.0227526855469,10.1069824219,0.1,0.0,0.0,0.0,0.1,0.0,0.0,0.0,0.1
1446035415140878314,3797,1446035415139112949,robocape,76.514448344,20.0778896235,151.626841377,0.0,10.0,0.0,0.0,0.0,10.0,0.0,0.0,0.0,10.0,-0.229165011801,0.00652474467069,-0.0828243099015,1.0,0.0,0.0,0.0,1.0,0.0,0.0,0.0,1.0,0.143701171875,-0.689765625,10.0902172852,0.1,0.0,0.0,0.0,0.1,0.0,0.0,0.0,0.1
1446035415169405272,3798,1446035415167232990,robocape,76.2704433186,20.1148963782,151.616023973,0.0,10.0,0.0,0.0,0.0,10.0,0.0,0.0,0.0,10.0,-0.208791829462,0.00532632218016,-0.0580569117637,1.0,0.0,0.0,0.0,1.0,0.0,0.0,0.0,1.0,0.338895263672,-0.912502441406,10.0890197754,0.1,0.0,0.0,0.0,0.1,0.0,0.0,0.0,0.1
1446035415192437856,3799,1446035415189817905,robocape,76.0946218994,20.1492864012,151.611422866,0.0,10.0,0.0,0.0,0.0,10.0,0.0,0.0,0.0,10.0,-0.15166702408,0.00932106381528,-0.0529969056926,1.0,0.0,0.0,0.0,1.0,0.0,0.0,0.0,1.0,0.0634680175781,-1.25618774414,10.2051782227,0.1,0.0,0.0,0.0,0.1,0.0,0.0,0.0,0.1
1446035415215333439,3800,1446035415213568925,robocape,76.020603289,20.1869829765,151.604124417,0.0,10.0,0.0,0.0,0.0,10.0,0.0,0.0,0.0,10.0,-0.0617853372898,0.00865527354276,-0.0585895439817,1.0,0.0,0.0,0.0,1.0,0.0,0.0,0.0,1.0,0.343685302734,-1.31726074219,10.1333276367,0.1,0.0,0.0,0.0,0.1,0.0,0.0,0.0,0.1
1446035415241227106,3801,1446035415239386081,robocape,76.0228010834,20.1985923106,151.613593562,0.0,10.0,0.0,0.0,0.0,10.0,0.0,0.0,0.0,10.0,-0.00173105470855,0.0115847507418,-0.015845808486,1.0,0.0,0.0,0.0,1.0,0.0,0.0,0.0,1.0,0.334105224609,-1.04542602539,10.1045874023,0.1,0.0,0.0,0.0,0.1,0.0,0.0,0.0,0.1
1446035415268099439,3802,1446035415265871047,robocape,76.0764142089,20.1992183408,151.631333531,0.0,10.0,0.0,0.0,0.0,10.0,0.0,0.0,0.0,10.0,0.0399474163512,0.0137152796139,0.00239684498107,1.0,0.0,0.0,0.0,1.0,0.0,0.0,0.0,1.0,0.219144287109,-1.23104003906,10.1620678711,0.1,0.0,0.0,0.0,0.1,0.0,0.0,0.0,0.1
1446035415291611231,3803,1446035415289805889,robocape,76.2221265133,20.1999238901,151.654109174,0.0,10.0,0.0,0.0,0.0,10.0,0.0,0.0,0.0,10.0,0.118377510454,0.0175768631945,0.0031957933081,1.0,0.0,0.0,0.0,1.0,0.0,0.0,0.0,1.0,0.234711914063,-0.904119873047,10.0926123047,0.1,0.0,0.0,0.0,0.1,0.0,0.0,0.0,0.1
1446035415315329647,3804,1446035415313572883,robocape,76.3912623255,20.1871447687,151.685016438,0.0,10.0,0.0,0.0,0.0,10.0,0.0,0.0,0.0,10.0,0.13568805754,0.0187752856851,0.0251668723012,1.0,0.0,0.0,0.0,1.0,0.0,0.0,0.0,1.0,0.354462890625,-0.571212158203,10.1189575195,0.1,0.0,0.0,0.0,0.1,0.0,0.0,0.0,0.1
1446035415340488856,3805,1446035415338701963,robocape,76.5633279253,20.1749302766,151.711522246,0.0,10.0,0.0,0.0,0.0,10.0,0.0,0.0,0.0,10.0,0.139949115284,0.0157126504315,0.0234358175927,1.0,0.0,0.0,0.0,1.0,0.0,0.0,0.0,1.0,0.241896972656,-0.237106933594,10.1273400879,0.1,0.0,0.0,0.0,0.1,0.0,0.0,0.0,0.1
1446035415369066689,3806,1446035415367296934,robocape,76.6853559581,20.1689796447,151.73357071,0.0,10.0,0.0,0.0,0.0,10.0,0.0,0.0,0.0,10.0,0.0980043281149,0.0146473859954,0.0130494893414,1.0,0.0,0.0,0.0,1.0,0.0,0.0,0.0,1.0,0.280217285156,0.108973388672,10.1177600098,0.1,0.0,0.0,0.0,0.1,0.0,0.0,0.0,0.1
1446035415392250772,3807,1446035415390166997,robocape,76.7468725422,20.1670020312,151.751621142,0.0,10.0,0.0,0.0,0.0,10.0,0.0,0.0,0.0,10.0,0.0467384771309,0.0130494893414,0.00625842856169,1.0,0.0,0.0,0.0,1.0,0.0,0.0,0.0,1.0,0.233514404297,0.302969970703,10.0890197754,0.1,0.0,0.0,0.0,0.1,0.0,0.0,0.0,0.1
1446035415415150314,3808,1446035415413403987,robocape,76.7384537625,20.1655903183,151.767829201,0.0,10.0,0.0,0.0,0.0,10.0,0.0,0.0,0.0,10.0,-0.0135821215594,0.0118510668509,0.00506000607115,1.0,0.0,0.0,0.0,1.0,0.0,0.0,0.0,1.0,0.273032226563,0.116158447266,10.1237475586,0.1,0.0,0.0,0.0,0.1,0.0,0.0,0.0,0.1
1446035415440321314,3809,1446035415438580989,robocape,76.6767244525,20.1655383117,151.78217716,0.0,10.0,0.0,0.0,0.0,10.0,0.0,0.0,0.0,10.0,-0.0593884923088,0.0109189604693,0.00266316109008,1.0,0.0,0.0,0.0,1.0,0.0,0.0,0.0,1.0,0.250279541016,-0.182021484375,10.1357226563,0.1,0.0,0.0,0.0,0.1,0.0,0.0,0.0,0.1
1446035415468321606,3810,1446035415466556072,robocape,76.6136407417,20.1665390805,151.797952072,0.0,10.0,0.0,0.0,0.0,10.0,0.0,0.0,0.0,10.0,-0.0611195470173,0.0123836990689,0.00133158054504,1.0,0.0,0.0,0.0,1.0,0.0,0.0,0.0,1.0,0.328117675781,-0.506546630859,10.1153649902,0.1,0.0,0.0,0.0,0.1,0.0,0.0,0.0,0.1
1446035415495014356,3811,1446035415491651058,robocape,76.5802277867,20.1657317746,151.813190491,0.0,10.0,0.0,0.0,0.0,10.0,0.0,0.0,0.0,10.0,-0.0350205683345,0.0113184346328,0.00399474163512,1.0,0.0,0.0,0.0,1.0,0.0,0.0,0.0,1.0,0.234711914063,-0.738863525391,10.1285375977,0.1,0.0,0.0,0.0,0.1,0.0,0.0,0.0,0.1
1446035415515594814,3812,1446035415513643980,robocape,76.5916865803,20.1641726926,151.8301856,0.0,10.0,0.0,0.0,0.0,10.0,0.0,0.0,0.0,10.0,0.0034621094171,0.0123836990689,0.00545948023466,1.0,0.0,0.0,0.0,1.0,0.0,0.0,0.0,1.0,0.208366699219,-0.743653564453,10.1476977539,0.1,0.0,0.0,0.0,0.1,0.0,0.0,0.0,0.1
1446035415540874022,3813,1446035415539170026,robocape,76.6398650216,20.1592429823,151.850523916,0.0,10.0,0.0,0.0,0.0,10.0,0.0,0.0,0.0,10.0,0.0342216200075,0.0137152796139,0.0111852765783,1.0,0.0,0.0,0.0,1.0,0.0,0.0,0.0,1.0,0.235909423828,-0.667012939453,10.1500927734,0.1,0.0,0.0,0.0,0.1,0.0,0.0,0.0,0.1
1446035415568110439,3814,1446035415566333055,robocape,76.7163949656,20.1536770182,151.871493994,0.0,10.0,0.0,0.0,0.0,10.0,0.0,0.0,0.0,10.0,0.0587227020362,0.0139815957229,0.0122505410144,1.0,0.0,0.0,0.0,1.0,0.0,0.0,0.0,1.0,0.251477050781,-0.511336669922,10.1261425781,0.1,0.0,0.0,0.0,0.1,0.0,0.0,0.0,0.1
1446035415593566731,3815,1446035415591777086,robocape,76.7962969783,20.1488030547,151.897702322,0.0,10.0,0.0,0.0,0.0,10.0,0.0,0.0,0.0,10.0,0.0596548084178,0.018242653467,0.0121173829599,1.0,0.0,0.0,0.0,1.0,0.0,0.0,0.0,1.0,-0.0371228027344,-0.355660400391,10.1644628906,0.1,0.0,0.0,0.0,0.1,0.0,0.0,0.0,0.1
1446035415615370939,3816,1446035415613523006,robocape,76.872439013,20.1487224673,151.916415712,0.0,10.0,0.0,0.0,0.0,10.0,0.0,0.0,0.0,10.0,0.0592553342543,0.0142479118319,0.0034621094171,1.0,0.0,0.0,0.0,1.0,0.0,0.0,0.0,1.0,0.365240478516,-0.261057128906,10.5273083496,0.1,0.0,0.0,0.0,0.1,0.0,0.0,0.0,0.1
1446035415640423106,3817,1446035415638721942,robocape,76.9773822723,20.1799224277,151.903523009,0.0,10.0,0.0,0.0,0.0,10.0,0.0,0.0,0.0,10.0,0.0965395895154,0.00119842249054,-0.0498011123845,1.0,0.0,0.0,0.0,1.0,0.0,0.0,0.0,1.0,-1.00471069336,-0.737666015625,10.1584753418,0.1,0.0,0.0,0.0,0.1,0.0,0.0,0.0,0.1
1446035415669326439,3818,1446035415667077064,robocape,77.0535349,20.1527449895,151.891434135,0.0,10.0,0.0,0.0,0.0,10.0,0.0,0.0,0.0,10.0,0.0711064011051,-0.0187752856851,0.0392816260787,1.0,0.0,0.0,0.0,1.0,0.0,0.0,0.0,1.0,-1.05979614258,-0.438288574219,10.1668579102,0.1,0.0,0.0,0.0,0.1,0.0,0.0,0.0,0.1
1446035415696809856,3819,1446035415693272113,robocape,77.143225795,20.1591076505,151.873007372,0.0,10.0,0.0,0.0,0.0,10.0,0.0,0.0,0.0,10.0,0.085354312937,-0.0118510668509,-0.0129163312869,1.0,0.0,0.0,0.0,1.0,0.0,0.0,0.0,1.0,0.219144287109,-0.294587402344,10.2159558105,0.1,0.0,0.0,0.0,0.1,0.0,0.0,0.0,0.1
1446035415715370731,3820,1446035415713613033,robocape,77.2087930873,20.2120617819,151.883621107,0.0,10.0,0.0,0.0,0.0,10.0,0.0,0.0,0.0,10.0,0.0531300637471,0.0264984528463,-0.0789627263208,1.0,0.0,0.0,0.0,1.0,0.0,0.0,0.0,1.0,0.432301025391,-0.285007324219,9.86149291992,0.1,0.0,0.0,0.0,0.1,0.0,0.0,0.0,0.1
1446035415740937647,3821,1446035415739187955,robocape,77.4421565544,20.2634313163,151.946803655,0.0,10.0,0.0,0.0,0.0,10.0,0.0,0.0,0.0,10.0,0.179230741362,0.0659132369795,-0.0677774497425,1.0,0.0,0.0,0.0,1.0,0.0,0.0,0.0,1.0,-1.10290649414,0.00718505859375,10.4003723145,0.1,0.0,0.0,0.0,0.1,0.0,0.0,0.0,0.1
1446035415766329523,3822,1446035415764507055,robocape,77.616353424,20.267774548,152.0130544,0.0,10.0,0.0,0.0,0.0,10.0,0.0,0.0,0.0,10.0,0.126366993724,0.052064799311,0.00452737385313,1.0,0.0,0.0,0.0,1.0,0.0,0.0,0.0,1.0,-0.831071777344,-0.161663818359,10.459050293,0.1,0.0,0.0,0.0,0.1,0.0,0.0,0.0,0.1
1446035415795618023,3823,1446035415793662071,robocape,77.7534231783,20.2981655091,152.038238426,0.0,10.0,0.0,0.0,0.0,10.0,0.0,0.0,0.0,10.0,0.109855394966,0.0294279300454,-0.0424774193868,1.0,0.0,0.0,0.0,1.0,0.0,0.0,0.0,1.0,-0.754431152344,-0.380808105469,10.0590820312,0.1,0.0,0.0,0.0,0.1,0.0,0.0,0.0,0.1
1446035415817162689,3824,1446035415814934015,robocape,77.8746095306,20.309616069,152.048946103,0.0,10.0,0.0,0.0,0.0,10.0,0.0,0.0,0.0,10.0,0.101599595587,0.0119842249054,-0.015845808486,1.0,0.0,0.0,0.0,1.0,0.0,0.0,0.0,1.0,-0.387993164063,0.619112548828,10.3416943359,0.1,0.0,0.0,0.0,0.1,0.0,0.0,0.0,0.1
1446035415841176981,3825,1446035415839423894,robocape,77.9470790415,20.3130715755,152.064357174,0.0,10.0,0.0,0.0,0.0,10.0,0.0,0.0,0.0,10.0,0.0572579634367,0.0129163312869,-0.00279631914458,1.0,0.0,0.0,0.0,1.0,0.0,0.0,0.0,1.0,-0.626297607422,0.130528564453,10.0746496582,0.1,0.0,0.0,0.0,0.1,0.0,0.0,0.0,0.1
1446035415866004564,3826,1446035415864219903,robocape,77.9825608909,20.3264416795,152.054257022,0.0,10.0,0.0,0.0,0.0,10.0,0.0,0.0,0.0,10.0,0.03488741028,-0.0033289513626,-0.0222373951022,1.0,0.0,0.0,0.0,1.0,0.0,0.0,0.0,1.0,-1.51963989258,-0.282612304688,10.4099523926,0.1,0.0,0.0,0.0,0.1,0.0,0.0,0.0,0.1
1446035415894858273,3827,1446035415893006086,robocape,78.035191655,20.3589011795,152.060733191,0.0,10.0,0.0,0.0,0.0,10.0,0.0,0.0,0.0,10.0,0.0434095257683,0.015579492377,-0.0490021640575,1.0,0.0,0.0,0.0,1.0,0.0,0.0,0.0,1.0,-1.40946899414,-0.201181640625,10.2806213379,0.1,0.0,0.0,0.0,0.1,0.0,0.0,0.0,0.1
1446035415916607773,3828,1446035415914803028,robocape,78.1438110547,20.4050491752,152.066144181,0.0,10.0,0.0,0.0,0.0,10.0,0.0,0.0,0.0,10.0,0.0926780059348,0.0191747598486,-0.0704406108326,1.0,0.0,0.0,0.0,1.0,0.0,0.0,0.0,1.0,-1.51604736328,-0.410745849609,10.1141674805,0.1,0.0,0.0,0.0,0.1,0.0,0.0,0.0,0.1
1446035415940321856,3829,1446035415938540935,robocape,78.235552094,20.4236481092,152.056342916,0.0,10.0,0.0,0.0,0.0,10.0,0.0,0.0,0.0,10.0,0.0838895743375,-0.00146473859954,-0.0303600364269,1.0,0.0,0.0,0.0,1.0,0.0,0.0,0.0,1.0,-1.92559570313,-0.0934057617188,10.6805895996,0.1,0.0,0.0,0.0,0.1,0.0,0.0,0.0,0.1
1446035415965687481,3830,1446035415963798046,robocape,78.3726446522,20.4731887809,152.072475695,0.0,10.0,0.0,0.0,0.0,10.0,0.0,0.0,0.0,10.0,0.113317504383,0.0282295075548,-0.0743021944132,1.0,0.0,0.0,0.0,1.0,0.0,0.0,0.0,1.0,-0.981958007813,-0.501756591797,9.52259765625,0.1,0.0,0.0,0.0,0.1,0.0,0.0,0.0,0.1
1446035415993125148,3831,1446035415991185903,robocape,78.5170387285,20.5262902752,152.033604905,0.0,10.0,0.0,0.0,0.0,10.0,0.0,0.0,0.0,10.0,0.141280695829,-0.0127831732324,-0.0886832642996,1.0,0.0,0.0,0.0,1.0,0.0,0.0,0.0,1.0,-0.653840332031,0.135318603516,10.4147424316,0.1,0.0,0.0,0.0,0.1,0.0,0.0,0.0,0.1
1446035416017210148,3832,1446035416015044927,robocape,78.6252915403,20.5335714096,152.039844259,0.0,10.0,0.0,0.0,0.0,10.0,0.0,0.0,0.0,10.0,0.0920122156622,0.00705737688871,-0.0103863282513,1.0,0.0,0.0,0.0,1.0,0.0,0.0,0.0,1.0,-0.36404296875,0.154478759766,10.2937939453,0.1,0.0,0.0,0.0,0.1,0.0,0.0,0.0,0.1
1446035416040143523,3833,1446035416038415908,robocape,78.7304333465,20.5272999126,152.053393399,0.0,10.0,0.0,0.0,0.0,10.0,0.0,0.0,0.0,10.0,0.0864195773731,0.00838895743375,0.0118510668509,1.0,0.0,0.0,0.0,1.0,0.0,0.0,0.0,1.0,-0.214354248047,-0.197589111328,10.4159399414,0.1,0.0,0.0,0.0,0.1,0.0,0.0,0.0,0.1
1446035416065842148,3834,1446035416063747882,robocape,78.901242937,20.5483066044,152.134675257,0.0,10.0,0.0,0.0,0.0,10.0,0.0,0.0,0.0,10.0,0.117045929909,0.0685763980695,-0.0205063403936,1.0,0.0,0.0,0.0,1.0,0.0,0.0,0.0,1.0,-1.89206542969,-0.338895263672,10.423125,0.1,0.0,0.0,0.0,0.1,0.0,0.0,0.0,0.1
1446035416093475856,3835,1446035416091691970,robocape,79.0725675209,20.5788510659,152.083299983,0.0,10.0,0.0,0.0,0.0,10.0,0.0,0.0,0.0,10.0,0.169776519493,-0.0299605622634,-0.0553937506736,1.0,0.0,0.0,0.0,1.0,0.0,0.0,0.0,1.0,-1.35797607422,-0.219144287109,9.58965820313,0.1,0.0,0.0,0.0,0.1,0.0,0.0,0.0,0.1
1446035416119583189,3836,1446035416117681026,robocape,79.324756371,20.6163664629,152.091972141,0.0,10.0,0.0,0.0,0.0,10.0,0.0,0.0,0.0,10.0,0.216648154678,0.0178431793035,-0.0575242795457,1.0,0.0,0.0,0.0,1.0,0.0,0.0,0.0,1.0,-1.09452392578,-0.326920166016,10.4554577637,0.1,0.0,0.0,0.0,0.1,0.0,0.0,0.0,0.1
1446035416140343398,3837,1446035416138422012,robocape,79.6715304247,20.689279163,152.100573264,0.0,10.0,0.0,0.0,0.0,10.0,0.0,0.0,0.0,10.0,0.29920614847,0.0278300333913,-0.113450662437,1.0,0.0,0.0,0.0,1.0,0.0,0.0,0.0,1.0,-1.302890625,-0.664617919922,10.4806054688,0.1,0.0,0.0,0.0,0.1,0.0,0.0,0.0,0.1
1446035416165948481,3838,1446035416164026975,robocape,80.1467131191,20.8251503482,152.011264983,0.0,10.0,0.0,0.0,0.0,10.0,0.0,0.0,0.0,10.0,0.450340540332,-0.0299605622634,-0.227167640984,1.0,0.0,0.0,0.0,1.0,0.0,0.0,0.0,1.0,-1.63340332031,-0.500559082031,10.6135290527,0.1,0.0,0.0,0.0,0.1,0.0,0.0,0.0,0.1
1446035416192374189,3839,1446035416190597057,robocape,80.7528610273,20.9557521553,151.922799806,0.0,10.0,0.0,0.0,0.0,10.0,0.0,0.0,0.0,10.0,0.564590151097,-0.032490565299,-0.219710789932,1.0,0.0,0.0,0.0,1.0,0.0,0.0,0.0,1.0,-2.90276367188,-0.561632080078,9.67707641602,0.1,0.0,0.0,0.0,0.1,0.0,0.0,0.0,0.1
1446035416220850439,3840,1446035416218461990,robocape,81.5083419029,21.0902990332,151.88186496,0.0,10.0,0.0,0.0,0.0,10.0,0.0,0.0,0.0,10.0,0.675910284662,0.00253000303558,-0.221308686586,1.0,0.0,0.0,0.0,1.0,0.0,0.0,0.0,1.0,-0.6514453125,-0.706530761719,10.5620361328,0.1,0.0,0.0,0.0,0.1,0.0,0.0,0.0,0.1
1446035416240675939,3841,1446035416238936901,robocape,82.4291256029,21.227674428,151.901891861,0.0,10.0,0.0,0.0,0.0,10.0,0.0,0.0,0.0,10.0,0.795353059552,0.0467384771309,-0.220776054368,1.0,0.0,0.0,0.0,1.0,0.0,0.0,0.0,1.0,-1.38072875977,-0.47900390625,10.6302941895,0.1,0.0,0.0,0.0,0.1,0.0,0.0,0.0,0.1
1446035416265456356,3842,1446035416263616085,robocape,83.574031023,21.3969906447,151.951666239,0.0,10.0,0.0,0.0,0.0,10.0,0.0,0.0,0.0,10.0,0.97857854255,0.0720385074866,-0.272840853679,1.0,0.0,0.0,0.0,1.0,0.0,0.0,0.0,1.0,-1.68010620117,-0.811911621094,8.78612915039,0.1,0.0,0.0,0.0,0.1,0.0,0.0,0.0,0.1
1446035416291840648,3843,1446035416290025949,robocape,84.9713900688,21.5615792659,151.881575305,0.0,10.0,0.0,0.0,0.0,10.0,0.0,0.0,0.0,10.0,1.24875623514,-0.0260989786828,-0.278034017804,1.0,0.0,0.0,0.0,1.0,0.0,0.0,0.0,1.0,-1.64897094727,-0.762813720703,11.1356433105,0.1,0.0,0.0,0.0,0.1,0.0,0.0,0.0,0.1
1446035416319725356,3844,1446035416317913055,robocape,86.7060599361,21.7722544499,151.829313528,0.0,10.0,0.0,0.0,0.0,10.0,0.0,0.0,0.0,10.0,1.5359781587,-0.0141147537774,-0.356064637744,1.0,0.0,0.0,0.0,1.0,0.0,0.0,0.0,1.0,0.240699462891,-0.946032714844,9.0855065918,0.1,0.0,0.0,0.0,0.1,0.0,0.0,0.0,0.1
1446035416340320773,3845,1446035416338565111,robocape,88.8449431158,22.0009873913,151.791063895,0.0,10.0,0.0,0.0,0.0,10.0,0.0,0.0,0.0,10.0,1.8831212068,-0.0139815957229,-0.389620467479,1.0,0.0,0.0,0.0,1.0,0.0,0.0,0.0,1.0,-1.63939086914,-1.06458618164,9.22441772461,0.1,0.0,0.0,0.0,0.1,0.0,0.0,0.0,0.1
1446035416365531356,3846,1446035416363689899,robocape,91.4544375301,22.2741145951,151.650031887,0.0,10.0,0.0,0.0,0.0,10.0,0.0,0.0,0.0,10.0,2.33892122736,-0.107991182203,-0.470047932399,1.0,0.0,0.0,0.0,1.0,0.0,0.0,0.0,1.0,-2.60099121094,-1.91721313477,8.11073364258,0.1,0.0,0.0,0.0,0.1,0.0,0.0,0.0,0.1
1446035416391166148,3847,1446035416389269113,robocape,94.7629774495,22.6330326828,151.627159232,0.0,10.0,0.0,0.0,0.0,10.0,0.0,0.0,0.0,10.0,2.89818505628,-0.051265850984,-0.626641804496,1.0,0.0,0.0,0.0,1.0,0.0,0.0,0.0,1.0,-3.11711791992,-2.32436645508,7.64729736328,0.1,0.0,0.0,0.0,0.1,0.0,0.0,0.0,0.1
1446035416419500856,3848,1446035416417484045,robocape,98.9184196752,23.0409065135,151.75047779,0.0,10.0,0.0,0.0,0.0,10.0,0.0,0.0,0.0,10.0,3.57196481207,0.00452737385313,-0.735032460862,1.0,0.0,0.0,0.0,1.0,0.0,0.0,0.0,1.0,-2.05492675781,-2.66805175781,7.53113891602,0.1,0.0,0.0,0.0,0.1,0.0,0.0,0.0,0.1
1446035416441395523,3849,1446035416439718961,robocape,103.937936959,23.5057852575,151.793366661,0.0,10.0,0.0,0.0,0.0,10.0,0.0,0.0,0.0,10.0,4.36318997193,-0.137685428357,-0.841159430302,1.0,0.0,0.0,0.0,1.0,0.0,0.0,0.0,1.0,-0.203576660156,-2.40579711914,5.23431518555,0.1,0.0,0.0,0.0,0.1,0.0,0.0,0.0,0.1
1446035416465278690,3850,1446035416463470935,robocape,107.961439396,23.351735683,150.919384043,0.0,10.0,0.0,0.0,0.0,10.0,0.0,0.0,0.0,10.0,3.92296944374,-0.540754859341,0.450606856441,1.0,0.0,0.0,0.0,1.0,0.0,0.0,0.0,1.0,0.519719238281,19.6194012451,6.63420410156,0.1,0.0,0.0,0.0,0.1,0.0,0.0,0.0,0.1
1446035416490754190,3851,1446035416488940954,robocape,109.083539319,22.6194277707,150.160547219,0.0,10.0,0.0,0.0,0.0,10.0,0.0,0.0,0.0,10.0,1.3261210648,-0.115847507418,1.43038382148,1.0,0.0,0.0,0.0,1.0,0.0,0.0,0.0,1.0,6.51205810547,19.6194012451,7.78501098633,0.1,0.0,0.0,0.0,0.1,0.0,0.0,0.0,0.1
1446035416519140273,3852,1446035416517296075,robocape,109.329365894,21.8568657504,150.437983022,0.0,10.0,0.0,0.0,0.0,10.0,0.0,0.0,0.0,10.0,0.0932106381528,0.63210128473,1.17751667598,1.0,0.0,0.0,0.0,1.0,0.0,0.0,0.0,1.0,6.28692626953,13.013338623,6.01389404297,0.1,0.0,0.0,0.0,0.1,0.0,0.0,0.0,0.1
1446035416541893356,3853,1446035416540091991,robocape,109.408988422,21.178252778,151.23538248,0.0,10.0,0.0,0.0,0.0,10.0,0.0,0.0,0.0,10.0,-0.26431873819,0.951547457485,0.865527354276,1.0,0.0,0.0,0.0,1.0,0.0,0.0,0.0,1.0,2.54111572266,6.3958996582,3.8739440918,0.1,0.0,0.0,0.0,0.1,0.0,0.0,0.0,0.1
1446035416565086065,3854,1446035416563339948,robocape,109.253315006,20.4962534679,152.549879489,0.0,10.0,0.0,0.0,0.0,10.0,0.0,0.0,0.0,10.0,-0.663526585593,1.32558843259,0.701343473072,1.0,0.0,0.0,0.0,1.0,0.0,0.0,0.0,1.0,2.86803588867,6.96351928711,4.28588745117,0.1,0.0,0.0,0.0,0.1,0.0,0.0,0.0,0.1
1446035416590641898,3855,1446035416588869094,robocape,108.81307139,19.7301420622,153.652112536,0.0,10.0,0.0,0.0,0.0,10.0,0.0,0.0,0.0,10.0,-0.806937810294,1.20667828991,0.848083649136,1.0,0.0,0.0,0.0,1.0,0.0,0.0,0.0,1.0,-1.94715087891,5.74325683594,13.4192944336,0.1,0.0,0.0,0.0,0.1,0.0,0.0,0.0,0.1
1446035416619142690,3856,1446035416617417097,robocape,108.275181469,19.4250022979,153.999297648,0.0,10.0,0.0,0.0,0.0,10.0,0.0,0.0,0.0,10.0,-0.598012822777,0.407863120946,0.353268318599,1.0,0.0,0.0,0.0,1.0,0.0,0.0,0.0,1.0,-3.50271606445,3.07760009766,9.71419921875,0.1,0.0,0.0,0.0,0.1,0.0,0.0,0.0,0.1
1446035416644307815,3857,1446035416642039060,robocape,108.156312172,19.1636176283,154.223758757,0.0,10.0,0.0,0.0,0.0,10.0,0.0,0.0,0.0,10.0,-0.18535601187,0.292015613527,0.317715118046,1.0,0.0,0.0,0.0,1.0,0.0,0.0,0.0,1.0,-1.99505126953,0.511336669922,6.79946044922,0.1,0.0,0.0,0.0,0.1,0.0,0.0,0.0,0.1
1446035416671532190,3858,1446035416663788080,robocape,108.287250493,18.6696170775,154.499724328,0.0,10.0,0.0,0.0,0.0,10.0,0.0,0.0,0.0,10.0,0.016378440704,0.4375573671,0.625443382005,1.0,0.0,0.0,0.0,1.0,0.0,0.0,0.0,1.0,1.38671630859,2.20102294922,10.637479248,0.1,0.0,0.0,0.0,0.1,0.0,0.0,0.0,0.1
1446035416694177065,3859,1446035416692383050,robocape,108.644766967,18.0742060122,154.818636485,0.0,10.0,0.0,0.0,0.0,10.0,0.0,0.0,0.0,10.0,0.202932875064,0.515587987039,0.73556509308,1.0,0.0,0.0,0.0,1.0,0.0,0.0,0.0,1.0,4.58526489258,4.28349243164,9.5836706543,0.1,0.0,0.0,0.0,0.1,0.0,0.0,0.0,0.1
1446035416718422356,3860,1446035416716449022,robocape,108.954058873,17.3906541487,155.181553638,0.0,10.0,0.0,0.0,0.0,10.0,0.0,0.0,0.0,10.0,0.151134391862,0.588292284799,0.817057822436,1.0,0.0,0.0,0.0,1.0,0.0,0.0,0.0,1.0,-0.00119750976563,4.82596435547,9.10825927734,0.1,0.0,0.0,0.0,0.1,0.0,0.0,0.0,0.1
1446035416746339815,3861,1446035416743926048,robocape,109.39948205,16.6123952381,155.540208786,0.0,10.0,0.0,0.0,0.0,10.0,0.0,0.0,0.0,10.0,0.277235069477,0.626242330332,0.910268460589,1.0,0.0,0.0,0.0,1.0,0.0,0.0,0.0,1.0,3.08718017578,5.31814086914,6.79347290039,0.1,0.0,0.0,0.0,0.1,0.0,0.0,0.0,0.1
1446035416765376856,3862,1446035416763516902,robocape,109.561509369,15.6411895648,155.934761856,0.0,10.0,0.0,0.0,0.0,10.0,0.0,0.0,0.0,10.0,0.0263652947918,0.735032460862,1.10467922016,1.0,0.0,0.0,0.0,1.0,0.0,0.0,0.0,1.0,-0.317340087891,6.07257202148,9.08790161133,0.1,0.0,0.0,0.0,0.1,0.0,0.0,0.0,0.1
1446035416790397190,3863,1446035416788649082,robocape,109.761087737,14.7284917216,156.362794443,0.0,10.0,0.0,0.0,0.0,10.0,0.0,0.0,0.0,10.0,0.0580569117637,0.72757560981,0.981108545585,1.0,0.0,0.0,0.0,1.0,0.0,0.0,0.0,1.0,1.72561157227,3.07760009766,8.49034423828,0.1,0.0,0.0,0.0,0.1,0.0,0.0,0.0,0.1
1446035416818296148,3864,1446035416816312074,robocape,110.213375141,13.6923915271,156.757796924,0.0,10.0,0.0,0.0,0.0,10.0,0.0,0.0,0.0,10.0,0.295610880999,0.74888089853,1.09296131137,1.0,0.0,0.0,0.0,1.0,0.0,0.0,0.0,1.0,3.37458251953,4.45353881836,9.10945678711,0.1,0.0,0.0,0.0,0.1,0.0,0.0,0.0,0.1
1446035416845285273,3865,1446035416843486070,robocape,110.474050633,12.5095859633,157.219508901,0.0,10.0,0.0,0.0,0.0,10.0,0.0,0.0,0.0,10.0,0.12210593598,0.855806816297,1.18936774283,1.0,0.0,0.0,0.0,1.0,0.0,0.0,0.0,1.0,-1.14721435547,3.51469116211,8.60051513672,0.1,0.0,0.0,0.0,0.1,0.0,0.0,0.0,0.1
1446035416865212606,3866,1446035416863547086,robocape,110.806512279,11.3369921886,157.625621999,0.0,10.0,0.0,0.0,0.0,10.0,0.0,0.0,0.0,10.0,0.206927616699,0.798415694806,1.14222979153,1.0,0.0,0.0,0.0,1.0,0.0,0.0,0.0,1.0,6.64378417969,4.63436279297,11.5787219238,0.1,0.0,0.0,0.0,0.1,0.0,0.0,0.0,0.1
1446035416890457981,3867,1446035416888742923,robocape,110.813881802,9.39506069593,157.957252162,0.0,10.0,0.0,0.0,0.0,10.0,0.0,0.0,0.0,10.0,-0.0516653251475,1.02465122941,1.89776859279,1.0,0.0,0.0,0.0,1.0,0.0,0.0,0.0,1.0,-1.59388549805,9.57409057617,7.40899291992,0.1,0.0,0.0,0.0,0.1,0.0,0.0,0.0,0.1
1446035416916593023,3868,1446035416914803981,robocape,111.233843049,7.40984673923,158.956422007,0.0,10.0,0.0,0.0,0.0,10.0,0.0,0.0,0.0,10.0,0.227567115147,1.54756290945,1.62652563577,1.0,0.0,0.0,0.0,1.0,0.0,0.0,0.0,1.0,3.40092773438,1.65256347656,5.21755004883,0.1,0.0,0.0,0.0,0.1,0.0,0.0,0.0,0.1
1446035416943758648,3869,1446035416941525936,robocape,111.184516987,5.61854158131,159.746119023,0.0,10.0,0.0,0.0,0.0,10.0,0.0,0.0,0.0,10.0,-0.126500151779,1.28390996153,1.41733433214,1.0,0.0,0.0,0.0,1.0,0.0,0.0,0.0,1.0,0.290994873047,5.62470336914,11.2529992676,0.1,0.0,0.0,0.0,0.1,0.0,0.0,0.0,0.1
1446035416965491690,3870,1446035416963650941,robocape,111.516077233,4.05967013084,160.19275327,0.0,10.0,0.0,0.0,0.0,10.0,0.0,0.0,0.0,10.0,0.254864516321,0.906273718954,1.25195202845,1.0,0.0,0.0,0.0,1.0,0.0,0.0,0.0,1.0,-2.14473999023,0.461041259766,6.08334960938,0.1,0.0,0.0,0.0,0.1,0.0,0.0,0.0,0.1
1446035416990483273,3871,1446035416988715887,robocape,111.987577886,2.09288614612,160.625324327,0.0,10.0,0.0,0.0,0.0,10.0,0.0,0.0,0.0,10.0,0.39055257386,1.02425175524,1.54982659637,1.0,0.0,0.0,0.0,1.0,0.0,0.0,0.0,1.0,6.37075195313,5.04630615234,10.9248815918,0.1,0.0,0.0,0.0,0.1,0.0,0.0,0.0,0.1
1446035417016107356,3872,1446035417014241933,robocape,112.364203006,0.0600942374384,161.432566808,0.0,10.0,0.0,0.0,0.0,10.0,0.0,0.0,0.0,10.0,0.315185115011,1.33517581251,1.40934484887,1.0,0.0,0.0,0.0,1.0,0.0,0.0,0.0,1.0,-5.75403442383,9.46751220703,9.45673461914,0.1,0.0,0.0,0.0,0.1,0.0,0.0,0.0,0.1
1446035417044712898,3873,1446035417042751073,robocape,112.522017365,-1.58739131735,162.102969905,0.0,10.0,0.0,0.0,0.0,10.0,0.0,0.0,0.0,10.0,0.145408595518,1.08257498312,1.08843393752,1.0,0.0,0.0,0.0,1.0,0.0,0.0,0.0,1.0,3.31949707031,2.88839355469,9.02203857422,0.1,0.0,0.0,0.0,0.1,0.0,0.0,0.0,0.1
1446035417065486440,3874,1446035417063622951,robocape,112.652722454,-3.32423612957,162.275687064,0.0,10.0,0.0,0.0,0.0,10.0,0.0,0.0,0.0,10.0,0.120374881272,0.698280837819,1.28643996456,1.0,0.0,0.0,0.0,1.0,0.0,0.0,0.0,1.0,1.35558105469,3.23447387695,7.03057983398,0.1,0.0,0.0,0.0,0.1,0.0,0.0,0.0,0.1
1446035417092112481,3875,1446035417090343952,robocape,112.922205699,-5.34302344504,162.830493672,0.0,10.0,0.0,0.0,0.0,10.0,0.0,0.0,0.0,10.0,0.270444008698,1.08284129923,1.33064843866,1.0,0.0,0.0,0.0,1.0,0.0,0.0,0.0,1.0,-1.01069824219,5.11336669922,7.74908569336,0.1,0.0,0.0,0.0,0.1,0.0,0.0,0.0,0.1
1446035417116900773,3876,1446035417115035057,robocape,113.255189215,-7.36305539902,163.207160366,0.0,10.0,0.0,0.0,0.0,10.0,0.0,0.0,0.0,10.0,0.325171969099,0.929576378492,1.34689372131,1.0,0.0,0.0,0.0,1.0,0.0,0.0,0.0,1.0,0.458646240234,3.22968383789,8.88552246094,0.1,0.0,0.0,0.0,0.1,0.0,0.0,0.0,0.1
1446035417143753898,3877,1446035417141885042,robocape,113.495213091,-9.30500763904,163.745325309,0.0,10.0,0.0,0.0,0.0,10.0,0.0,0.0,0.0,10.0,0.273373485897,1.02451807135,1.19749038415,1.0,0.0,0.0,0.0,1.0,0.0,0.0,0.0,1.0,2.86683837891,3.75658813477,8.71308105469,0.1,0.0,0.0,0.0,0.1,0.0,0.0,0.0,0.1
1446035417165858648,3878,1446035417164012908,robocape,113.653464763,-11.4871716419,164.185633447,0.0,10.0,0.0,0.0,0.0,10.0,0.0,0.0,0.0,10.0,0.202400242846,1.00947121119,1.36606848116,1.0,0.0,0.0,0.0,1.0,0.0,0.0,0.0,1.0,1.20708984375,5.73128173828,9.0855065918,0.1,0.0,0.0,0.0,0.1,0.0,0.0,0.0,0.1
1446035417191052357,3879,1446035417189258098,robocape,113.688154713,-13.7228927331,164.68442789,0.0,10.0,0.0,0.0,0.0,10.0,0.0,0.0,0.0,10.0,0.117312246018,1.05820705914,1.35155425322,1.0,0.0,0.0,0.0,1.0,0.0,0.0,0.0,1.0,-1.02746337891,6.55037841797,7.80177612305,0.1,0.0,0.0,0.0,0.1,0.0,0.0,0.0,0.1
1446035417216006898,3880,1446035417214245080,robocape,113.704366052,-16.0187090572,165.356080952,0.0,10.0,0.0,0.0,0.0,10.0,0.0,0.0,0.0,10.0,0.150468601589,1.19642511972,1.30734577912,1.0,0.0,0.0,0.0,1.0,0.0,0.0,0.0,1.0,-1.07296875,5.64266601563,9.43278442383,0.1,0.0,0.0,0.0,0.1,0.0,0.0,0.0,0.1
1446035417243732315,3881,1446035417241919040,robocape,113.621779177,-17.6719661162,165.83381841,0.0,10.0,0.0,0.0,0.0,10.0,0.0,0.0,0.0,10.0,0.0364853069341,0.847551016918,0.931174275146,1.0,0.0,0.0,0.0,1.0,0.0,0.0,0.0,1.0,-1.93517578125,1.49568969727,7.96822998047,0.1,0.0,0.0,0.0,0.1,0.0,0.0,0.0,0.1
1446035417269968857,3882,1446035417267442941,robocape,113.896046985,-19.4552638835,166.274467418,0.0,10.0,0.0,0.0,0.0,10.0,0.0,0.0,0.0,10.0,0.348607786691,0.851279442444,1.01865911696,1.0,0.0,0.0,0.0,1.0,0.0,0.0,0.0,1.0,3.42487792969,3.52307373047,9.0819140625,0.1,0.0,0.0,0.0,0.1,0.0,0.0,0.0,0.1
1446035417290282440,3883,1446035417288347959,robocape,114.000418969,-21.321202581,166.637946992,0.0,10.0,0.0,0.0,0.0,10.0,0.0,0.0,0.0,10.0,0.189084437396,0.813196238856,1.08763498919,1.0,0.0,0.0,0.0,1.0,0.0,0.0,0.0,1.0,2.02259399414,2.84288818359,7.62454467773,0.1,0.0,0.0,0.0,0.1,0.0,0.0,0.0,0.1
1446035417315788690,3884,1446035417314012050,robocape,114.075210945,-23.1941318643,166.888676435,0.0,10.0,0.0,0.0,0.0,10.0,0.0,0.0,0.0,10.0,0.13835121863,0.726510345374,1.12252239947,1.0,0.0,0.0,0.0,1.0,0.0,0.0,0.0,1.0,-2.82851806641,6.3192590332,8.74900634766,0.1,0.0,0.0,0.0,0.1,0.0,0.0,0.0,0.1
1446035417343922023,3885,1446035417342142105,robocape,114.137914594,-25.1008449106,167.244062046,0.0,10.0,0.0,0.0,0.0,10.0,0.0,0.0,0.0,10.0,0.166048093966,0.811332026093,1.10441290406,1.0,0.0,0.0,0.0,1.0,0.0,0.0,0.0,1.0,-0.626297607422,3.62486206055,8.83043701172,0.1,0.0,0.0,0.0,0.1,0.0,0.0,0.0,0.1
1446035417371033857,3886,1446035417368428945,robocape,114.247998426,-26.8005492548,167.734992215,0.0,10.0,0.0,0.0,0.0,10.0,0.0,0.0,0.0,10.0,0.259924522392,0.849415229681,0.924649530476,1.0,0.0,0.0,0.0,1.0,0.0,0.0,0.0,1.0,-1.24062011719,2.90396118164,9.25794799805,0.1,0.0,0.0,0.0,0.1,0.0,0.0,0.0,0.1
1446035417390229065,3887,1446035417388408899,robocape,114.61804959,-28.6887148917,168.103231318,0.0,10.0,0.0,0.0,0.0,10.0,0.0,0.0,0.0,10.0,0.453270017531,0.81479413551,1.08324077339,1.0,0.0,0.0,0.0,1.0,0.0,0.0,0.0,1.0,-1.87889282227,3.15783325195,6.79347290039,0.1,0.0,0.0,0.0,0.1,0.0,0.0,0.0,0.1
1446035417415701523,3888,1446035417413954973,robocape,115.053362861,-30.9550194385,168.605445597,0.0,10.0,0.0,0.0,0.0,10.0,0.0,0.0,0.0,10.0,0.569250683004,1.02704807439,1.27791784907,1.0,0.0,0.0,0.0,1.0,0.0,0.0,0.0,1.0,-2.55189331055,4.81518676758,9.55373291016,0.1,0.0,0.0,0.0,0.1,0.0,0.0,0.0,0.1
1446035417441400773,3889,1446035417439675092,robocape,115.139775998,-33.7005568988,169.255971141,0.0,10.0,0.0,0.0,0.0,10.0,0.0,0.0,0.0,10.0,0.338620932604,1.27738521686,1.54117132283,1.0,0.0,0.0,0.0,1.0,0.0,0.0,0.0,1.0,-1.64058837891,6.03904174805,8.14785644531,0.1,0.0,0.0,0.0,0.1,0.0,0.0,0.0,0.1
1446035417469421648,3890,1446035417467638969,robocape,114.998380772,-36.6560545163,170.154066142,0.0,10.0,0.0,0.0,0.0,10.0,0.0,0.0,0.0,10.0,0.267780847607,1.50761549309,1.61960141693,1.0,0.0,0.0,0.0,1.0,0.0,0.0,0.0,1.0,0.989143066406,4.88943237305,11.3368249512,0.1,0.0,0.0,0.0,0.1,0.0,0.0,0.0,0.1
1446035417490227107,3891,1446035417488543033,robocape,114.687015037,-39.7918469181,170.861797414,0.0,10.0,0.0,0.0,0.0,10.0,0.0,0.0,0.0,10.0,0.0596548084178,1.42572328957,1.83851325854,1.0,0.0,0.0,0.0,1.0,0.0,0.0,0.0,1.0,-1.56514526367,5.03792358398,8.44364135742,0.1,0.0,0.0,0.0,0.1,0.0,0.0,0.0,0.1
1446035417515789107,3892,1446035417513863086,robocape,114.26808724,-42.736722765,171.954486113,0.0,10.0,0.0,0.0,0.0,10.0,0.0,0.0,0.0,10.0,0.18122811218,1.61041351117,1.6512930339,1.0,0.0,0.0,0.0,1.0,0.0,0.0,0.0,1.0,-0.546064453125,1.31007568359,9.13460449219,0.1,0.0,0.0,0.0,0.1,0.0,0.0,0.0,0.1
1446035417541656773,3893,1446035417539892911,robocape,113.633593796,-45.1182280486,172.762604671,0.0,10.0,0.0,0.0,0.0,10.0,0.0,0.0,0.0,10.0,-0.126766467888,1.23996780354,1.40841274249,1.0,0.0,0.0,0.0,1.0,0.0,0.0,0.0,1.0,-0.13412109375,2.069296875,9.89262817383,0.1,0.0,0.0,0.0,0.1,0.0,0.0,0.0,0.1
1446035417568163315,3894,1446035417566068887,robocape,113.077128708,-47.380321721,173.688593135,0.0,10.0,0.0,0.0,0.0,10.0,0.0,0.0,0.0,10.0,0.0259658206283,1.2623383567,1.34502950854,1.0,0.0,0.0,0.0,1.0,0.0,0.0,0.0,1.0,-1.59508300781,2.20461547852,9.99441650391,0.1,0.0,0.0,0.0,0.1,0.0,0.0,0.0,0.1
1446035417591521857,3895,1446035417589749097,robocape,112.921350266,-49.405305467,174.524494352,0.0,10.0,0.0,0.0,0.0,10.0,0.0,0.0,0.0,10.0,0.344346728947,1.1250524025,1.24502780961,1.0,0.0,0.0,0.0,1.0,0.0,0.0,0.0,1.0,-1.18673217773,0.580792236328,10.26984375,0.1,0.0,0.0,0.0,0.1,0.0,0.0,0.0,0.1
1446035417615622940,3896,1446035417613831043,robocape,113.001404512,-51.4239110059,175.101672285,0.0,10.0,0.0,0.0,0.0,10.0,0.0,0.0,0.0,10.0,0.413455759235,0.968991162625,1.34276582162,1.0,0.0,0.0,0.0,1.0,0.0,0.0,0.0,1.0,4.59244995117,3.44643310547,7.28564941406,0.1,0.0,0.0,0.0,0.1,0.0,0.0,0.0,0.1
1446035417640772190,3897,1446035417638981103,robocape,112.918329027,-53.4826663093,175.857871788,0.0,10.0,0.0,0.0,0.0,10.0,0.0,0.0,0.0,10.0,0.393348893005,1.08763498919,1.36873164225,1.0,0.0,0.0,0.0,1.0,0.0,0.0,0.0,1.0,-2.35789672852,4.31822021484,8.71667358398,0.1,0.0,0.0,0.0,0.1,0.0,0.0,0.0,0.1
1446035417670987732,3898,1446035417668183088,robocape,112.560179261,-55.4994040957,176.913253923,0.0,10.0,0.0,0.0,0.0,10.0,0.0,0.0,0.0,10.0,0.359260431052,1.23477463942,1.31573473655,1.0,0.0,0.0,0.0,1.0,0.0,0.0,0.0,1.0,3.00694702148,5.61512329102,10.5644311523,0.1,0.0,0.0,0.0,0.1,0.0,0.0,0.0,0.1
1446035417691352773,3899,1446035417689635038,robocape,112.316554273,-57.309753842,177.593824803,0.0,10.0,0.0,0.0,0.0,10.0,0.0,0.0,0.0,10.0,0.2335592276,0.955808515229,1.28723891289,1.0,0.0,0.0,0.0,1.0,0.0,0.0,0.0,1.0,-2.10162963867,3.6057019043,8.41609863281,0.1,0.0,0.0,0.0,0.1,0.0,0.0,0.0,0.1
1446035417715724315,3900,1446035417713954925,robocape,112.250420695,-58.8625358965,178.221774557,0.0,10.0,0.0,0.0,0.0,10.0,0.0,0.0,0.0,10.0,0.364320437123,0.840360481975,1.12864766998,1.0,0.0,0.0,0.0,1.0,0.0,0.0,0.0,1.0,-3.64881225586,2.59500366211,10.2063757324,0.1,0.0,0.0,0.0,0.1,0.0,0.0,0.0,0.1
1446035417741466023,3901,1446035417739721059,robocape,112.099347881,-60.2340736242,178.950574716,0.0,10.0,0.0,0.0,0.0,10.0,0.0,0.0,0.0,10.0,0.368315178758,0.827310992633,0.988698554692,1.0,0.0,0.0,0.0,1.0,0.0,0.0,0.0,1.0,-0.0922082519531,7.50479370117,7.4377331543,0.1,0.0,0.0,0.0,0.1,0.0,0.0,0.0,0.1
1446035417768711398,3902,1446035417766796112,robocape,111.781053779,-61.528575844,179.783372346,0.0,10.0,0.0,0.0,0.0,10.0,0.0,0.0,0.0,10.0,0.304399312596,0.844621539719,0.932239539582,1.0,0.0,0.0,0.0,1.0,0.0,0.0,0.0,1.0,0.553249511719,4.18409912109,6.77670776367,0.1,0.0,0.0,0.0,0.1,0.0,0.0,0.0,0.1
1446035417794561607,3903,1446035417792649984,robocape,111.754417763,-62.5332081624,-179.70801105,0.0,10.0,0.0,0.0,0.0,10.0,0.0,0.0,0.0,10.0,0.337821984277,0.584963333436,0.768721448651,1.0,0.0,0.0,0.0,1.0,0.0,0.0,0.0,1.0,2.27886108398,6.46535522461,8.67955078125,0.1,0.0,0.0,0.0,0.1,0.0,0.0,0.0,0.1
1446035417815600815,3904,1446035417813719034,robocape,111.312239773,-63.3734537775,-178.920778726,0.0,10.0,0.0,0.0,0.0,10.0,0.0,0.0,0.0,10.0,0.17976337358,0.65220815096,0.590555971725,1.0,0.0,0.0,0.0,1.0,0.0,0.0,0.0,1.0,-2.16629516602,7.79938110352,6.64258666992,0.1,0.0,0.0,0.0,0.1,0.0,0.0,0.0,0.1
1446035417840602357,3905,1446035417838712930,robocape,111.00855644,-64.190426346,-178.356326152,0.0,10.0,0.0,0.0,0.0,10.0,0.0,0.0,0.0,10.0,0.1448759633,0.534895904942,0.625043907842,1.0,0.0,0.0,0.0,1.0,0.0,0.0,0.0,1.0,0.086220703125,4.96367797852,7.46407836914,0.1,0.0,0.0,0.0,0.1,0.0,0.0,0.0,0.1
1446035417868269149,3906,1446035417866456031,robocape,110.836700055,-64.714151399,-178.027146845,0.0,10.0,0.0,0.0,0.0,10.0,0.0,0.0,0.0,10.0,0.0910801092807,0.325305127153,0.41332260118,1.0,0.0,0.0,0.0,1.0,0.0,0.0,0.0,1.0,-0.967587890625,3.66078735352,7.83770141602,0.1,0.0,0.0,0.0,0.1,0.0,0.0,0.0,0.1
1446035417895933357,3907,1446035417892268896,robocape,110.854191924,-65.1399284231,-177.812679243,0.0,10.0,0.0,0.0,0.0,10.0,0.0,0.0,0.0,10.0,0.17323862891,0.240083972271,0.348474628637,1.0,0.0,0.0,0.0,1.0,0.0,0.0,0.0,1.0,-2.3722668457,5.22593261719,8.26760742188,0.1,0.0,0.0,0.0,0.1,0.0,0.0,0.0,0.1
1446035417923027274,3908,1446035417921256065,robocape,110.483789906,-65.6198846568,-177.277746534,0.0,10.0,0.0,0.0,0.0,10.0,0.0,0.0,0.0,10.0,0.0729706138682,0.395612579931,0.349273576964,1.0,0.0,0.0,0.0,1.0,0.0,0.0,0.0,1.0,0.177231445313,6.55516845703,7.28804443359,0.1,0.0,0.0,0.0,0.1,0.0,0.0,0.0,0.1
1446035417942058440,3909,1446035417940296888,robocape,110.046548198,-66.0812088586,-176.733311884,0.0,10.0,0.0,0.0,0.0,10.0,0.0,0.0,0.0,10.0,0.0239684498107,0.388555203043,0.337688826222,1.0,0.0,0.0,0.0,1.0,0.0,0.0,0.0,1.0,2.08845703125,7.54670654297,7.88560180664,0.1,0.0,0.0,0.0,0.1,0.0,0.0,0.0,0.1
1446035417966458899,3910,1446035417964720964,robocape,109.602183721,-66.5907412028,-176.179086011,0.0,10.0,0.0,0.0,0.0,10.0,0.0,0.0,0.0,10.0,0.0274305592278,0.403602063202,0.388155728879,1.0,0.0,0.0,0.0,1.0,0.0,0.0,0.0,1.0,0.0874182128906,5.36364624023,8.56219482422,0.1,0.0,0.0,0.0,0.1,0.0,0.0,0.0,0.1
1446035417993807315,3911,1446035417991554975,robocape,109.399962969,-66.9197088,-175.863320353,0.0,10.0,0.0,0.0,0.0,10.0,0.0,0.0,0.0,10.0,0.0612527050718,0.240217130325,0.260856628773,1.0,0.0,0.0,0.0,1.0,0.0,0.0,0.0,1.0,-2.15072753906,3.10155029297,8.90827514648,0.1,0.0,0.0,0.0,0.1,0.0,0.0,0.0,0.1
1446035418015343565,3912,1446035418013591051,robocape,109.233427825,-67.2345788146,-175.383591759,0.0,10.0,0.0,0.0,0.0,10.0,0.0,0.0,0.0,10.0,0.217180786896,0.301336677342,0.226635008766,1.0,0.0,0.0,0.0,1.0,0.0,0.0,0.0,1.0,0.316142578125,4.7936315918,7.5491015625,0.1,0.0,0.0,0.0,0.1,0.0,0.0,0.0,0.1
1446035418040656274,3913,1446035418038780927,robocape,109.012618963,-67.6726636129,-174.913526372,0.0,10.0,0.0,0.0,0.0,10.0,0.0,0.0,0.0,10.0,0.164050723149,0.335025665132,0.348075154473,1.0,0.0,0.0,0.0,1.0,0.0,0.0,0.0,1.0,1.15559692383,3.5985168457,8.33586547852,0.1,0.0,0.0,0.0,0.1,0.0,0.0,0.0,0.1
1446035418066528940,3914,1446035418064752101,robocape,108.791626771,-68.0125926936,-174.384693,0.0,10.0,0.0,0.0,0.0,10.0,0.0,0.0,0.0,10.0,0.210256568062,0.32344091439,0.25100293274,1.0,0.0,0.0,0.0,1.0,0.0,0.0,0.0,1.0,3.58294921875,7.34193237305,7.42575805664,0.1,0.0,0.0,0.0,0.1,0.0,0.0,0.0,0.1
1446035418095438732,3915,1446035418093302011,robocape,108.348835453,-68.6034335717,-173.976151117,0.0,10.0,0.0,0.0,0.0,10.0,0.0,0.0,0.0,10.0,-0.0733700880317,0.352469370272,0.513324300113,1.0,0.0,0.0,0.0,1.0,0.0,0.0,0.0,1.0,1.44778930664,6.79467041016,6.79227539063,0.1,0.0,0.0,0.0,0.1,0.0,0.0,0.0,0.1
1446035418116888524,3916,1446035418114648103,robocape,107.446999783,-68.971868771,-173.03930274,0.0,10.0,0.0,0.0,0.0,10.0,0.0,0.0,0.0,10.0,-0.0653806047614,0.481233208977,0.239684498107,1.0,0.0,0.0,0.0,1.0,0.0,0.0,0.0,1.0,2.79858032227,5.87378540039,7.0928503418,0.1,0.0,0.0,0.0,0.1,0.0,0.0,0.0,0.1
1446035418140398065,3917,1446035418138375043,robocape,107.014856024,-69.3211079066,-172.807668865,0.0,10.0,0.0,0.0,0.0,10.0,0.0,0.0,0.0,10.0,-0.198006027047,0.195609182066,0.314386166684,1.0,0.0,0.0,0.0,1.0,0.0,0.0,0.0,1.0,-0.380808105469,4.91577758789,9.29866333008,0.1,0.0,0.0,0.0,0.1,0.0,0.0,0.0,0.1
1446035418165539399,3918,1446035418163744926,robocape,106.588843328,-69.7509337444,-172.532267463,0.0,10.0,0.0,0.0,0.0,10.0,0.0,0.0,0.0,10.0,-0.157925452642,0.233159753436,0.392683102732,1.0,0.0,0.0,0.0,1.0,0.0,0.0,0.0,1.0,-0.786763916016,5.6294934082,7.57544677734,0.1,0.0,0.0,0.0,0.1,0.0,0.0,0.0,0.1
1446035418193902315,3919,1446035418191898107,robocape,106.496101423,-70.3384370486,-172.50876298,0.0,10.0,0.0,0.0,0.0,10.0,0.0,0.0,0.0,10.0,-0.0625842856169,0.182559692725,0.5824333304,1.0,0.0,0.0,0.0,1.0,0.0,0.0,0.0,1.0,4.17451904297,4.18290161133,10.2399060059,0.1,0.0,0.0,0.0,0.1,0.0,0.0,0.0,0.1
1446035418215701857,3920,1446035418213849067,robocape,105.811293046,-70.9981463781,-171.724378261,0.0,10.0,0.0,0.0,0.0,10.0,0.0,0.0,0.0,10.0,0.0186421276306,0.478570047887,0.581101749855,1.0,0.0,0.0,0.0,1.0,0.0,0.0,0.0,1.0,-4.88943237305,5.32532592773,8.47956665039,0.1,0.0,0.0,0.0,0.1,0.0,0.0,0.0,0.1
1446035418240424607,3921,1446035418238392114,robocape,105.108654891,-71.8125184112,-170.89127377,0.0,10.0,0.0,0.0,0.0,10.0,0.0,0.0,0.0,10.0,0.0462058449129,0.525042208909,0.749280372694,1.0,0.0,0.0,0.0,1.0,0.0,0.0,0.0,1.0,3.20094360352,2.45010498047,9.52140014648,0.1,0.0,0.0,0.0,0.1,0.0,0.0,0.0,0.1
1446035418266694274,3922,1446035418264722108,robocape,104.370215172,-72.4949931792,-169.971199181,0.0,10.0,0.0,0.0,0.0,10.0,0.0,0.0,0.0,10.0,0.0890827384632,0.501606391316,0.622780220915,1.0,0.0,0.0,0.0,1.0,0.0,0.0,0.0,1.0,0.779578857422,4.10865600586,8.18857177734,0.1,0.0,0.0,0.0,0.1,0.0,0.0,0.0,0.1
1446035418294001440,3923,1446035418292129993,robocape,103.776001192,-73.2421612853,-169.187882087,0.0,10.0,0.0,0.0,0.0,10.0,0.0,0.0,0.0,10.0,0.110121711075,0.456598968894,0.717322439613,1.0,0.0,0.0,0.0,1.0,0.0,0.0,0.0,1.0,-2.57823852539,3.49672851563,9.81,0.1,0.0,0.0,0.0,0.1,0.0,0.0,0.0,0.1
1446035418317089607,3924,1446035418315283060,robocape,103.035494214,-74.2300833001,-168.293872713,0.0,10.0,0.0,0.0,0.0,10.0,0.0,0.0,0.0,10.0,0.0769653555033,0.535029062997,0.981774335858,1.0,0.0,0.0,0.0,1.0,0.0,0.0,0.0,1.0,0.232316894531,4.47150146484,8.14186889648,0.1,0.0,0.0,0.0,0.1,0.0,0.0,0.0,0.1
1446035418340133565,3925,1446035418338393926,robocape,101.332961791,-75.4944172263,-166.571956775,0.0,10.0,0.0,0.0,0.0,10.0,0.0,0.0,0.0,10.0,-0.0792290424299,0.813063080801,1.25767782479,1.0,0.0,0.0,0.0,1.0,0.0,0.0,0.0,1.0,-2.28604614258,6.07496704102,8.72864868164,0.1,0.0,0.0,0.0,0.1,0.0,0.0,0.0,0.1
1446035418365623190,3926,1446035418363832950,robocape,98.7845995977,-76.8883186567,-163.782457072,0.0,10.0,0.0,0.0,0.0,10.0,0.0,0.0,0.0,10.0,0.0792290424299,1.05141599836,1.40761379416,1.0,0.0,0.0,0.0,1.0,0.0,0.0,0.0,1.0,1.87530029297,2.835703125,8.01014282227,0.1,0.0,0.0,0.0,0.1,0.0,0.0,0.0,0.1
1446035418393540982,3927,1446035418391757965,robocape,95.0708843914,-78.273139876,-160.137541313,0.0,10.0,0.0,0.0,0.0,10.0,0.0,0.0,0.0,10.0,-0.200402872028,1.12025871254,1.45981175153,1.0,0.0,0.0,0.0,1.0,0.0,0.0,0.0,1.0,-3.6440222168,5.02115844727,8.7334387207,0.1,0.0,0.0,0.0,0.1,0.0,0.0,0.0,0.1
1446035418416446857,3928,1446035418414632081,robocape,90.0093246719,-79.4717104384,-154.943730553,0.0,10.0,0.0,0.0,0.0,10.0,0.0,0.0,0.0,10.0,-0.0468716351854,1.26446888557,1.3349094964,1.0,0.0,0.0,0.0,1.0,0.0,0.0,0.0,1.0,-1.11368408203,1.2681628418,10.2411035156,0.1,0.0,0.0,0.0,0.1,0.0,0.0,0.0,0.1
1446035418440359649,3929,1446035418438465118,robocape,84.8227164494,-80.5571195974,-149.325316815,0.0,10.0,0.0,0.0,0.0,10.0,0.0,0.0,0.0,10.0,0.234225017872,1.1174623934,1.32425685204,1.0,0.0,0.0,0.0,1.0,0.0,0.0,0.0,1.0,-2.05732177734,0.0215551757813,8.10474609375,0.1,0.0,0.0,0.0,0.1,0.0,0.0,0.0,0.1
1446035418465482065,3930,1446035418463707923,robocape,77.9680523339,-81.5734346974,-141.764533549,0.0,10.0,0.0,0.0,0.0,10.0,0.0,0.0,0.0,10.0,0.461658974965,1.22718463031,1.40122220755,1.0,0.0,0.0,0.0,1.0,0.0,0.0,0.0,1.0,1.1879296875,4.00327514648,14.2324035645,0.1,0.0,0.0,0.0,0.1,0.0,0.0,0.0,0.1
1446035418492913190,3931,1446035418491138935,robocape,70.1668417247,-82.5253078123,-133.278050884,0.0,10.0,0.0,0.0,0.0,10.0,0.0,0.0,0.0,10.0,0.459927920257,1.06113653634,1.48244862079,1.0,0.0,0.0,0.0,1.0,0.0,0.0,0.0,1.0,0.405955810547,4.86428466797,6.69288208008,0.1,0.0,0.0,0.0,0.1,0.0,0.0,0.0,0.1
1446035418518740274,3932,1446035418516952037,robocape,59.4329815418,-83.3680149697,-121.922753465,0.0,10.0,0.0,0.0,0.0,10.0,0.0,0.0,0.0,10.0,0.396544686313,1.10800817153,1.63624617374,1.0,0.0,0.0,0.0,1.0,0.0,0.0,0.0,1.0,-1.57592285156,4.89422241211,9.69743408203,0.1,0.0,0.0,0.0,0.1,0.0,0.0,0.0,0.1
1446035418541192399,3933,1446035418539427995,robocape,45.9541660583,-83.8465028105,-107.89719052,0.0,10.0,0.0,0.0,0.0,10.0,0.0,0.0,0.0,10.0,0.328900394625,1.16766297995,1.6112124595,1.0,0.0,0.0,0.0,1.0,0.0,0.0,0.0,1.0,-2.15551757812,5.10378662109,11.8014587402,0.1,0.0,0.0,0.0,0.1,0.0,0.0,0.0,0.1
1446035418565565774,3934,1446035418563823938,robocape,31.0978993669,-83.7856425527,-92.4955357219,0.0,10.0,0.0,0.0,0.0,10.0,0.0,0.0,0.0,10.0,0.323574072445,1.31799842348,1.53824184563,1.0,0.0,0.0,0.0,1.0,0.0,0.0,0.0,1.0,-0.892144775391,4.38767578125,6.29770385742,0.1,0.0,0.0,0.0,0.1,0.0,0.0,0.0,0.1
1446035418591337024,3935,1446035418589572906,robocape,19.541261761,-83.455944137,-80.3306033584,0.0,10.0,0.0,0.0,0.0,10.0,0.0,0.0,0.0,10.0,0.402403640711,1.06379969743,1.32212632317,1.0,0.0,0.0,0.0,1.0,0.0,0.0,0.0,1.0,0.534089355469,2.7243347168,8.82564697266,0.1,0.0,0.0,0.0,0.1,0.0,0.0,0.0,0.1
1446035418620410816,3936,1446035418618556022,robocape,11.2712053117,-82.7742649215,-71.2271514292,0.0,10.0,0.0,0.0,0.0,10.0,0.0,0.0,0.0,10.0,0.615456527917,1.1426292657,1.06606338436,1.0,0.0,0.0,0.0,1.0,0.0,0.0,0.0,1.0,-0.786763916016,5.42352172852,9.21603515625,0.1,0.0,0.0,0.0,0.1,0.0,0.0,0.0,0.1
1446035418640213441,3937,1446035418638461112,robocape,5.28550288693,-82.3010310561,-64.4547115453,0.0,10.0,0.0,0.0,0.0,10.0,0.0,0.0,0.0,10.0,0.588824917017,0.714925594632,0.978844858659,1.0,0.0,0.0,0.0,1.0,0.0,0.0,0.0,1.0,4.75411376953,4.48826660156,8.68074829102,0.1,0.0,0.0,0.0,0.1,0.0,0.0,0.0,0.1
1446035418670057066,3938,1446035418663453102,robocape,0.434603628833,-81.5734413365,-58.8796924981,0.0,10.0,0.0,0.0,0.0,10.0,0.0,0.0,0.0,10.0,0.53835801436,0.913863728061,0.906406877008,1.0,0.0,0.0,0.0,1.0,0.0,0.0,0.0,1.0,-1.9890637207,9.64594116211,6.70485717773,0.1,0.0,0.0,0.0,0.1,0.0,0.0,0.0,0.1
1446035418694686232,3939,1446035418692715883,robocape,-2.27881939487,-81.0531752486,-55.7414244388,0.0,10.0,0.0,0.0,0.0,10.0,0.0,0.0,0.0,10.0,0.309725634776,0.608265992974,0.58509649149,1.0,0.0,0.0,0.0,1.0,0.0,0.0,0.0,1.0,-1.75315429688,4.13021118164,8.37658081055,0.1,0.0,0.0,0.0,0.1,0.0,0.0,0.0,0.1
1446035418719488482,3940,1446035418717117071,robocape,-4.37251174669,-80.6940510533,-53.4539645396,0.0,10.0,0.0,0.0,0.0,10.0,0.0,0.0,0.0,10.0,0.120108565163,0.39854205713,0.463523187728,1.0,0.0,0.0,0.0,1.0,0.0,0.0,0.0,1.0,2.03935913086,8.69990844727,6.29890136719,0.1,0.0,0.0,0.0,0.1,0.0,0.0,0.0,0.1
1446035418741783482,3941,1446035418739718914,robocape,-6.39004946221,-80.3171315065,-51.4736884187,0.0,10.0,0.0,0.0,0.0,10.0,0.0,0.0,0.0,10.0,-0.0782969360483,0.40533311791,0.435160522119,1.0,0.0,0.0,0.0,1.0,0.0,0.0,0.0,1.0,-2.16629516602,6.22465576172,9.35494628906,0.1,0.0,0.0,0.0,0.1,0.0,0.0,0.0,0.1
1446035418765405732,3942,1446035418763751983,robocape,-7.78983310003,-80.0823509257,-50.0730498697,0.0,10.0,0.0,0.0,0.0,10.0,0.0,0.0,0.0,10.0,-0.0336889877895,0.238352917562,0.319978804973,1.0,0.0,0.0,0.0,1.0,0.0,0.0,0.0,1.0,0.336500244141,5.18521728516,6.83059570313,0.1,0.0,0.0,0.0,0.1,0.0,0.0,0.0,0.1
1446035418790709816,3943,1446035418788945913,robocape,-8.56914800668,-79.8431604136,-49.122252908,0.0,10.0,0.0,0.0,0.0,10.0,0.0,0.0,0.0,10.0,0.125168571234,0.249271878031,0.237953443399,1.0,0.0,0.0,0.0,1.0,0.0,0.0,0.0,1.0,-1.36276611328,4.42599609375,8.01613037109,0.1,0.0,0.0,0.0,0.1,0.0,0.0,0.0,0.1
1446035418819026399,3944,1446035418817087888,robocape,-8.61172760192,-79.6676900283,-48.6090628589,0.0,10.0,0.0,0.0,0.0,10.0,0.0,0.0,0.0,10.0,0.396944160476,0.186687592415,0.13954964112,1.0,0.0,0.0,0.0,1.0,0.0,0.0,0.0,1.0,-1.13643676758,4.85949462891,9.14178955078,0.1,0.0,0.0,0.0,0.1,0.0,0.0,0.0,0.1
1446035418841774607,3945,1446035418840055942,robocape,-9.35789564843,-79.5573232575,-47.4004616741,0.0,10.0,0.0,0.0,0.0,10.0,0.0,0.0,0.0,10.0,0.370312549576,0.0864195773731,0.279631914458,1.0,0.0,0.0,0.0,1.0,0.0,0.0,0.0,1.0,1.9507434082,5.91330322266,8.0855859375,0.1,0.0,0.0,0.0,0.1,0.0,0.0,0.0,0.1
1446035418865332649,3946,1446035418863584041,robocape,-10.8646370015,-79.2128438848,-45.507774296,0.0,10.0,0.0,0.0,0.0,10.0,0.0,0.0,0.0,10.0,0.282561391657,0.321843017736,0.483896370067,1.0,0.0,0.0,0.0,1.0,0.0,0.0,0.0,1.0,-1.46096191406,9.75491455078,7.74309814453,0.1,0.0,0.0,0.0,0.1,0.0,0.0,0.0,0.1
1446035418890499649,3947,1446035418888793945,robocape,-11.9791813754,-78.7715598951,-44.3854583413,0.0,10.0,0.0,0.0,0.0,10.0,0.0,0.0,0.0,10.0,-0.0276968753368,0.451538962823,0.354067266926,1.0,0.0,0.0,0.0,1.0,0.0,0.0,0.0,1.0,1.64897094727,8.10354858398,6.07496704102,0.1,0.0,0.0,0.0,0.1,0.0,0.0,0.0,0.1
1446035418918924524,3948,1446035418916909933,robocape,-12.9327808638,-78.1794292793,-43.7847591643,0.0,10.0,0.0,0.0,0.0,10.0,0.0,0.0,0.0,10.0,-0.328101446298,0.637161290801,0.288154029947,1.0,0.0,0.0,0.0,1.0,0.0,0.0,0.0,1.0,0.476608886719,7.86883666992,8.9705456543,0.1,0.0,0.0,0.0,0.1,0.0,0.0,0.0,0.1
1446035418942005899,3949,1446035418940237998,robocape,-13.2595242978,-77.9913041726,-43.7213808052,0.0,10.0,0.0,0.0,0.0,10.0,0.0,0.0,0.0,10.0,-0.232094489,0.207327090863,0.0643153403254,1.0,0.0,0.0,0.0,1.0,0.0,0.0,0.0,1.0,-1.44659179688,3.09795776367,8.28317504883,0.1,0.0,0.0,0.0,0.1,0.0,0.0,0.0,0.1
1446035418965469982,3950,1446035418963479042,robocape,-13.2708784925,-77.9443343682,-43.889781391,0.0,10.0,0.0,0.0,0.0,10.0,0.0,0.0,0.0,10.0,-0.150734917698,0.0621848114534,-0.0284958236638,1.0,0.0,0.0,0.0,1.0,0.0,0.0,0.0,1.0,0.276624755859,3.71108276367,7.78501098633,0.1,0.0,0.0,0.0,0.1,0.0,0.0,0.0,0.1
1446035418990881816,3951,1446035418989098072,robocape,-13.6952476446,-77.9136901115,-43.3028368737,0.0,10.0,0.0,0.0,0.0,10.0,0.0,0.0,0.0,10.0,0.120374881272,0.0,0.151001233807,1.0,0.0,0.0,0.0,1.0,0.0,0.0,0.0,1.0,-1.76033935547,6.92998901367,8.58255249023,0.1,0.0,0.0,0.0,0.1,0.0,0.0,0.0,0.1
1446035419018353774,3952,1446035419016560077,robocape,-13.351515753,-77.9499694805,-43.3082023311,0.0,10.0,0.0,0.0,0.0,10.0,0.0,0.0,0.0,10.0,0.295477722944,-0.0402137324602,-0.0110521185238,1.0,0.0,0.0,0.0,1.0,0.0,0.0,0.0,1.0,0.40236328125,6.02227661133,7.21020629883,0.1,0.0,0.0,0.0,0.1,0.0,0.0,0.0,0.1
1446035419043655149,3953,1446035419040735960,robocape,-13.6241830497,-77.9383065674,-42.7944484518,0.0,10.0,0.0,0.0,0.0,10.0,0.0,0.0,0.0,10.0,0.191614440431,-0.016911072922,0.127964890378,1.0,0.0,0.0,0.0,1.0,0.0,0.0,0.0,1.0,-0.540076904297,6.47493530273,7.6676550293,0.1,0.0,0.0,0.0,0.1,0.0,0.0,0.0,0.1
1446035419065624316,3954,1446035419063570022,robocape,-13.8177638893,-77.7760372703,-42.3993118,0.0,10.0,0.0,0.0,0.0,10.0,0.0,0.0,0.0,10.0,0.161254404004,0.157392820424,0.140748063611,1.0,0.0,0.0,0.0,1.0,0.0,0.0,0.0,1.0,-0.956810302734,8.21132446289,6.88687866211,0.1,0.0,0.0,0.0,0.1,0.0,0.0,0.0,0.1
1446035419090736107,3955,1446035419088963031,robocape,-13.918331559,-77.650674111,-42.3214575064,0.0,10.0,0.0,0.0,0.0,10.0,0.0,0.0,0.0,10.0,-0.0227700273202,0.134755951158,0.0536626959651,1.0,0.0,0.0,0.0,1.0,0.0,0.0,0.0,1.0,2.53393066406,4.24038208008,6.13604003906,0.1,0.0,0.0,0.0,0.1,0.0,0.0,0.0,0.1
1446035419117432691,3956,1446035419115151882,robocape,-13.9991878826,-77.6173281361,-42.0812754418,0.0,10.0,0.0,0.0,0.0,10.0,0.0,0.0,0.0,10.0,0.129829103141,0.0222373951022,0.0688427141785,1.0,0.0,0.0,0.0,1.0,0.0,0.0,0.0,1.0,-2.09085205078,5.68697387695,8.65200805664,0.1,0.0,0.0,0.0,0.1,0.0,0.0,0.0,0.1
1446035419143644524,3957,1446035419141658067,robocape,-14.5729281736,-77.6447949384,-41.5285589811,0.0,10.0,0.0,0.0,0.0,10.0,0.0,0.0,0.0,10.0,-0.0395479421877,-0.0653806047614,0.129296470923,1.0,0.0,0.0,0.0,1.0,0.0,0.0,0.0,1.0,-1.49688720703,5.79355224609,6.29650634766,0.1,0.0,0.0,0.0,0.1,0.0,0.0,0.0,0.1
1446035419166791482,3958,1446035419164813995,robocape,-14.5424992234,-77.429352591,-41.5297438867,0.0,10.0,0.0,0.0,0.0,10.0,0.0,0.0,0.0,10.0,0.0255663464648,0.238619233671,0.0616521792353,1.0,0.0,0.0,0.0,1.0,0.0,0.0,0.0,1.0,-3.80209350586,6.6713269043,9.1932824707,0.1,0.0,0.0,0.0,0.1,0.0,0.0,0.0,0.1
1446035419190586816,3959,1446035419188818931,robocape,-15.2063609172,-77.4274211224,-40.9745369155,0.0,10.0,0.0,0.0,0.0,10.0,0.0,0.0,0.0,10.0,-0.1167796138,-0.03488741028,0.139949115284,1.0,0.0,0.0,0.0,1.0,0.0,0.0,0.0,1.0,0.184416503906,5.12294677734,5.7444543457,0.1,0.0,0.0,0.0,0.1,0.0,0.0,0.0,0.1
1446035419215933607,3960,1446035419214099884,robocape,-14.7993607175,-77.2640815239,-41.2570177304,0.0,10.0,0.0,0.0,0.0,10.0,0.0,0.0,0.0,10.0,0.119975407108,0.199204449538,-0.0230363434292,1.0,0.0,0.0,0.0,1.0,0.0,0.0,0.0,1.0,-2.77343261719,5.95282104492,10.4865930176,0.1,0.0,0.0,0.0,0.1,0.0,0.0,0.0,0.1
1446035419245020316,3961,1446035419242685079,robocape,-14.7741980561,-77.1025226729,-41.2538004072,0.0,10.0,0.0,0.0,0.0,10.0,0.0,0.0,0.0,10.0,0.0246342400832,0.177766002763,0.0478037415669,1.0,0.0,0.0,0.0,1.0,0.0,0.0,0.0,1.0,-2.27047851563,7.82333129883,7.74669067383,0.1,0.0,0.0,0.0,0.1,0.0,0.0,0.0,0.1
1446035419267123733,3962,1446035419264688968,robocape,-14.9564793044,-77.1027369424,-41.0737909996,0.0,10.0,0.0,0.0,0.0,10.0,0.0,0.0,0.0,10.0,-0.00945422186978,-0.0125168571234,0.0462058449129,1.0,0.0,0.0,0.0,1.0,0.0,0.0,0.0,1.0,1.48491210938,4.62957275391,7.08087524414,0.1,0.0,0.0,0.0,0.1,0.0,0.0,0.0,0.1
1446035419290260649,3963,1446035419288410902,robocape,-14.7346032779,-77.0237975775,-41.0659527783,0.0,10.0,0.0,0.0,0.0,10.0,0.0,0.0,0.0,10.0,0.200136555919,0.0862864193186,0.0250337142467,1.0,0.0,0.0,0.0,1.0,0.0,0.0,0.0,1.0,0.732875976563,8.10833862305,6.03185668945,0.1,0.0,0.0,0.0,0.1,0.0,0.0,0.0,0.1
1446035419315713733,3964,1446035419313960075,robocape,-15.3793173061,-76.8452324867,-40.3397684963,0.0,10.0,0.0,0.0,0.0,10.0,0.0,0.0,0.0,10.0,0.0402137324602,0.145142279409,0.241415552816,1.0,0.0,0.0,0.0,1.0,0.0,0.0,0.0,1.0,-0.501756591797,8.18378173828,9.13580200195,0.1,0.0,0.0,0.0,0.1,0.0,0.0,0.0,0.1
