%time,field.header.seq,field.header.stamp,field.header.frame_id,field.orientation.x,field.orientation.y,field.orientation.z,field.orientation.w,field.orientation_covariance0,field.orientation_covariance1,field.orientation_covariance2,field.orientation_covariance3,field.orientation_covariance4,field.orientation_covariance5,field.orientation_covariance6,field.orientation_covariance7,field.orientation_covariance8,field.angular_velocity.x,field.angular_velocity.y,field.angular_velocity.z,field.angular_velocity_covariance0,field.angular_velocity_covariance1,field.angular_velocity_covariance2,field.angular_velocity_covariance3,field.angular_velocity_covariance4,field.angular_velocity_covariance5,field.angular_velocity_covariance6,field.angular_velocity_covariance7,field.angular_velocity_covariance8,field.linear_acceleration.x,field.linear_acceleration.y,field.linear_acceleration.z,field.linear_acceleration_covariance0,field.linear_acceleration_covariance1,field.linear_acceleration_covariance2,field.linear_acceleration_covariance3,field.linear_acceleration_covariance4,field.linear_acceleration_covariance5,field.linear_acceleration_covariance6,field.linear_acceleration_covariance7,field.linear_acceleration_covariance8
1446039802653148219,1,1446039802650154113,robocape,-14.5907905283,-15.084220378,-83.5875838115,0.0,10.0,0.0,0.0,0.0,10.0,0.0,0.0,0.0,10.0,-0.962732734064,-0.148870704935,-2.11348464109,1.0,0.0,0.0,0.0,1.0,0.0,0.0,0.0,1.0,-1.06338867188,0.809516601563,9.89502319336,0.1,0.0,0.0,0.0,0.1,0.0,0.0,0.0,0.1
1446039802687618844,2,1446039802683752059,robocape,-15.5324431673,-16.0857688808,-86.0961642052,0.0,10.0,0.0,0.0,0.0,10.0,0.0,0.0,0.0,10.0,-1.03423860933,-0.192679704867,-2.03305717617,1.0,0.0,0.0,0.0,1.0,0.0,0.0,0.0,1.0,-1.19271972656,0.288599853516,9.60402832031,0.1,0.0,0.0,0.0,0.1,0.0,0.0,0.0,0.1
1446039802724800677,3,1446039802718951940,robocape,-16.4002284313,-17.2481492449,-88.5296474044,0.0,10.0,0.0,0.0,0.0,10.0,0.0,0.0,0.0,10.0,-1.02518386163,-0.262454525427,-2.0516993038,1.0,0.0,0.0,0.0,1.0,0.0,0.0,0.0,1.0,-1.01788330078,-0.126936035156,9.41362426758,0.1,0.0,0.0,0.0,0.1,0.0,0.0,0.0,0.1
1446039802752918760,4,1446039802749919891,robocape,-16.8447817207,-18.2689352522,-91.1078708263,0.0,10.0,0.0,0.0,0.0,10.0,0.0,0.0,0.0,10.0,-0.870853676456,-0.154463343225,-2.14743994499,1.0,0.0,0.0,0.0,1.0,0.0,0.0,0.0,1.0,-0.492176513672,-0.4981640625,9.49625244141,0.1,0.0,0.0,0.0,0.1,0.0,0.0,0.0,0.1
1446039802787538844,5,1446039802783587932,robocape,-16.9380941461,-19.0157085244,-93.8479182756,0.0,10.0,0.0,0.0,0.0,10.0,0.0,0.0,0.0,10.0,-0.750878269348,0.0137152796139,-2.22480477465,1.0,0.0,0.0,0.0,1.0,0.0,0.0,0.0,1.0,-0.474213867188,-0.360450439453,9.2004675293,0.1,0.0,0.0,0.0,0.1,0.0,0.0,0.0,0.1
1446039802819951385,6,1446039802816910028,robocape,-16.6755378884,-19.6664770175,-96.6508648249,0.0,10.0,0.0,0.0,0.0,10.0,0.0,0.0,0.0,10.0,-0.595216503633,0.0691090302876,-2.25010480501,1.0,0.0,0.0,0.0,1.0,0.0,0.0,0.0,1.0,-0.359252929688,0.0155676269531,9.35015625,0.1,0.0,0.0,0.0,0.1,0.0,0.0,0.0,0.1
1446039802852944385,7,1446039802849977970,robocape,-16.7264866415,-20.1546441934,-99.3551432275,0.0,10.0,0.0,0.0,0.0,10.0,0.0,0.0,0.0,10.0,-0.762596178144,0.133158054504,-2.19830632181,1.0,0.0,0.0,0.0,1.0,0.0,0.0,0.0,1.0,0.0131726074219,1.73399414063,9.81479003906,0.1,0.0,0.0,0.0,0.1,0.0,0.0,0.0,0.1
1446039802887274052,8,1446039802883290052,robocape,-17.3889508936,-20.6000817068,-101.847056939,0.0,10.0,0.0,0.0,0.0,10.0,0.0,0.0,0.0,10.0,-1.06553075214,0.13422331894,-2.11388411525,1.0,0.0,0.0,0.0,1.0,0.0,0.0,0.0,1.0,0.279019775391,0.280217285156,9.93813354492,0.1,0.0,0.0,0.0,0.1,0.0,0.0,0.0,0.1
1446039802920001260,9,1446039802916893959,robocape,-18.3226081173,-20.9562611897,-104.238897622,0.0,10.0,0.0,0.0,0.0,10.0,0.0,0.0,0.0,10.0,-1.20894197684,0.188285489069,-2.07140669586,1.0,0.0,0.0,0.0,1.0,0.0,0.0,0.0,1.0,0.338895263672,0.439486083984,10.2159558105,0.1,0.0,0.0,0.0,0.1,0.0,0.0,0.0,0.1
1446039802961395177,10,1446039802958065032,robocape,-19.4630893802,-21.2296872899,-106.597783745,0.0,10.0,0.0,0.0,0.0,10.0,0.0,0.0,0.0,10.0,-1.3451626666,0.256861887138,-2.11002253167,1.0,0.0,0.0,0.0,1.0,0.0,0.0,0.0,1.0,0.100590820313,-0.901724853516,10.2015856934,0.1,0.0,0.0,0.0,0.1,0.0,0.0,0.0,0.1
1446039802987386885,11,1446039802983479022,robocape,-20.2614785622,-21.450984223,-109.048245672,0.0,10.0,0.0,0.0,0.0,10.0,0.0,0.0,0.0,10.0,-1.20481407715,0.331829871824,-2.18219419721,1.0,0.0,0.0,0.0,1.0,0.0,0.0,0.0,1.0,0.283809814453,-2.27886108398,10.4111499023,0.1,0.0,0.0,0.0,0.1,0.0,0.0,0.0,0.1
1446039803019974177,12,1446039803016890048,robocape,-20.3109095338,-21.3847177211,-111.787277338,0.0,10.0,0.0,0.0,0.0,10.0,0.0,0.0,0.0,10.0,-0.880840530544,0.546081181521,-2.30496592346,1.0,0.0,0.0,0.0,1.0,0.0,0.0,0.0,1.0,0.258662109375,-3.27518920898,10.362052002,0.1,0.0,0.0,0.0,0.1,0.0,0.0,0.0,0.1
1446039803052978469,13,1446039803049947977,robocape,-19.6298439854,-21.1232329603,-114.708412524,0.0,10.0,0.0,0.0,0.0,10.0,0.0,0.0,0.0,10.0,-0.508264294042,0.673113965518,-2.32360805109,1.0,0.0,0.0,0.0,1.0,0.0,0.0,0.0,1.0,-0.761616210938,-2.61895385742,10.1560803223,0.1,0.0,0.0,0.0,0.1,0.0,0.0,0.0,0.1
1446039803087721677,14,1446039803083756923,robocape,-18.8324336434,-20.8082056654,-117.514000595,0.0,10.0,0.0,0.0,0.0,10.0,0.0,0.0,0.0,10.0,-0.364853069341,0.65899921174,-2.12986308179,1.0,0.0,0.0,0.0,1.0,0.0,0.0,0.0,1.0,-1.26696533203,-0.802331542969,9.86388793945,0.1,0.0,0.0,0.0,0.1,0.0,0.0,0.0,0.1
1446039803119791094,15,1446039803116796016,robocape,-18.2369414179,-20.4236605083,-120.143006358,0.0,10.0,0.0,0.0,0.0,10.0,0.0,0.0,0.0,10.0,-0.380432561718,0.64421866769,-1.90495912773,1.0,0.0,0.0,0.0,1.0,0.0,0.0,0.0,1.0,-1.39869140625,-0.130528564453,9.33219360352,0.1,0.0,0.0,0.0,0.1,0.0,0.0,0.0,0.1
1446039803153087552,16,1446039803150139093,robocape,-17.7948378533,-20.0122679699,-122.633539966,0.0,10.0,0.0,0.0,0.0,10.0,0.0,0.0,0.0,10.0,-0.38642467417,0.621182324261,-1.72239943501,1.0,0.0,0.0,0.0,1.0,0.0,0.0,0.0,1.0,-1.43341918945,-0.0359252929688,8.92743530273,0.1,0.0,0.0,0.0,0.1,0.0,0.0,0.0,0.1
1446039803186856010,17,1446039803183346986,robocape,-17.4974431955,-19.6846108787,-124.978049964,0.0,10.0,0.0,0.0,0.0,10.0,0.0,0.0,0.0,10.0,-0.389620467479,0.54488275903,-1.5462313289,1.0,0.0,0.0,0.0,1.0,0.0,0.0,0.0,1.0,-1.61424316406,0.680185546875,8.38376586914,0.1,0.0,0.0,0.0,0.1,0.0,0.0,0.0,0.1
1446039803219912802,18,1446039803216923952,robocape,-17.8089766902,-19.5762734528,-127.047269452,0.0,10.0,0.0,0.0,0.0,10.0,0.0,0.0,0.0,10.0,-0.618918637334,0.387223622498,-1.31879737181,1.0,0.0,0.0,0.0,1.0,0.0,0.0,0.0,1.0,-1.96271850586,1.98187866211,8.21850952148,0.1,0.0,0.0,0.0,0.1,0.0,0.0,0.0,0.1
1446039803253013761,19,1446039803250000000,robocape,-18.6122507142,-19.67439211,-128.868121989,0.0,10.0,0.0,0.0,0.0,10.0,0.0,0.0,0.0,10.0,-0.78256988632,0.243679239742,-1.03517071571,1.0,0.0,0.0,0.0,1.0,0.0,0.0,0.0,1.0,-1.21786743164,1.36755615234,8.27119995117,0.1,0.0,0.0,0.0,0.1,0.0,0.0,0.0,0.1
1446039803286928511,20,1446039803283360958,robocape,-19.3073526241,-19.7901555523,-130.676673975,0.0,10.0,0.0,0.0,0.0,10.0,0.0,0.0,0.0,10.0,-0.696283467001,0.236355546745,-0.91266530557,1.0,0.0,0.0,0.0,1.0,0.0,0.0,0.0,1.0,0.826281738281,-1.89685546875,8.79810424805,0.1,0.0,0.0,0.0,0.1,0.0,0.0,0.0,0.1
1446039803321670177,21,1446039803318542957,robocape,-19.4552572604,-19.6163173565,-132.703706738,0.0,10.0,0.0,0.0,0.0,10.0,0.0,0.0,0.0,10.0,-0.448742643678,0.422377348887,-0.966061685426,1.0,0.0,0.0,0.0,1.0,0.0,0.0,0.0,1.0,0.265847167969,-0.434696044922,9.13939453125,0.1,0.0,0.0,0.0,0.1,0.0,0.0,0.0,0.1
1446039803360538677,22,1446039803350303888,robocape,-19.5595774409,-19.3159075156,-134.768219812,0.0,10.0,0.0,0.0,0.0,10.0,0.0,0.0,0.0,10.0,-0.417716816979,0.489755324466,-0.919722682459,1.0,0.0,0.0,0.0,1.0,0.0,0.0,0.0,1.0,0.159268798828,0.408350830078,8.95018798828,0.1,0.0,0.0,0.0,0.1,0.0,0.0,0.0,0.1
1446039803386919969,23,1446039803383261919,robocape,-19.8239898628,-18.8803304624,-136.83590246,0.0,10.0,0.0,0.0,0.0,10.0,0.0,0.0,0.0,10.0,-0.494948488591,0.560462251407,-0.895754232648,1.0,0.0,0.0,0.0,1.0,0.0,0.0,0.0,1.0,1.12446166992,0.0730480957031,9.00647094727,0.1,0.0,0.0,0.0,0.1,0.0,0.0,0.0,0.1
1446039803420250344,24,1446039803417115926,robocape,-20.1864299731,-18.2324848004,-138.922163682,0.0,10.0,0.0,0.0,0.0,10.0,0.0,0.0,0.0,10.0,-0.520381677001,0.664991324193,-0.784434099083,1.0,0.0,0.0,0.0,1.0,0.0,0.0,0.0,1.0,0.753233642578,-0.0155676269531,8.95258300781,0.1,0.0,0.0,0.0,0.1,0.0,0.0,0.0,0.1
1446039803453305886,25,1446039803450087070,robocape,-20.6350030825,-17.47862874,-140.976113628,0.0,10.0,0.0,0.0,0.0,10.0,0.0,0.0,0.0,10.0,-0.493883224155,0.689492406222,-0.509862190696,1.0,0.0,0.0,0.0,1.0,0.0,0.0,0.0,1.0,0.506546630859,-0.477806396484,9.26633056641,0.1,0.0,0.0,0.0,0.1,0.0,0.0,0.0,0.1
1446039803487159594,26,1446039803483354091,robocape,-20.8004100438,-16.6386059264,-143.063951027,0.0,10.0,0.0,0.0,0.0,10.0,0.0,0.0,0.0,10.0,-0.267381373444,0.697481889492,-0.178032318872,1.0,0.0,0.0,0.0,1.0,0.0,0.0,0.0,1.0,-0.620310058594,-1.55197265625,9.32141601563,0.1,0.0,0.0,0.0,0.1,0.0,0.0,0.0,0.1
1446039803519825594,27,1446039803516685009,robocape,-20.269010735,-15.8375412821,-145.23746943,0.0,10.0,0.0,0.0,0.0,10.0,0.0,0.0,0.0,10.0,0.165115987585,0.639158661619,0.124635939016,1.0,0.0,0.0,0.0,1.0,0.0,0.0,0.0,1.0,-1.45138183594,-2.55309082031,8.60291015625,0.1,0.0,0.0,0.0,0.1,0.0,0.0,0.0,0.1
1446039803552983636,28,1446039803549969911,robocape,-18.6100323866,-15.6718481176,-147.460137313,0.0,10.0,0.0,0.0,0.0,10.0,0.0,0.0,0.0,10.0,0.789494105154,0.285490868856,0.219311315768,1.0,0.0,0.0,0.0,1.0,0.0,0.0,0.0,1.0,-1.89086791992,-2.01421142578,7.65927246094,0.1,0.0,0.0,0.0,0.1,0.0,0.0,0.0,0.1
1446039803586842469,29,1446039803583374023,robocape,-16.82248647,-16.0516013274,-149.598533572,0.0,10.0,0.0,0.0,0.0,10.0,0.0,0.0,0.0,10.0,0.873516837546,-0.0274305592278,0.262587683482,1.0,0.0,0.0,0.0,1.0,0.0,0.0,0.0,1.0,-1.98547119141,-0.608334960938,7.98619262695,0.1,0.0,0.0,0.0,0.1,0.0,0.0,0.0,0.1
1446039803619980469,30,1446039803616843938,robocape,-15.3246256383,-16.8427853814,-151.658420194,0.0,10.0,0.0,0.0,0.0,10.0,0.0,0.0,0.0,10.0,0.689625564276,-0.239950814216,0.0794953585389,1.0,0.0,0.0,0.0,1.0,0.0,0.0,0.0,1.0,-1.22864501953,0.416733398438,8.01014282227,0.1,0.0,0.0,0.0,0.1,0.0,0.0,0.0,0.1
1446039803653012302,31,1446039803650060892,robocape,-13.944175291,-17.8573899228,-153.727446924,0.0,10.0,0.0,0.0,0.0,10.0,0.0,0.0,0.0,10.0,0.556866983936,-0.336490403732,-0.255796622702,1.0,0.0,0.0,0.0,1.0,0.0,0.0,0.0,1.0,-0.530496826172,0.490979003906,7.80776367188,0.1,0.0,0.0,0.0,0.1,0.0,0.0,0.0,0.1
1446039803686631344,32,1446039803683204889,robocape,-12.4987957381,-18.9333156569,-155.860107581,0.0,10.0,0.0,0.0,0.0,10.0,0.0,0.0,0.0,10.0,0.513057984004,-0.355931479689,-0.565389099424,1.0,0.0,0.0,0.0,1.0,0.0,0.0,0.0,1.0,0.0107775878906,0.468226318359,8.19934936523,0.1,0.0,0.0,0.0,0.1,0.0,0.0,0.0,0.1
1446039803719906219,33,1446039803716773986,robocape,-11.1269732679,-19.8808806066,-158.047370181,0.0,10.0,0.0,0.0,0.0,10.0,0.0,0.0,0.0,10.0,0.402803114874,-0.289618768546,-0.811997816365,1.0,0.0,0.0,0.0,1.0,0.0,0.0,0.0,1.0,0.74724609375,-0.00838256835938,10.0459094238,0.1,0.0,0.0,0.0,0.1,0.0,0.0,0.0,0.1
1446039803753101927,34,1446039803750149011,robocape,-10.4025166352,-20.203596416,-160.21577376,0.0,10.0,0.0,0.0,0.0,10.0,0.0,0.0,0.0,10.0,0.0388821519152,0.0173105470855,-0.827044676524,1.0,0.0,0.0,0.0,1.0,0.0,0.0,0.0,1.0,1.20708984375,1.31127319336,11.1595935059,0.1,0.0,0.0,0.0,0.1,0.0,0.0,0.0,0.1
1446039803786721052,35,1446039803783222913,robocape,-10.4267305222,-20.1672129926,-162.284830495,0.0,10.0,0.0,0.0,0.0,10.0,0.0,0.0,0.0,10.0,-0.303999838433,0.176967054436,-0.571248053822,1.0,0.0,0.0,0.0,1.0,0.0,0.0,0.0,1.0,1.16278198242,1.34360595703,11.6373999023,0.1,0.0,0.0,0.0,0.1,0.0,0.0,0.0,0.1
1446039803819995344,36,1446039803816798925,robocape,-10.4316078571,-20.0296561161,-164.368925632,0.0,10.0,0.0,0.0,0.0,10.0,0.0,0.0,0.0,10.0,-0.244078713906,0.21198762277,-0.299605622634,1.0,0.0,0.0,0.0,1.0,0.0,0.0,0.0,1.0,0.878972167969,-0.493374023438,11.7152380371,0.1,0.0,0.0,0.0,0.1,0.0,0.0,0.0,0.1
1446039803852927094,37,1446039803849955081,robocape,-9.65653013436,-19.6498491144,-166.631708168,0.0,10.0,0.0,0.0,0.0,10.0,0.0,0.0,0.0,10.0,0.136353847812,0.342615674239,-0.358195166616,1.0,0.0,0.0,0.0,1.0,0.0,0.0,0.0,1.0,0.913699951172,-1.45018432617,11.8050512695,0.1,0.0,0.0,0.0,0.1,0.0,0.0,0.0,0.1
1446039803886633177,38,1446039803883264064,robocape,-9.14230542017,-19.1199875055,-168.858786515,0.0,10.0,0.0,0.0,0.0,10.0,0.0,0.0,0.0,10.0,0.0263652947918,0.402270482656,-0.250470300522,1.0,0.0,0.0,0.0,1.0,0.0,0.0,0.0,1.0,0.462238769531,1.24181762695,13.0947692871,0.1,0.0,0.0,0.0,0.1,0.0,0.0,0.0,0.1
1446039803920497928,39,1446039803917284011,robocape,-9.14310977858,-18.7043178899,-170.984168207,0.0,10.0,0.0,0.0,0.0,10.0,0.0,0.0,0.0,10.0,-0.205729194209,0.325837759371,-0.123038042362,1.0,0.0,0.0,0.0,1.0,0.0,0.0,0.0,1.0,-0.305364990234,-1.43940673828,12.701986084,0.1,0.0,0.0,0.0,0.1,0.0,0.0,0.0,0.1
1446039803953184053,40,1446039803950156927,robocape,-8.53305472706,-18.4971651241,-173.196823661,0.0,10.0,0.0,0.0,0.0,10.0,0.0,0.0,0.0,10.0,0.0957406411883,0.218512367441,-0.213585519424,1.0,0.0,0.0,0.0,1.0,0.0,0.0,0.0,1.0,-0.179626464844,-2.09803710938,12.0110229492,0.1,0.0,0.0,0.0,0.1,0.0,0.0,0.0,0.1
1446039803986500553,41,1446039803983344078,robocape,-7.51694305759,-18.2525749806,-175.477970244,0.0,10.0,0.0,0.0,0.0,10.0,0.0,0.0,0.0,10.0,0.286955607456,0.233825543709,-0.316783011665,1.0,0.0,0.0,0.0,1.0,0.0,0.0,0.0,1.0,-0.123343505859,-1.01189575195,12.2565124512,0.1,0.0,0.0,0.0,0.1,0.0,0.0,0.0,0.1
1446039804019930011,42,1446039804016751050,robocape,-6.72582109125,-17.8759185844,-177.725312903,0.0,10.0,0.0,0.0,0.0,10.0,0.0,0.0,0.0,10.0,0.188551805178,0.283626656093,-0.231828172891,1.0,0.0,0.0,0.0,1.0,0.0,0.0,0.0,1.0,-0.0934057617188,0.257464599609,13.3091235352,0.1,0.0,0.0,0.0,0.1,0.0,0.0,0.0,0.1
1446039804052984219,43,1446039804049973011,robocape,-6.16199412692,-17.3970145759,-179.935064185,0.0,10.0,0.0,0.0,0.0,10.0,0.0,0.0,0.0,10.0,0.108124340257,0.31545143112,-0.0354200424981,1.0,0.0,0.0,0.0,1.0,0.0,0.0,0.0,1.0,-0.0526904296875,-0.623902587891,13.7522021484,0.1,0.0,0.0,0.0,0.1,0.0,0.0,0.0,0.1
1446039804086435594,44,1446039804083323955,robocape,-5.41864788015,-16.811255565,177.833129198,0.0,10.0,0.0,0.0,0.0,10.0,0.0,0.0,0.0,10.0,0.226102376548,0.35446674109,0.0997353828235,1.0,0.0,0.0,0.0,1.0,0.0,0.0,0.0,1.0,-0.922082519531,-0.609532470703,12.8540698242,0.1,0.0,0.0,0.0,0.1,0.0,0.0,0.0,0.1
1446039804119928094,45,1446039804116781949,robocape,-4.64483998965,-16.3567542357,175.616680358,0.0,10.0,0.0,0.0,0.0,10.0,0.0,0.0,0.0,10.0,0.267248215389,0.268846112043,0.22823290542,1.0,0.0,0.0,0.0,1.0,0.0,0.0,0.0,1.0,-1.43102416992,0.742456054688,12.6445056152,0.1,0.0,0.0,0.0,0.1,0.0,0.0,0.0,0.1
1446039804153284178,46,1446039804150315999,robocape,-4.07122441073,-16.3433559666,173.454504477,0.0,10.0,0.0,0.0,0.0,10.0,0.0,0.0,0.0,10.0,0.169510203384,0.0287621397729,0.23768712729,1.0,0.0,0.0,0.0,1.0,0.0,0.0,0.0,1.0,-1.09452392578,0.176033935547,12.359498291,0.1,0.0,0.0,0.0,0.1,0.0,0.0,0.0,0.1
1446039804186383136,47,1446039804183300018,robocape,-3.22426567519,-16.3889820319,171.261534415,0.0,10.0,0.0,0.0,0.0,10.0,0.0,0.0,0.0,10.0,0.286689291347,-0.00519316412565,0.0744353524677,1.0,0.0,0.0,0.0,1.0,0.0,0.0,0.0,1.0,-1.0310559082,-1.20948486328,11.9295922852,0.1,0.0,0.0,0.0,0.1,0.0,0.0,0.0,0.1
1446039804219899636,48,1446039804216773033,robocape,-2.17824936855,-16.4717951742,169.046321581,0.0,10.0,0.0,0.0,0.0,10.0,0.0,0.0,0.0,10.0,0.364453595177,-0.0307595105904,-0.0961401153519,1.0,0.0,0.0,0.0,1.0,0.0,0.0,0.0,1.0,-1.82739990234,-0.480201416016,11.7176330566,0.1,0.0,0.0,0.0,0.1,0.0,0.0,0.0,0.1
1446039804252986136,49,1446039804249999046,robocape,-1.18082158438,-16.7509147851,166.841508606,0.0,10.0,0.0,0.0,0.0,10.0,0.0,0.0,0.0,10.0,0.319313014701,-0.143011750537,-0.224504479894,1.0,0.0,0.0,0.0,1.0,0.0,0.0,0.0,1.0,-1.99984130859,1.0765612793,11.1368408203,0.1,0.0,0.0,0.0,0.1,0.0,0.0,0.0,0.1
1446039804286846511,50,1446039804283696889,robocape,-0.481527369439,-17.3199479028,164.680013608,0.0,10.0,0.0,0.0,0.0,10.0,0.0,0.0,0.0,10.0,0.16498282953,-0.307062473686,-0.195742340121,1.0,0.0,0.0,0.0,1.0,0.0,0.0,0.0,1.0,-1.02506835938,1.09572143555,11.0326574707,0.1,0.0,0.0,0.0,0.1,0.0,0.0,0.0,0.1
1446039804320018344,51,1446039804316801071,robocape,0.0277131802566,-17.9299306867,162.552998355,0.0,10.0,0.0,0.0,0.0,10.0,0.0,0.0,0.0,10.0,0.0820253615744,-0.340751461476,-0.0583232278727,1.0,0.0,0.0,0.0,1.0,0.0,0.0,0.0,1.0,0.209564208984,0.641865234375,11.1548034668,0.1,0.0,0.0,0.0,0.1,0.0,0.0,0.0,0.1
1446039804360330053,52,1446039804350308895,robocape,0.459156351667,-18.1326696928,160.461469715,0.0,10.0,0.0,0.0,0.0,10.0,0.0,0.0,0.0,10.0,0.0612527050718,-0.137419112248,0.0631169178349,1.0,0.0,0.0,0.0,1.0,0.0,0.0,0.0,1.0,0.769998779297,0.677790527344,11.0829528809,0.1,0.0,0.0,0.0,0.1,0.0,0.0,0.0,0.1
1446039804386504803,53,1446039804383291006,robocape,0.693154508826,-18.0347161114,158.43460835,0.0,10.0,0.0,0.0,0.0,10.0,0.0,0.0,0.0,10.0,-0.0121173829599,0.0126500151779,0.207327090863,1.0,0.0,0.0,0.0,1.0,0.0,0.0,0.0,1.0,0.468226318359,1.05021606445,10.193203125,0.1,0.0,0.0,0.0,0.1,0.0,0.0,0.0,0.1
1446039804420477594,54,1446039804417289018,robocape,0.822878303562,-17.8026043559,156.453217597,0.0,10.0,0.0,0.0,0.0,10.0,0.0,0.0,0.0,10.0,-0.0535295379106,0.0788295682663,0.25100293274,1.0,0.0,0.0,0.0,1.0,0.0,0.0,0.0,1.0,0.111368408203,0.0215551757813,9.52738769531,0.1,0.0,0.0,0.0,0.1,0.0,0.0,0.0,0.1
1446039804453131678,55,1446039804450087070,robocape,1.07170575939,-17.4012383947,154.474911033,0.0,10.0,0.0,0.0,0.0,10.0,0.0,0.0,0.0,10.0,-0.00585895439817,0.165914935912,0.130361735359,1.0,0.0,0.0,0.0,1.0,0.0,0.0,0.0,1.0,0.221539306641,-0.319735107422,9.18609741211,0.1,0.0,0.0,0.0,0.1,0.0,0.0,0.0,0.1
1446039804486492011,56,1446039804483470916,robocape,1.5749683984,-16.8196908293,152.477023198,0.0,10.0,0.0,0.0,0.0,10.0,0.0,0.0,0.0,10.0,0.105194863058,0.257927151574,-0.0454068965859,1.0,0.0,0.0,0.0,1.0,0.0,0.0,0.0,1.0,-0.343685302734,-0.281414794922,9.53337524414,0.1,0.0,0.0,0.0,0.1,0.0,0.0,0.0,0.1
1446039804519866344,57,1446039804516710996,robocape,2.38024711137,-16.3006537648,150.45079556,0.0,10.0,0.0,0.0,0.0,10.0,0.0,0.0,0.0,10.0,0.25366609383,0.217447103005,-0.142745434428,1.0,0.0,0.0,0.0,1.0,0.0,0.0,0.0,1.0,-1.19271972656,-0.0910107421875,10.0135766602,0.1,0.0,0.0,0.0,0.1,0.0,0.0,0.0,0.1
1446039804553026553,58,1446039804550020933,robocape,3.50946887085,-16.1504985135,148.382598228,0.0,10.0,0.0,0.0,0.0,10.0,0.0,0.0,0.0,10.0,0.42277682305,0.0099868540878,-0.151400707971,1.0,0.0,0.0,0.0,1.0,0.0,0.0,0.0,1.0,-1.54478759766,0.359252929688,10.1764379883,0.1,0.0,0.0,0.0,0.1,0.0,0.0,0.0,0.1
1446039804586457594,59,1446039804583504915,robocape,4.66891406034,-16.3328337876,146.307419591,0.0,10.0,0.0,0.0,0.0,10.0,0.0,0.0,0.0,10.0,0.440620002354,-0.178964425253,-0.132492264231,1.0,0.0,0.0,0.0,1.0,0.0,0.0,0.0,1.0,-2.29203369141,1.25738525391,12.6516906738,0.1,0.0,0.0,0.0,0.1,0.0,0.0,0.0,0.1
1446039804619955553,60,1446039804616843938,robocape,5.94273215508,-17.362191469,144.136335534,0.0,10.0,0.0,0.0,0.0,10.0,0.0,0.0,0.0,10.0,0.470181090453,-0.642221296873,-0.193878127358,1.0,0.0,0.0,0.0,1.0,0.0,0.0,0.0,1.0,-0.760418701172,1.43820922852,10.5380859375,0.1,0.0,0.0,0.0,0.1,0.0,0.0,0.0,0.1
1446039804652961803,61,1446039804650021076,robocape,6.92646901933,-18.05225043,142.045979645,0.0,10.0,0.0,0.0,0.0,10.0,0.0,0.0,0.0,10.0,0.328234604352,-0.475906886797,-0.140881221665,1.0,0.0,0.0,0.0,1.0,0.0,0.0,0.0,1.0,0.634680175781,1.61065063477,10.2506835938,0.1,0.0,0.0,0.0,0.1,0.0,0.0,0.0,0.1
1446039804686480761,62,1446039804683300018,robocape,7.48577079653,-18.2206994241,140.104140077,0.0,10.0,0.0,0.0,0.0,10.0,0.0,0.0,0.0,10.0,0.13009541925,-0.204663929773,-0.0928111639893,1.0,0.0,0.0,0.0,1.0,0.0,0.0,0.0,1.0,1.30408813477,2.16509765625,9.88783813477,0.1,0.0,0.0,0.0,0.1,0.0,0.0,0.0,0.1
1446039804719835303,63,1446039804716725111,robocape,7.53694738802,-17.7742696098,138.375126156,0.0,10.0,0.0,0.0,0.0,10.0,0.0,0.0,0.0,10.0,-0.0841558904465,0.126500151779,0.0387489938607,1.0,0.0,0.0,0.0,1.0,0.0,0.0,0.0,1.0,1.34001342773,1.01309326172,9.51780761719,0.1,0.0,0.0,0.0,0.1,0.0,0.0,0.0,0.1
1446039804753159303,64,1446039804750175952,robocape,7.43502900254,-16.6903723071,136.789527465,0.0,10.0,0.0,0.0,0.0,10.0,0.0,0.0,0.0,10.0,-0.131426999795,0.468050561581,0.0736364041407,1.0,0.0,0.0,0.0,1.0,0.0,0.0,0.0,1.0,1.03704345703,1.13404174805,9.30225585938,0.1,0.0,0.0,0.0,0.1,0.0,0.0,0.0,0.1
1446039804786504761,65,1446039804783324956,robocape,7.65762691402,-17.0768892833,135.018807379,0.0,10.0,0.0,0.0,0.0,10.0,0.0,0.0,0.0,10.0,0.0206394984481,-0.312255637812,0.156593872097,1.0,0.0,0.0,0.0,1.0,0.0,0.0,0.0,1.0,-1.35917358398,0.0119750976563,10.3895947266,0.1,0.0,0.0,0.0,0.1,0.0,0.0,0.0,0.1
1446039804819991678,66,1446039804816833019,robocape,7.72778512917,-17.2159016129,133.345597861,0.0,10.0,0.0,0.0,0.0,10.0,0.0,0.0,0.0,10.0,-0.0395479421877,-0.180562321907,0.21078920028,1.0,0.0,0.0,0.0,1.0,0.0,0.0,0.0,1.0,-0.401165771484,1.18074462891,10.1429077148,0.1,0.0,0.0,0.0,0.1,0.0,0.0,0.0,0.1
1446039804853026303,67,1446039804849981069,robocape,7.7774326897,-17.3253905779,131.705877104,0.0,10.0,0.0,0.0,0.0,10.0,0.0,0.0,0.0,10.0,-0.0492684801665,-0.166314410075,0.198272343156,1.0,0.0,0.0,0.0,1.0,0.0,0.0,0.0,1.0,-0.393980712891,0.884959716797,10.0099841309,0.1,0.0,0.0,0.0,0.1,0.0,0.0,0.0,0.1
1446039804886547220,68,1446039804883285045,robocape,7.8637273481,-17.5079880171,130.075795913,0.0,10.0,0.0,0.0,0.0,10.0,0.0,0.0,0.0,10.0,-0.0328900394625,-0.207327090863,0.183624957161,1.0,0.0,0.0,0.0,1.0,0.0,0.0,0.0,1.0,0.0323327636719,0.570014648438,9.85430786133,0.1,0.0,0.0,0.0,0.1,0.0,0.0,0.0,0.1
1446039804920417886,69,1446039804917136907,robocape,8.04618748927,-17.7288487066,128.438565434,0.0,10.0,0.0,0.0,0.0,10.0,0.0,0.0,0.0,10.0,0.00798948327024,-0.231961330946,0.136487005867,1.0,0.0,0.0,0.0,1.0,0.0,0.0,0.0,1.0,0.0718505859375,1.16278198242,9.91178833008,0.1,0.0,0.0,0.0,0.1,0.0,0.0,0.0,0.1
1446039804953850761,70,1446039804949958086,robocape,8.16107366362,-17.9954473946,126.829502667,0.0,10.0,0.0,0.0,0.0,10.0,0.0,0.0,0.0,10.0,-0.0284958236638,-0.257527677411,0.126366993724,1.0,0.0,0.0,0.0,1.0,0.0,0.0,0.0,1.0,0.335302734375,1.20708984375,9.83874023438,0.1,0.0,0.0,0.0,0.1,0.0,0.0,0.0,0.1
1446039804986531636,71,1446039804983411073,robocape,8.18718462168,-18.2842654504,125.253080037,0.0,10.0,0.0,0.0,0.0,10.0,0.0,0.0,0.0,10.0,-0.0769653555033,-0.26991137648,0.110787501347,1.0,0.0,0.0,0.0,1.0,0.0,0.0,0.0,1.0,0.337697753906,1.41904907227,9.94891113281,0.1,0.0,0.0,0.0,0.1,0.0,0.0,0.0,0.1
1446039805019816095,72,1446039805016782045,robocape,8.15367953525,-18.3037122409,123.74435052,0.0,10.0,0.0,0.0,0.0,10.0,0.0,0.0,0.0,10.0,-0.104395914731,-0.127165942051,0.0818922035199,1.0,0.0,0.0,0.0,1.0,0.0,0.0,0.0,1.0,2.59141113281,1.22385498047,11.3499975586,0.1,0.0,0.0,0.0,0.1,0.0,0.0,0.0,0.1
1446039805053056053,73,1446039805050017118,robocape,7.98796905562,-18.0754810323,122.321950981,0.0,10.0,0.0,0.0,0.0,10.0,0.0,0.0,0.0,10.0,-0.163384932876,0.00732369299772,0.0761664071763,1.0,0.0,0.0,0.0,1.0,0.0,0.0,0.0,1.0,0.399968261719,0.616717529297,10.0267492676,0.1,0.0,0.0,0.0,0.1,0.0,0.0,0.0,0.1
1446039805086484928,74,1446039805083316087,robocape,7.92421260674,-17.752574237,120.913391721,0.0,10.0,0.0,0.0,0.0,10.0,0.0,0.0,0.0,10.0,-0.111586449674,0.0572579634367,0.0430100516048,1.0,0.0,0.0,0.0,1.0,0.0,0.0,0.0,1.0,-0.0790356445313,0.656235351563,10.1273400879,0.1,0.0,0.0,0.0,0.1,0.0,0.0,0.0,0.1
1446039805119834095,75,1446039805116851091,robocape,7.87111577967,-17.363486613,119.536963379,0.0,10.0,0.0,0.0,0.0,10.0,0.0,0.0,0.0,10.0,-0.102398543914,0.0938764284253,0.0304931944814,1.0,0.0,0.0,0.0,1.0,0.0,0.0,0.0,1.0,-0.349672851562,0.201181640625,9.93094848633,0.1,0.0,0.0,0.0,0.1,0.0,0.0,0.0,0.1
1446039805153005678,76,1446039805150070905,robocape,7.98482180861,-16.9007437709,118.166769868,0.0,10.0,0.0,0.0,0.0,10.0,0.0,0.0,0.0,10.0,-0.0135821215594,0.131826473959,0.00945422186978,1.0,0.0,0.0,0.0,1.0,0.0,0.0,0.0,1.0,-0.714913330078,0.0742456054688,9.98244140625,0.1,0.0,0.0,0.0,0.1,0.0,0.0,0.0,0.1
1446039805186453678,77,1446039805183265924,robocape,8.19236411852,-16.4042315955,116.816824085,0.0,10.0,0.0,0.0,0.0,10.0,0.0,0.0,0.0,10.0,0.0414121549507,0.149536495208,0.0066579027252,1.0,0.0,0.0,0.0,1.0,0.0,0.0,0.0,1.0,-0.647852783203,0.279019775391,10.2949914551,0.1,0.0,0.0,0.0,0.1,0.0,0.0,0.0,0.1
1446039805219784803,78,1446039805216790914,robocape,8.41699300275,-15.9783436037,115.482493428,0.0,10.0,0.0,0.0,0.0,10.0,0.0,0.0,0.0,10.0,0.0544616442921,0.11265171411,0.00599211245268,1.0,0.0,0.0,0.0,1.0,0.0,0.0,0.0,1.0,-0.379610595703,1.01908081055,10.1596728516,0.1,0.0,0.0,0.0,0.1,0.0,0.0,0.0,0.1
1446039805253148845,79,1446039805250176906,robocape,8.52462082508,-15.5415665456,114.194954172,0.0,10.0,0.0,0.0,0.0,10.0,0.0,0.0,0.0,10.0,-0.000133158054504,0.121306987653,0.00692421883421,1.0,0.0,0.0,0.0,1.0,0.0,0.0,0.0,1.0,0.188009033203,1.13404174805,10.1476977539,0.1,0.0,0.0,0.0,0.1,0.0,0.0,0.0,0.1
1446039805286521303,80,1446039805283380031,robocape,8.51550874599,-15.1241685654,112.944672159,0.0,10.0,0.0,0.0,0.0,10.0,0.0,0.0,0.0,10.0,-0.0573911214912,0.114382768819,0.00213052887206,1.0,0.0,0.0,0.0,1.0,0.0,0.0,0.0,1.0,0.0562829589844,1.06578369141,10.0231567383,0.1,0.0,0.0,0.0,0.1,0.0,0.0,0.0,0.1
1446039805320742762,81,1446039805317579030,robocape,8.40050170399,-14.7919402535,111.730760602,0.0,10.0,0.0,0.0,0.0,10.0,0.0,0.0,0.0,10.0,-0.107059075821,0.0735032460862,0.0193079179031,1.0,0.0,0.0,0.0,1.0,0.0,0.0,0.0,1.0,0.0622705078125,0.781973876953,10.2351159668,0.1,0.0,0.0,0.0,0.1,0.0,0.0,0.0,0.1
1446039805359956387,82,1446039805349942922,robocape,8.29896731049,-14.4643947011,110.529233392,0.0,10.0,0.0,0.0,0.0,10.0,0.0,0.0,0.0,10.0,-0.100667489205,0.0727042977592,0.000932106381528,1.0,0.0,0.0,0.0,1.0,0.0,0.0,0.0,1.0,0.148491210938,-0.373623046875,9.90939331055,0.1,0.0,0.0,0.0,0.1,0.0,0.0,0.0,0.1
1446039805386562845,83,1446039805383271932,robocape,8.49357004249,-14.1408338754,109.31063499,0.0,10.0,0.0,0.0,0.0,10.0,0.0,0.0,0.0,10.0,0.0551274345646,0.068176923906,-0.00905474770627,1.0,0.0,0.0,0.0,1.0,0.0,0.0,0.0,1.0,0.0347277832031,0.0754431152344,10.2878063965,0.1,0.0,0.0,0.0,0.1,0.0,0.0,0.0,0.1
1446039805421368428,84,1446039805417288064,robocape,8.76198012759,-13.8896977193,108.084428154,0.0,10.0,0.0,0.0,0.0,10.0,0.0,0.0,0.0,10.0,0.0921453737167,0.0284958236638,-0.0294279300454,1.0,0.0,0.0,0.0,1.0,0.0,0.0,0.0,1.0,-0.0910107421875,0.743653564453,10.0411193848,0.1,0.0,0.0,0.0,0.1,0.0,0.0,0.0,0.1
1446039805453239553,85,1446039805450201034,robocape,8.96601265811,-13.6522300534,106.898042107,0.0,10.0,0.0,0.0,0.0,10.0,0.0,0.0,0.0,10.0,0.0652474467069,0.0230363434292,-0.0147805440499,1.0,0.0,0.0,0.0,1.0,0.0,0.0,0.0,1.0,-0.00838256835938,0.596359863281,10.0207617188,0.1,0.0,0.0,0.0,0.1,0.0,0.0,0.0,0.1
1446039805486428970,86,1446039805483406066,robocape,9.19013367124,-13.3928774095,105.748098682,0.0,10.0,0.0,0.0,0.0,10.0,0.0,0.0,0.0,10.0,0.083223784065,0.0358195166616,0.00106526443603,1.0,0.0,0.0,0.0,1.0,0.0,0.0,0.0,1.0,0.00239501953125,-0.107775878906,9.98363891602,0.1,0.0,0.0,0.0,0.1,0.0,0.0,0.0,0.1
1446039805520099387,87,1446039805517045021,robocape,9.57050034265,-13.0957436054,104.62943888,0.0,10.0,0.0,0.0,0.0,10.0,0.0,0.0,0.0,10.0,0.175235999727,0.0557932248372,0.0278300333913,1.0,0.0,0.0,0.0,1.0,0.0,0.0,0.0,1.0,0.0431103515625,0.579594726562,10.0985998535,0.1,0.0,0.0,0.0,0.1,0.0,0.0,0.0,0.1
1446039805553097637,88,1446039805550019979,robocape,9.9056293383,-12.8346165135,103.524570818,0.0,10.0,0.0,0.0,0.0,10.0,0.0,0.0,0.0,10.0,0.152599130462,0.0367516230431,0.0151800182135,1.0,0.0,0.0,0.0,1.0,0.0,0.0,0.0,1.0,-0.0431103515625,1.35438354492,10.1249450684,0.1,0.0,0.0,0.0,0.1,0.0,0.0,0.0,0.1
1446039805586509262,89,1446039805583252906,robocape,9.92257487511,-12.6037275797,102.471499582,0.0,10.0,0.0,0.0,0.0,10.0,0.0,0.0,0.0,10.0,-0.0115847507418,0.0255663464648,0.0126500151779,1.0,0.0,0.0,0.0,1.0,0.0,0.0,0.0,1.0,-0.0131726074219,2.15551757812,10.0111816406,0.1,0.0,0.0,0.0,0.1,0.0,0.0,0.0,0.1
1446039805620017428,90,1446039805616930961,robocape,9.6065581852,-12.4004269211,101.474257843,0.0,10.0,0.0,0.0,0.0,10.0,0.0,0.0,0.0,10.0,-0.184157589379,0.0175768631945,0.0146473859954,1.0,0.0,0.0,0.0,1.0,0.0,0.0,0.0,1.0,0.110170898438,1.54119506836,10.1309326172,0.1,0.0,0.0,0.0,0.1,0.0,0.0,0.0,0.1
1446039805653134178,91,1446039805650104999,robocape,9.19608625264,-12.2022694193,100.511615106,0.0,10.0,0.0,0.0,0.0,10.0,0.0,0.0,0.0,10.0,-0.231828172891,0.0195742340121,0.0206394984481,1.0,0.0,0.0,0.0,1.0,0.0,0.0,0.0,1.0,-0.238304443359,1.10649902344,9.97645385742,0.1,0.0,0.0,0.0,0.1,0.0,0.0,0.0,0.1
1446039805686506387,92,1446039805683271884,robocape,8.68488583937,-12.0278691895,99.5941698028,0.0,10.0,0.0,0.0,0.0,10.0,0.0,0.0,0.0,10.0,-0.280297704731,0.0129163312869,0.0448742643678,1.0,0.0,0.0,0.0,1.0,0.0,0.0,0.0,1.0,0.0886157226563,0.888552246094,10.0135766602,0.1,0.0,0.0,0.0,0.1,0.0,0.0,0.0,0.1
1446039805719819178,93,1446039805716731071,robocape,8.10430310492,-11.8787515029,98.7017098,0.0,10.0,0.0,0.0,0.0,10.0,0.0,0.0,0.0,10.0,-0.316783011665,0.00386158358061,0.048869006003,1.0,0.0,0.0,0.0,1.0,0.0,0.0,0.0,1.0,0.0874182128906,0.743653564453,10.0099841309,0.1,0.0,0.0,0.0,0.1,0.0,0.0,0.0,0.1
1446039805753043262,94,1446039805749999046,robocape,7.47008490067,-11.7429602455,97.8194981619,0.0,10.0,0.0,0.0,0.0,10.0,0.0,0.0,0.0,10.0,-0.348341470582,0.000133158054504,0.0352868844435,1.0,0.0,0.0,0.0,1.0,0.0,0.0,0.0,1.0,0.0526904296875,0.452658691406,10.0375268555,0.1,0.0,0.0,0.0,0.1,0.0,0.0,0.0,0.1
1446039805786435720,95,1446039805783225059,robocape,6.95262395143,-11.6060091521,96.9104640437,0.0,10.0,0.0,0.0,0.0,10.0,0.0,0.0,0.0,10.0,-0.295211406835,0.00133158054504,-0.00545948023466,1.0,0.0,0.0,0.0,1.0,0.0,0.0,0.0,1.0,-0.0419128417969,-0.258662109375,10.055489502,0.1,0.0,0.0,0.0,0.1,0.0,0.0,0.0,0.1
1446039805820066595,96,1446039805816894054,robocape,6.52810425091,-11.4689329775,96.0412849904,0.0,10.0,0.0,0.0,0.0,10.0,0.0,0.0,0.0,10.0,-0.240483446434,0.00492684801665,0.0308926686449,1.0,0.0,0.0,0.0,1.0,0.0,0.0,0.0,1.0,-0.01916015625,-0.409548339844,10.0411193848,0.1,0.0,0.0,0.0,0.1,0.0,0.0,0.0,0.1
1446039805853092512,97,1446039805849961042,robocape,6.17922200345,-11.3183231403,95.2132225529,0.0,10.0,0.0,0.0,0.0,10.0,0.0,0.0,0.0,10.0,-0.195076549848,0.0150468601589,0.0640490242164,1.0,0.0,0.0,0.0,1.0,0.0,0.0,0.0,1.0,0.408350830078,0.161663818359,9.97405883789,0.1,0.0,0.0,0.0,0.1,0.0,0.0,0.0,0.1
1446039805886609262,98,1446039805883296966,robocape,5.85122931112,-11.1767751331,94.3673797553,0.0,10.0,0.0,0.0,0.0,10.0,0.0,0.0,0.0,10.0,-0.190549175995,0.0113184346328,0.0271642431188,1.0,0.0,0.0,0.0,1.0,0.0,0.0,0.0,1.0,0.158071289063,0.199984130859,10.0123791504,0.1,0.0,0.0,0.0,0.1,0.0,0.0,0.0,0.1
1446039805920676178,99,1446039805917125940,robocape,5.52376423217,-11.0476252368,93.5387236093,0.0,10.0,0.0,0.0,0.0,10.0,0.0,0.0,0.0,10.0,-0.190016543777,0.00705737688871,0.0292947719909,1.0,0.0,0.0,0.0,1.0,0.0,0.0,0.0,1.0,-0.296982421875,-0.15328125,10.0626745605,0.1,0.0,0.0,0.0,0.1,0.0,0.0,0.0,0.1
1446039805961405095,100,1446039805958121061,robocape,5.22204579523,-10.9219015258,92.7247642739,0.0,10.0,0.0,0.0,0.0,10.0,0.0,0.0,0.0,10.0,-0.176434422218,0.00719053494321,0.0299605622634,1.0,0.0,0.0,0.0,1.0,0.0,0.0,0.0,1.0,0.0239501953125,-0.0215551757813,10.0291442871,0.1,0.0,0.0,0.0,0.1,0.0,0.0,0.0,0.1
1446039805986476220,101,1446039805983390092,robocape,4.93956426474,-10.7990142915,91.9140278927,0.0,10.0,0.0,0.0,0.0,10.0,0.0,0.0,0.0,10.0,-0.168311780893,0.00732369299772,0.017710021249,1.0,0.0,0.0,0.0,1.0,0.0,0.0,0.0,1.0,0.213156738281,-0.229921875,10.0147741699,0.1,0.0,0.0,0.0,0.1,0.0,0.0,0.0,0.1
1446039806019902595,102,1446039806016799926,robocape,4.74016191757,-10.6748469137,91.1097985138,0.0,10.0,0.0,0.0,0.0,10.0,0.0,0.0,0.0,10.0,-0.125168571234,0.00918790576077,0.0138484376684,1.0,0.0,0.0,0.0,1.0,0.0,0.0,0.0,1.0,0.0419128417969,-0.652642822266,10.0387243652,0.1,0.0,0.0,0.0,0.1,0.0,0.0,0.0,0.1
1446039806053117304,103,1446039806050025939,robocape,4.65875090883,-10.5426431861,90.313027231,0.0,10.0,0.0,0.0,0.0,10.0,0.0,0.0,0.0,10.0,-0.0628506017259,0.0141147537774,0.0127831732324,1.0,0.0,0.0,0.0,1.0,0.0,0.0,0.0,1.0,0.215551757813,-0.704135742188,10.0027990723,0.1,0.0,0.0,0.0,0.1,0.0,0.0,0.0,0.1
1446039806086496345,104,1446039806083237886,robocape,4.70625726735,-10.3998483522,89.5171046541,0.0,10.0,0.0,0.0,0.0,10.0,0.0,0.0,0.0,10.0,0.00466053190764,0.0198405501211,0.00519316412565,1.0,0.0,0.0,0.0,1.0,0.0,0.0,0.0,1.0,0.0922082519531,-0.699345703125,10.0447119141,0.1,0.0,0.0,0.0,0.1,0.0,0.0,0.0,0.1
1446039806119945262,105,1446039806116857051,robocape,4.86184843146,-10.2466476436,88.7284153675,0.0,10.0,0.0,0.0,0.0,10.0,0.0,0.0,0.0,10.0,0.0625842856169,0.0253000303558,0.00292947719909,1.0,0.0,0.0,0.0,1.0,0.0,0.0,0.0,1.0,0.143701171875,-0.501756591797,10.0063916016,0.1,0.0,0.0,0.0,0.1,0.0,0.0,0.0,0.1
1446039806153144179,106,1446039806150099039,robocape,5.07421027345,-10.08968881,87.9493219906,0.0,10.0,0.0,0.0,0.0,10.0,0.0,0.0,0.0,10.0,0.0938764284253,0.0272974011733,0.00066579027252,1.0,0.0,0.0,0.0,1.0,0.0,0.0,0.0,1.0,0.0706530761719,-0.255069580078,10.019564209,0.1,0.0,0.0,0.0,0.1,0.0,0.0,0.0,0.1
1446039806186524512,107,1446039806183293104,robocape,5.26579412925,-9.93548221362,87.187420929,0.0,10.0,0.0,0.0,0.0,10.0,0.0,0.0,0.0,10.0,0.085087996828,0.0263652947918,0.00213052887206,1.0,0.0,0.0,0.0,1.0,0.0,0.0,0.0,1.0,0.0562829589844,-0.0347277832031,10.039921875,0.1,0.0,0.0,0.0,0.1,0.0,0.0,0.0,0.1
1446039806220491179,108,1446039806217324018,robocape,5.39181479756,-9.78613100694,86.4450997201,0.0,10.0,0.0,0.0,0.0,10.0,0.0,0.0,0.0,10.0,0.0525974315291,0.0247673981377,0.00372842552611,1.0,0.0,0.0,0.0,1.0,0.0,0.0,0.0,1.0,0.0215551757813,0.144898681641,10.0267492676,0.1,0.0,0.0,0.0,0.1,0.0,0.0,0.0,0.1
1446039806253022845,109,1446039806249979019,robocape,5.43429218545,-9.64817559155,85.7240929346,0.0,10.0,0.0,0.0,0.0,10.0,0.0,0.0,0.0,10.0,0.0105194863058,0.0201068662301,0.00705737688871,1.0,0.0,0.0,0.0,1.0,0.0,0.0,0.0,1.0,0.01916015625,0.161663818359,10.0339343262,0.1,0.0,0.0,0.0,0.1,0.0,0.0,0.0,0.1
1446039806286412179,110,1446039806283189058,robocape,5.39708993688,-9.52041303341,85.0226112022,0.0,10.0,0.0,0.0,0.0,10.0,0.0,0.0,0.0,10.0,-0.0300937203179,0.0162452826495,0.00918790576077,1.0,0.0,0.0,0.0,1.0,0.0,0.0,0.0,1.0,0.0203576660156,0.104183349609,10.0339343262,0.1,0.0,0.0,0.0,0.1,0.0,0.0,0.0,0.1
1446039806320862095,111,1446039806317514896,robocape,5.30594959493,-9.40081366066,84.3386732688,0.0,10.0,0.0,0.0,0.0,10.0,0.0,0.0,0.0,10.0,-0.0575242795457,0.0134489635049,0.0111852765783,1.0,0.0,0.0,0.0,1.0,0.0,0.0,0.0,1.0,0.0383203125,-0.067060546875,10.019564209,0.1,0.0,0.0,0.0,0.1,0.0,0.0,0.0,0.1
1446039806359899304,112,1446039806349947929,robocape,5.21122530977,-9.28402694019,83.6680004398,0.0,10.0,0.0,0.0,0.0,10.0,0.0,0.0,0.0,10.0,-0.0588558600908,0.0131826473959,0.0118510668509,1.0,0.0,0.0,0.0,1.0,0.0,0.0,0.0,1.0,0.0910107421875,-0.245489501953,10.0339343262,0.1,0.0,0.0,0.0,0.1,0.0,0.0,0.0,0.1
1446039806386584554,113,1446039806383264064,robocape,5.16064485234,-9.16416113936,83.0045884018,0.0,10.0,0.0,0.0,0.0,10.0,0.0,0.0,0.0,10.0,-0.0355532005526,0.015579492377,0.00918790576077,1.0,0.0,0.0,0.0,1.0,0.0,0.0,0.0,1.0,0.100590820313,-0.398770751953,10.0063916016,0.1,0.0,0.0,0.0,0.1,0.0,0.0,0.0,0.1
1446039806421045470,114,1446039806417484998,robocape,5.17552352488,-9.03896008311,82.3476839222,0.0,10.0,0.0,0.0,0.0,10.0,0.0,0.0,0.0,10.0,-0.000798948327024,0.0189084437396,0.00692421883421,1.0,0.0,0.0,0.0,1.0,0.0,0.0,0.0,1.0,0.108973388672,-0.464633789063,10.0255517578,0.1,0.0,0.0,0.0,0.1,0.0,0.0,0.0,0.1
1446039806453395595,115,1446039806450148105,robocape,5.2541452251,-8.90810833283,81.6972433237,0.0,10.0,0.0,0.0,0.0,10.0,0.0,0.0,0.0,10.0,0.033289513626,0.0222373951022,0.00466053190764,1.0,0.0,0.0,0.0,1.0,0.0,0.0,0.0,1.0,0.0730480957031,-0.397573242188,10.003996582,0.1,0.0,0.0,0.0,0.1,0.0,0.0,0.0,0.1
1446039806486559679,116,1446039806483483076,robocape,5.3683324239,-8.7742641793,81.0562264489,0.0,10.0,0.0,0.0,0.0,10.0,0.0,0.0,0.0,10.0,0.0529969056926,0.0242347659197,0.00412789968962,1.0,0.0,0.0,0.0,1.0,0.0,0.0,0.0,1.0,0.0718505859375,-0.253872070313,10.0135766602,0.1,0.0,0.0,0.0,0.1,0.0,0.0,0.0,0.1
1446039806520724637,117,1446039806517615079,robocape,5.48103959687,-8.64199411706,80.4259092627,0.0,10.0,0.0,0.0,0.0,10.0,0.0,0.0,0.0,10.0,0.0532632218016,0.0239684498107,0.00359526747161,1.0,0.0,0.0,0.0,1.0,0.0,0.0,0.0,1.0,0.0682580566406,-0.0993933105469,10.0219592285,0.1,0.0,0.0,0.0,0.1,0.0,0.0,0.0,0.1
1446039806553076429,118,1446039806550020933,robocape,5.61669412732,-8.51512952576,79.806300053,0.0,10.0,0.0,0.0,0.0,10.0,0.0,0.0,0.0,10.0,0.066579027252,0.0215716048296,0.00492684801665,1.0,0.0,0.0,0.0,1.0,0.0,0.0,0.0,1.0,0.0371228027344,0.0119750976563,10.0111816406,0.1,0.0,0.0,0.0,0.1,0.0,0.0,0.0,0.1
1446039806586464554,119,1446039806583221912,robocape,5.63111532676,-8.39517705106,79.2058728193,0.0,10.0,0.0,0.0,0.0,10.0,0.0,0.0,0.0,10.0,0.00412789968962,0.0193079179031,0.00719053494321,1.0,0.0,0.0,0.0,1.0,0.0,0.0,0.0,1.0,0.0431103515625,0.0586779785156,10.0315393066,0.1,0.0,0.0,0.0,0.1,0.0,0.0,0.0,0.1
1446039806620860095,120,1446039806617676019,robocape,5.59377192502,-8.28029487693,78.6204148915,0.0,10.0,0.0,0.0,0.0,10.0,0.0,0.0,0.0,10.0,-0.0222373951022,0.0178431793035,0.00918790576077,1.0,0.0,0.0,0.0,1.0,0.0,0.0,0.0,1.0,0.0407153320313,-0.0419128417969,10.0207617188,0.1,0.0,0.0,0.0,0.1,0.0,0.0,0.0,0.1
1446039806653086387,121,1446039806650063991,robocape,5.53387516199,-8.17100122596,78.0470626551,0.0,10.0,0.0,0.0,0.0,10.0,0.0,0.0,0.0,10.0,-0.033555829735,0.0159789665405,0.0103863282513,1.0,0.0,0.0,0.0,1.0,0.0,0.0,0.0,1.0,0.0586779785156,-0.155676269531,10.039921875,0.1,0.0,0.0,0.0,0.1,0.0,0.0,0.0,0.1
1446039806686483304,122,1446039806683249950,robocape,5.47791278989,-8.06333436265,77.4821424567,0.0,10.0,0.0,0.0,0.0,10.0,0.0,0.0,0.0,10.0,-0.0312921428084,0.0159789665405,0.00945422186978,1.0,0.0,0.0,0.0,1.0,0.0,0.0,0.0,1.0,0.0838256835938,-0.269439697266,10.0219592285,0.1,0.0,0.0,0.0,0.1,0.0,0.0,0.0,0.1
1446039806720780971,123,1446039806717628002,robocape,5.45110366156,-7.95385939595,76.9234399439,0.0,10.0,0.0,0.0,0.0,10.0,0.0,0.0,0.0,10.0,-0.015845808486,0.0175768631945,0.00759000910673,1.0,0.0,0.0,0.0,1.0,0.0,0.0,0.0,1.0,0.0754431152344,-0.346080322266,10.0099841309,0.1,0.0,0.0,0.0,0.1,0.0,0.0,0.0,0.1
1446039806752988221,124,1446039806749927997,robocape,5.47730730251,-7.84071806301,76.3707251392,0.0,10.0,0.0,0.0,0.0,10.0,0.0,0.0,0.0,10.0,0.0123836990689,0.0199737081756,0.00652474467069,1.0,0.0,0.0,0.0,1.0,0.0,0.0,0.0,1.0,0.107775878906,-0.346080322266,9.98842895508,0.1,0.0,0.0,0.0,0.1,0.0,0.0,0.0,0.1
1446039806786477012,125,1446039806783252954,robocape,5.53682839019,-7.72588287162,75.8242778098,0.0,10.0,0.0,0.0,0.0,10.0,0.0,0.0,0.0,10.0,0.0303600364269,0.0213052887206,0.00519316412565,1.0,0.0,0.0,0.0,1.0,0.0,0.0,0.0,1.0,0.0838256835938,-0.304167480469,10.0087866211,0.1,0.0,0.0,0.0,0.1,0.0,0.0,0.0,0.1
1446039806820774679,126,1446039806817574977,robocape,5.6115860351,-7.60996856827,75.2856716567,0.0,10.0,0.0,0.0,0.0,10.0,0.0,0.0,0.0,10.0,0.0390153099697,0.0223705531567,0.00466053190764,1.0,0.0,0.0,0.0,1.0,0.0,0.0,0.0,1.0,0.0682580566406,-0.17244140625,10.0255517578,0.1,0.0,0.0,0.0,0.1,0.0,0.0,0.0,0.1
1446039806853083804,127,1446039806849961042,robocape,5.67593863068,-7.49623380618,74.7560511151,0.0,10.0,0.0,0.0,0.0,10.0,0.0,0.0,0.0,10.0,0.0342216200075,0.0218379209386,0.00452737385313,1.0,0.0,0.0,0.0,1.0,0.0,0.0,0.0,1.0,0.0538879394531,-0.086220703125,10.0423168945,0.1,0.0,0.0,0.0,0.1,0.0,0.0,0.0,0.1
1446039806886567762,128,1446039806883250951,robocape,5.71244908836,-7.38679800433,74.2377210839,0.0,10.0,0.0,0.0,0.0,10.0,0.0,0.0,0.0,10.0,0.0203731823391,0.0203731823391,0.00599211245268,1.0,0.0,0.0,0.0,1.0,0.0,0.0,0.0,1.0,0.0490979003906,-0.0419128417969,10.0339343262,0.1,0.0,0.0,0.0,0.1,0.0,0.0,0.0,0.1
1446039806921598054,129,1446039806918004989,robocape,5.76607060306,-7.28253204678,73.728382018,0.0,10.0,0.0,0.0,0.0,10.0,0.0,0.0,0.0,10.0,0.0300937203179,0.018242653467,0.00759000910673,1.0,0.0,0.0,0.0,1.0,0.0,0.0,0.0,1.0,0.0694555664063,-0.028740234375,10.0171691895,0.1,0.0,0.0,0.0,0.1,0.0,0.0,0.0,0.1
1446039806953418846,130,1446039806950139999,robocape,5.72710871732,-7.18220252419,73.2328061348,0.0,10.0,0.0,0.0,0.0,10.0,0.0,0.0,0.0,10.0,-0.017976337358,0.0173105470855,0.00892158965177,1.0,0.0,0.0,0.0,1.0,0.0,0.0,0.0,1.0,0.05748046875,-0.0838256835938,10.0267492676,0.1,0.0,0.0,0.0,0.1,0.0,0.0,0.0,0.1
1446039806986539637,131,1446039806983336925,robocape,5.67851949846,-7.08417618444,72.745895603,0.0,10.0,0.0,0.0,0.0,10.0,0.0,0.0,0.0,10.0,-0.0227700273202,0.016911072922,0.00932106381528,1.0,0.0,0.0,0.0,1.0,0.0,0.0,0.0,1.0,0.0658630371094,-0.185614013672,10.0279467773,0.1,0.0,0.0,0.0,0.1,0.0,0.0,0.0,0.1
1446039807020746221,132,1446039807017651081,robocape,5.64001986306,-6.98691786504,72.265736387,0.0,10.0,0.0,0.0,0.0,10.0,0.0,0.0,0.0,10.0,-0.0173105470855,0.017177389031,0.00892158965177,1.0,0.0,0.0,0.0,1.0,0.0,0.0,0.0,1.0,0.0754431152344,-0.2682421875,10.019564209,0.1,0.0,0.0,0.0,0.1,0.0,0.0,0.0,0.1
1446039807053178471,133,1446039807050084114,robocape,5.6278921465,-6.88786111793,71.7907275564,0.0,10.0,0.0,0.0,0.0,10.0,0.0,0.0,0.0,10.0,-0.0033289513626,0.0186421276306,0.00772316716123,1.0,0.0,0.0,0.0,1.0,0.0,0.0,0.0,1.0,0.0778381347656,-0.302969970703,10.0291442871,0.1,0.0,0.0,0.0,0.1,0.0,0.0,0.0,0.1
1446039807086575929,134,1446039807083296060,robocape,5.64508138919,-6.78709204355,71.3202575477,0.0,10.0,0.0,0.0,0.0,10.0,0.0,0.0,0.0,10.0,0.0122505410144,0.0199737081756,0.00625842856169,1.0,0.0,0.0,0.0,1.0,0.0,0.0,0.0,1.0,0.0658630371094,-0.307760009766,9.99321899414,0.1,0.0,0.0,0.0,0.1,0.0,0.0,0.0,0.1
1446039807123395971,135,1446039807120275974,robocape,5.68508536388,-6.68517689415,70.8559208571,0.0,10.0,0.0,0.0,0.0,10.0,0.0,0.0,0.0,10.0,0.0246342400832,0.0210389726116,0.00599211245268,1.0,0.0,0.0,0.0,1.0,0.0,0.0,0.0,1.0,0.0610729980469,-0.243094482422,10.0123791504,0.1,0.0,0.0,0.0,0.1,0.0,0.0,0.0,0.1
1446039807152967429,136,1446039807149940013,robocape,5.72942288814,-6.58570185403,70.3977926159,0.0,10.0,0.0,0.0,0.0,10.0,0.0,0.0,0.0,10.0,0.0272974011733,0.0202400242846,0.00559263828917,1.0,0.0,0.0,0.0,1.0,0.0,0.0,0.0,1.0,0.0634680175781,-0.156873779297,10.0387243652,0.1,0.0,0.0,0.0,0.1,0.0,0.0,0.0,0.1
1446039807186568804,137,1446039807183284997,robocape,5.75987604689,-6.48614563979,69.9481283665,0.0,10.0,0.0,0.0,0.0,10.0,0.0,0.0,0.0,10.0,0.0205063403936,0.0209058145571,0.00625842856169,1.0,0.0,0.0,0.0,1.0,0.0,0.0,0.0,1.0,0.0395178222656,-0.0993933105469,10.0267492676,0.1,0.0,0.0,0.0,0.1,0.0,0.0,0.0,0.1
1446039807221064887,138,1446039807217926025,robocape,5.76676031609,-6.39066001081,69.5067036179,0.0,10.0,0.0,0.0,0.0,10.0,0.0,0.0,0.0,10.0,0.00852211548825,0.0194410759576,0.00692421883421,1.0,0.0,0.0,0.0,1.0,0.0,0.0,0.0,1.0,0.0431103515625,-0.0790356445313,10.0255517578,0.1,0.0,0.0,0.0,0.1,0.0,0.0,0.0,0.1
1446039807269874012,139,1446039807266814947,robocape,5.74016278759,-6.29861511545,69.0736552264,0.0,10.0,0.0,0.0,0.0,10.0,0.0,0.0,0.0,10.0,-0.00878843159726,0.0183758115215,0.00745685105222,1.0,0.0,0.0,0.0,1.0,0.0,0.0,0.0,1.0,0.0610729980469,-0.126936035156,9.9980090332,0.1,0.0,0.0,0.0,0.1,0.0,0.0,0.0,0.1
1446039807293270512,140,1446039807290177106,robocape,5.70635777355,-6.2075628762,68.6476474006,0.0,10.0,0.0,0.0,0.0,10.0,0.0,0.0,0.0,10.0,-0.0123836990689,0.0185089695761,0.00772316716123,1.0,0.0,0.0,0.0,1.0,0.0,0.0,0.0,1.0,0.067060546875,-0.171243896484,10.0483044434,0.1,0.0,0.0,0.0,0.1,0.0,0.0,0.0,0.1
1446039807320450637,141,1446039807317295074,robocape,5.67217753812,-6.11797501742,68.2285452614,0.0,10.0,0.0,0.0,0.0,10.0,0.0,0.0,0.0,10.0,-0.0123836990689,0.0183758115215,0.00825579937925,1.0,0.0,0.0,0.0,1.0,0.0,0.0,0.0,1.0,0.0826281738281,-0.198786621094,10.0303417969,0.1,0.0,0.0,0.0,0.1,0.0,0.0,0.0,0.1
1446039807360157762,142,1446039807350126981,robocape,5.65498930469,-6.02908500745,67.8145536611,0.0,10.0,0.0,0.0,0.0,10.0,0.0,0.0,0.0,10.0,-0.0033289513626,0.0185089695761,0.00798948327024,1.0,0.0,0.0,0.0,1.0,0.0,0.0,0.0,1.0,0.0802331542969,-0.244291992188,10.0051940918,0.1,0.0,0.0,0.0,0.1,0.0,0.0,0.0,0.1
1446039807395044804,143,1446039807391344070,robocape,5.6620755582,-5.93933437965,67.4035125702,0.0,10.0,0.0,0.0,0.0,10.0,0.0,0.0,0.0,10.0,0.00945422186978,0.0193079179031,0.00625842856169,1.0,0.0,0.0,0.0,1.0,0.0,0.0,0.0,1.0,0.086220703125,-0.252674560547,10.0219592285,0.1,0.0,0.0,0.0,0.1,0.0,0.0,0.0,0.1
1446039807420922471,144,1446039807417252063,robocape,5.68150806732,-5.84845408518,66.9984506989,0.0,10.0,0.0,0.0,0.0,10.0,0.0,0.0,0.0,10.0,0.0162452826495,0.0203731823391,0.00652474467069,1.0,0.0,0.0,0.0,1.0,0.0,0.0,0.0,1.0,0.0838256835938,-0.228724365234,10.0016015625,0.1,0.0,0.0,0.0,0.1,0.0,0.0,0.0,0.1
1446039807453609971,145,1446039807450290918,robocape,5.70774621912,-5.75792131798,66.5989425212,0.0,10.0,0.0,0.0,0.0,10.0,0.0,0.0,0.0,10.0,0.0201068662301,0.0206394984481,0.00652474467069,1.0,0.0,0.0,0.0,1.0,0.0,0.0,0.0,1.0,0.0790356445313,-0.178428955078,10.0471069336,0.1,0.0,0.0,0.0,0.1,0.0,0.0,0.0,0.1
1446039807486575263,146,1446039807483297109,robocape,5.72769761713,-5.66878221,66.2048919302,0.0,10.0,0.0,0.0,0.0,10.0,0.0,0.0,0.0,10.0,0.0170442309765,0.0203731823391,0.00625842856169,1.0,0.0,0.0,0.0,1.0,0.0,0.0,0.0,1.0,0.0586779785156,-0.126936035156,10.0219592285,0.1,0.0,0.0,0.0,0.1,0.0,0.0,0.0,0.1
1446039807520553763,147,1446039807517467975,robocape,5.7357224981,-5.58116177212,65.8172650995,0.0,10.0,0.0,0.0,0.0,10.0,0.0,0.0,0.0,10.0,0.0110521185238,0.0201068662301,0.0066579027252,1.0,0.0,0.0,0.0,1.0,0.0,0.0,0.0,1.0,0.05748046875,-0.122145996094,10.0123791504,0.1,0.0,0.0,0.0,0.1,0.0,0.0,0.0,0.1
1446039807553160721,148,1446039807550102949,robocape,5.72255828171,-5.49717877101,65.4362261678,0.0,10.0,0.0,0.0,0.0,10.0,0.0,0.0,0.0,10.0,0.000133158054504,0.0187752856851,0.00719053494321,1.0,0.0,0.0,0.0,1.0,0.0,0.0,0.0,1.0,0.0598754882813,-0.119750976563,10.0111816406,0.1,0.0,0.0,0.0,0.1,0.0,0.0,0.0,0.1
1446039807586585054,149,1446039807583329916,robocape,5.69917479095,-5.4140136322,65.0615437163,0.0,10.0,0.0,0.0,0.0,10.0,0.0,0.0,0.0,10.0,-0.00506000607115,0.0189084437396,0.00772316716123,1.0,0.0,0.0,0.0,1.0,0.0,0.0,0.0,1.0,0.0598754882813,-0.154478759766,10.0303417969,0.1,0.0,0.0,0.0,0.1,0.0,0.0,0.0,0.1
1446039807620641346,150,1446039807617456912,robocape,5.6720814166,-5.33307312293,64.6919833788,0.0,10.0,0.0,0.0,0.0,10.0,0.0,0.0,0.0,10.0,-0.00692421883421,0.018242653467,0.00772316716123,1.0,0.0,0.0,0.0,1.0,0.0,0.0,0.0,1.0,0.0718505859375,-0.185614013672,10.0231567383,0.1,0.0,0.0,0.0,0.1,0.0,0.0,0.0,0.1
1446039807653425888,151,1446039807650173902,robocape,5.65193520299,-5.25298850487,64.3270190328,0.0,10.0,0.0,0.0,0.0,10.0,0.0,0.0,0.0,10.0,-0.0031957933081,0.018242653467,0.00759000910673,1.0,0.0,0.0,0.0,1.0,0.0,0.0,0.0,1.0,0.0646655273438,-0.226329345703,10.0135766602,0.1,0.0,0.0,0.0,0.1,0.0,0.0,0.0,0.1
1446039807686539346,152,1446039807683309078,robocape,5.6457342747,-5.17167355987,63.9667092989,0.0,10.0,0.0,0.0,0.0,10.0,0.0,0.0,0.0,10.0,0.00426105774413,0.0193079179031,0.00759000910673,1.0,0.0,0.0,0.0,1.0,0.0,0.0,0.0,1.0,0.086220703125,-0.223934326172,10.0171691895,0.1,0.0,0.0,0.0,0.1,0.0,0.0,0.0,0.1
1446039807720661763,153,1446039807717325925,robocape,5.65105807915,-5.08898581404,63.609777656,0.0,10.0,0.0,0.0,0.0,10.0,0.0,0.0,0.0,10.0,0.0103863282513,0.0203731823391,0.0066579027252,1.0,0.0,0.0,0.0,1.0,0.0,0.0,0.0,1.0,0.0718505859375,-0.214354248047,10.0327368164,0.1,0.0,0.0,0.0,0.1,0.0,0.0,0.0,0.1
1446039807753174554,154,1446039807749986886,robocape,5.6652068526,-5.00802395958,63.2570046743,0.0,10.0,0.0,0.0,0.0,10.0,0.0,0.0,0.0,10.0,0.0151800182135,0.0198405501211,0.00652474467069,1.0,0.0,0.0,0.0,1.0,0.0,0.0,0.0,1.0,0.0682580566406,-0.196391601563,10.0279467773,0.1,0.0,0.0,0.0,0.1,0.0,0.0,0.0,0.1
1446039807786699596,155,1446039807783313989,robocape,5.67692522138,-4.92610550813,62.9095153212,0.0,10.0,0.0,0.0,0.0,10.0,0.0,0.0,0.0,10.0,0.0141147537774,0.0207726565026,0.0067910607797,1.0,0.0,0.0,0.0,1.0,0.0,0.0,0.0,1.0,0.0706530761719,-0.158071289063,10.0375268555,0.1,0.0,0.0,0.0,0.1,0.0,0.0,0.0,0.1
1446039807820632638,156,1446039807817293882,robocape,5.67948251502,-4.84728842606,62.5668231378,0.0,10.0,0.0,0.0,0.0,10.0,0.0,0.0,0.0,10.0,0.00945422186978,0.0195742340121,0.00692421883421,1.0,0.0,0.0,0.0,1.0,0.0,0.0,0.0,1.0,0.0622705078125,-0.130528564453,10.0087866211,0.1,0.0,0.0,0.0,0.1,0.0,0.0,0.0,0.1
1446039807853110096,157,1446039807849983930,robocape,5.67036140454,-4.77086848216,62.2293589401,0.0,10.0,0.0,0.0,0.0,10.0,0.0,0.0,0.0,10.0,0.0034621094171,0.0187752856851,0.00732369299772,1.0,0.0,0.0,0.0,1.0,0.0,0.0,0.0,1.0,0.0646655273438,-0.146096191406,10.0231567383,0.1,0.0,0.0,0.0,0.1,0.0,0.0,0.0,0.1
1446039807886705638,158,1446039807883332967,robocape,5.65100825168,-4.69575335181,61.8961571269,0.0,10.0,0.0,0.0,0.0,10.0,0.0,0.0,0.0,10.0,-0.00186421276306,0.0185089695761,0.00705737688871,1.0,0.0,0.0,0.0,1.0,0.0,0.0,0.0,1.0,0.0658630371094,-0.152083740234,10.0159716797,0.1,0.0,0.0,0.0,0.1,0.0,0.0,0.0,0.1
1446039807920780013,159,1446039807917035102,robocape,5.62924217391,-4.62144818597,61.5674839574,0.0,10.0,0.0,0.0,0.0,10.0,0.0,0.0,0.0,10.0,-0.00306263525359,0.0185089695761,0.00719053494321,1.0,0.0,0.0,0.0,1.0,0.0,0.0,0.0,1.0,0.0586779785156,-0.190404052734,10.0255517578,0.1,0.0,0.0,0.0,0.1,0.0,0.0,0.0,0.1
1446039807953644388,160,1446039807950552940,robocape,5.61342963161,-4.54636189317,61.2429597078,0.0,10.0,0.0,0.0,0.0,10.0,0.0,0.0,0.0,10.0,0.000133158054504,0.0193079179031,0.00719053494321,1.0,0.0,0.0,0.0,1.0,0.0,0.0,0.0,1.0,0.0730480957031,-0.209564208984,10.0351318359,0.1,0.0,0.0,0.0,0.1,0.0,0.0,0.0,0.1
1446039807986497054,161,1446039807983243942,robocape,5.60652169306,-4.47176283767,60.9228445288,0.0,10.0,0.0,0.0,0.0,10.0,0.0,0.0,0.0,10.0,0.00492684801665,0.0194410759576,0.00759000910673,1.0,0.0,0.0,0.0,1.0,0.0,0.0,0.0,1.0,0.0622705078125,-0.204774169922,10.0183666992,0.1,0.0,0.0,0.0,0.1,0.0,0.0,0.0,0.1
1446039808020499721,162,1446039808017213106,robocape,5.60971692291,-4.39743598543,60.6051537058,0.0,10.0,0.0,0.0,0.0,10.0,0.0,0.0,0.0,10.0,0.0102531701968,0.0195742340121,0.0066579027252,1.0,0.0,0.0,0.0,1.0,0.0,0.0,0.0,1.0,0.0718505859375,-0.192799072266,9.9980090332,0.1,0.0,0.0,0.0,0.1,0.0,0.0,0.0,0.1
1446039808053114888,163,1446039808050052881,robocape,5.61647327289,-4.32352431973,60.2915248757,0.0,10.0,0.0,0.0,0.0,10.0,0.0,0.0,0.0,10.0,0.0122505410144,0.0197073920666,0.0067910607797,1.0,0.0,0.0,0.0,1.0,0.0,0.0,0.0,1.0,0.0658630371094,-0.180823974609,10.0147741699,0.1,0.0,0.0,0.0,0.1,0.0,0.0,0.0,0.1
1446039808086450596,164,1446039808083267927,robocape,5.6201675249,-4.25008408822,59.9824578676,0.0,10.0,0.0,0.0,0.0,10.0,0.0,0.0,0.0,10.0,0.0107858024148,0.0198405501211,0.00719053494321,1.0,0.0,0.0,0.0,1.0,0.0,0.0,0.0,1.0,0.067060546875,-0.159268798828,10.0051940918,0.1,0.0,0.0,0.0,0.1,0.0,0.0,0.0,0.1
1446039808120481471,165,1446039808117204904,robocape,5.61840531846,-4.17703877152,59.6769982146,0.0,10.0,0.0,0.0,0.0,10.0,0.0,0.0,0.0,10.0,0.00798948327024,0.0199737081756,0.00692421883421,1.0,0.0,0.0,0.0,1.0,0.0,0.0,0.0,1.0,0.0598754882813,-0.147293701172,10.0506994629,0.1,0.0,0.0,0.0,0.1,0.0,0.0,0.0,0.1
1446039808153078346,166,1446039808150062084,robocape,5.60815436301,-4.10545174976,59.3754364875,0.0,10.0,0.0,0.0,0.0,10.0,0.0,0.0,0.0,10.0,0.00359526747161,0.0195742340121,0.00692421883421,1.0,0.0,0.0,0.0,1.0,0.0,0.0,0.0,1.0,0.0658630371094,-0.159268798828,10.0087866211,0.1,0.0,0.0,0.0,0.1,0.0,0.0,0.0,0.1
1446039808186542388,167,1446039808183352947,robocape,5.59365572746,-4.03539143554,59.078523551,0.0,10.0,0.0,0.0,0.0,10.0,0.0,0.0,0.0,10.0,0.00146473859954,0.0191747598486,0.00759000910673,1.0,0.0,0.0,0.0,1.0,0.0,0.0,0.0,1.0,0.0586779785156,-0.168848876953,10.0135766602,0.1,0.0,0.0,0.0,0.1,0.0,0.0,0.0,0.1
1446039808221196305,168,1446039808217650890,robocape,5.5772774465,-3.96678408093,58.785542005,0.0,10.0,0.0,0.0,0.0,10.0,0.0,0.0,0.0,10.0,0.000532632218016,0.0187752856851,0.00785632521573,1.0,0.0,0.0,0.0,1.0,0.0,0.0,0.0,1.0,0.067060546875,-0.179626464844,10.0147741699,0.1,0.0,0.0,0.0,0.1,0.0,0.0,0.0,0.1
1446039808253012138,169,1446039808249957084,robocape,5.56351259472,-3.89892813881,58.494623663,0.0,10.0,0.0,0.0,0.0,10.0,0.0,0.0,0.0,10.0,0.00186421276306,0.0186421276306,0.00692421883421,1.0,0.0,0.0,0.0,1.0,0.0,0.0,0.0,1.0,0.0562829589844,-0.199984130859,10.0483044434,0.1,0.0,0.0,0.0,0.1,0.0,0.0,0.0,0.1
1446039808287300055,170,1446039808284085988,robocape,5.55610061863,-3.82953619127,58.2060281625,0.0,10.0,0.0,0.0,0.0,10.0,0.0,0.0,0.0,10.0,0.00519316412565,0.0197073920666,0.00612527050718,1.0,0.0,0.0,0.0,1.0,0.0,0.0,0.0,1.0,0.0790356445313,-0.207169189453,10.024354248,0.1,0.0,0.0,0.0,0.1,0.0,0.0,0.0,0.1
1446039808320770180,171,1446039808317375898,robocape,5.55300304168,-3.7613565059,57.922006127,0.0,10.0,0.0,0.0,0.0,10.0,0.0,0.0,0.0,10.0,0.00759000910673,0.0194410759576,0.00705737688871,1.0,0.0,0.0,0.0,1.0,0.0,0.0,0.0,1.0,0.0658630371094,-0.193996582031,10.0016015625,0.1,0.0,0.0,0.0,0.1,0.0,0.0,0.0,0.1
1446039808360166055,172,1446039808350313901,robocape,5.55311207883,-3.69294973969,57.6409103117,0.0,10.0,0.0,0.0,0.0,10.0,0.0,0.0,0.0,10.0,0.00932106381528,0.0198405501211,0.0067910607797,1.0,0.0,0.0,0.0,1.0,0.0,0.0,0.0,1.0,0.067060546875,-0.178428955078,10.024354248,0.1,0.0,0.0,0.0,0.1,0.0,0.0,0.0,0.1
1446039808386504930,173,1446039808383280038,robocape,5.55210622763,-3.62509935902,57.3629190498,0.0,10.0,0.0,0.0,0.0,10.0,0.0,0.0,0.0,10.0,0.00878843159726,0.0198405501211,0.0066579027252,1.0,0.0,0.0,0.0,1.0,0.0,0.0,0.0,1.0,0.0586779785156,-0.162861328125,10.0207617188,0.1,0.0,0.0,0.0,0.1,0.0,0.0,0.0,0.1
1446039808420903263,174,1446039808417278051,robocape,5.5460944115,-3.55843221315,57.0891914376,0.0,10.0,0.0,0.0,0.0,10.0,0.0,0.0,0.0,10.0,0.00625842856169,0.0195742340121,0.00732369299772,1.0,0.0,0.0,0.0,1.0,0.0,0.0,0.0,1.0,0.0706530761719,-0.15328125,10.0207617188,0.1,0.0,0.0,0.0,0.1,0.0,0.0,0.0,0.1
1446039808453212055,175,1446039808450098037,robocape,5.53652155493,-3.49254016278,56.8180912929,0.0,10.0,0.0,0.0,0.0,10.0,0.0,0.0,0.0,10.0,0.00439421579863,0.0194410759576,0.00692421883421,1.0,0.0,0.0,0.0,1.0,0.0,0.0,0.0,1.0,0.0586779785156,-0.165256347656,10.0051940918,0.1,0.0,0.0,0.0,0.1,0.0,0.0,0.0,0.1
1446039808486480221,176,1446039808483258962,robocape,5.52283216029,-3.42800056651,56.5503080172,0.0,10.0,0.0,0.0,0.0,10.0,0.0,0.0,0.0,10.0,0.00226368692657,0.0190416017941,0.00705737688871,1.0,0.0,0.0,0.0,1.0,0.0,0.0,0.0,1.0,0.0622705078125,-0.185614013672,10.0063916016,0.1,0.0,0.0,0.0,0.1,0.0,0.0,0.0,0.1
1446039808520818096,177,1446039808517167091,robocape,5.50778510235,-3.36357192863,56.2862257957,0.0,10.0,0.0,0.0,0.0,10.0,0.0,0.0,0.0,10.0,0.00159789665405,0.0193079179031,0.00745685105222,1.0,0.0,0.0,0.0,1.0,0.0,0.0,0.0,1.0,0.0634680175781,-0.196391601563,10.0183666992,0.1,0.0,0.0,0.0,0.1,0.0,0.0,0.0,0.1
1446039808553036680,178,1446039808549954891,robocape,5.49706977027,-3.30036954854,56.024339445,0.0,10.0,0.0,0.0,0.0,10.0,0.0,0.0,0.0,10.0,0.00386158358061,0.0189084437396,0.00705737688871,1.0,0.0,0.0,0.0,1.0,0.0,0.0,0.0,1.0,0.0550854492188,-0.205971679688,10.0016015625,0.1,0.0,0.0,0.0,0.1,0.0,0.0,0.0,0.1
1446039808586507846,179,1446039808583372116,robocape,5.49040549219,-3.23686180766,55.764758767,0.0,10.0,0.0,0.0,0.0,10.0,0.0,0.0,0.0,10.0,0.00599211245268,0.0193079179031,0.0066579027252,1.0,0.0,0.0,0.0,1.0,0.0,0.0,0.0,1.0,0.076640625,-0.199984130859,10.0219592285,0.1,0.0,0.0,0.0,0.1,0.0,0.0,0.0,0.1
1446039808620753096,180,1446039808616941928,robocape,5.48851718382,-3.17330224153,55.5075917319,0.0,10.0,0.0,0.0,0.0,10.0,0.0,0.0,0.0,10.0,0.00852211548825,0.0195742340121,0.00639158661619,1.0,0.0,0.0,0.0,1.0,0.0,0.0,0.0,1.0,0.0598754882813,-0.184416503906,10.0075891113,0.1,0.0,0.0,0.0,0.1,0.0,0.0,0.0,0.1
1446039808653065471,181,1446039808650036096,robocape,5.48671256403,-3.10957635279,55.2543162781,0.0,10.0,0.0,0.0,0.0,10.0,0.0,0.0,0.0,10.0,0.00865527354276,0.0199737081756,0.00705737688871,1.0,0.0,0.0,0.0,1.0,0.0,0.0,0.0,1.0,0.0610729980469,-0.168848876953,10.0147741699,0.1,0.0,0.0,0.0,0.1,0.0,0.0,0.0,0.1
1446039808686558805,182,1446039808683463096,robocape,5.48236545487,-3.04730470222,55.0031877214,0.0,10.0,0.0,0.0,0.0,10.0,0.0,0.0,0.0,10.0,0.00732369299772,0.0194410759576,0.0066579027252,1.0,0.0,0.0,0.0,1.0,0.0,0.0,0.0,1.0,0.0694555664063,-0.166453857422,10.0219592285,0.1,0.0,0.0,0.0,0.1,0.0,0.0,0.0,0.1
1446039808720846430,183,1446039808717001914,robocape,5.47443598361,-2.98501050232,54.7547295291,0.0,10.0,0.0,0.0,0.0,10.0,0.0,0.0,0.0,10.0,0.00545948023466,0.0197073920666,0.00652474467069,1.0,0.0,0.0,0.0,1.0,0.0,0.0,0.0,1.0,0.0562829589844,-0.15328125,10.0063916016,0.1,0.0,0.0,0.0,0.1,0.0,0.0,0.0,0.1
1446039808752909055,184,1446039808749872922,robocape,5.4631290451,-2.92276956216,54.5096828585,0.0,10.0,0.0,0.0,0.0,10.0,0.0,0.0,0.0,10.0,0.00372842552611,0.0199737081756,0.00692421883421,1.0,0.0,0.0,0.0,1.0,0.0,0.0,0.0,1.0,0.0754431152344,-0.154478759766,10.0231567383,0.1,0.0,0.0,0.0,0.1,0.0,0.0,0.0,0.1
1446039808786469971,185,1446039808783375978,robocape,5.45053407849,-2.86280299854,54.2673287,0.0,10.0,0.0,0.0,0.0,10.0,0.0,0.0,0.0,10.0,0.00306263525359,0.0190416017941,0.00705737688871,1.0,0.0,0.0,0.0,1.0,0.0,0.0,0.0,1.0,0.0706530761719,-0.173638916016,10.0339343262,0.1,0.0,0.0,0.0,0.1,0.0,0.0,0.0,0.1
1446039808820698180,186,1446039808816973924,robocape,5.43794037982,-2.80228120442,54.0274576285,0.0,10.0,0.0,0.0,0.0,10.0,0.0,0.0,0.0,10.0,0.00306263525359,0.0195742340121,0.00692421883421,1.0,0.0,0.0,0.0,1.0,0.0,0.0,0.0,1.0,0.0730480957031,-0.189206542969,10.0207617188,0.1,0.0,0.0,0.0,0.1,0.0,0.0,0.0,0.1
1446039808853070888,187,1446039808849956035,robocape,5.42763365526,-2.74270317702,53.7898277382,0.0,10.0,0.0,0.0,0.0,10.0,0.0,0.0,0.0,10.0,0.00426105774413,0.0193079179031,0.0067910607797,1.0,0.0,0.0,0.0,1.0,0.0,0.0,0.0,1.0,0.067060546875,-0.184416503906,10.0027990723,0.1,0.0,0.0,0.0,0.1,0.0,0.0,0.0,0.1
1446039808886583597,188,1446039808883402109,robocape,5.42156871085,-2.68437492372,53.5551318242,0.0,10.0,0.0,0.0,0.0,10.0,0.0,0.0,0.0,10.0,0.00652474467069,0.0189084437396,0.00719053494321,1.0,0.0,0.0,0.0,1.0,0.0,0.0,0.0,1.0,0.0754431152344,-0.184416503906,10.0087866211,0.1,0.0,0.0,0.0,0.1,0.0,0.0,0.0,0.1
1446039808921078597,189,1446039808917135953,robocape,5.41654345487,-2.6256449804,53.3221387589,0.0,10.0,0.0,0.0,0.0,10.0,0.0,0.0,0.0,10.0,0.00705737688871,0.0193079179031,0.0066579027252,1.0,0.0,0.0,0.0,1.0,0.0,0.0,0.0,1.0,0.0646655273438,-0.193996582031,10.0339343262,0.1,0.0,0.0,0.0,0.1,0.0,0.0,0.0,0.1
1446039808953197430,190,1446039808950088024,robocape,5.41144126744,-2.56740326271,53.0921756525,0.0,10.0,0.0,0.0,0.0,10.0,0.0,0.0,0.0,10.0,0.00705737688871,0.0193079179031,0.00705737688871,1.0,0.0,0.0,0.0,1.0,0.0,0.0,0.0,1.0,0.05748046875,-0.166453857422,10.0063916016,0.1,0.0,0.0,0.0,0.1,0.0,0.0,0.0,0.1
1446039808986590347,191,1446039808983429908,robocape,5.406311032,-2.50958480258,52.8645923318,0.0,10.0,0.0,0.0,0.0,10.0,0.0,0.0,0.0,10.0,0.00705737688871,0.0193079179031,0.00705737688871,1.0,0.0,0.0,0.0,1.0,0.0,0.0,0.0,1.0,0.0622705078125,-0.168848876953,10.0207617188,0.1,0.0,0.0,0.0,0.1,0.0,0.0,0.0,0.1
1446039809020402347,192,1446039809016896009,robocape,5.39834867253,-2.45273711174,52.6397696228,0.0,10.0,0.0,0.0,0.0,10.0,0.0,0.0,0.0,10.0,0.00559263828917,0.0190416017941,0.00732369299772,1.0,0.0,0.0,0.0,1.0,0.0,0.0,0.0,1.0,0.0646655273438,-0.162861328125,10.0279467773,0.1,0.0,0.0,0.0,0.1,0.0,0.0,0.0,0.1
1446039809053280638,193,1446039809050262928,robocape,5.3883387554,-2.39607728033,52.4175165882,0.0,10.0,0.0,0.0,0.0,10.0,0.0,0.0,0.0,10.0,0.00452737385313,0.0191747598486,0.00745685105222,1.0,0.0,0.0,0.0,1.0,0.0,0.0,0.0,1.0,0.0598754882813,-0.173638916016,10.0315393066,0.1,0.0,0.0,0.0,0.1,0.0,0.0,0.0,0.1
1446039809086577388,194,1446039809083327054,robocape,5.37733919799,-2.3408209824,52.1972461999,0.0,10.0,0.0,0.0,0.0,10.0,0.0,0.0,0.0,10.0,0.00399474163512,0.0186421276306,0.00732369299772,1.0,0.0,0.0,0.0,1.0,0.0,0.0,0.0,1.0,0.0754431152344,-0.162861328125,10.0267492676,0.1,0.0,0.0,0.0,0.1,0.0,0.0,0.0,0.1
1446039809120197930,195,1446039809117043018,robocape,5.36762248201,-2.28518550774,51.9790383877,0.0,10.0,0.0,0.0,0.0,10.0,0.0,0.0,0.0,10.0,0.00466053190764,0.0190416017941,0.00719053494321,1.0,0.0,0.0,0.0,1.0,0.0,0.0,0.0,1.0,0.0610729980469,-0.168848876953,10.0099841309,0.1,0.0,0.0,0.0,0.1,0.0,0.0,0.0,0.1
1446039809153044430,196,1446039809150013923,robocape,5.35765877389,-2.23019952317,51.7630017208,0.0,10.0,0.0,0.0,0.0,10.0,0.0,0.0,0.0,10.0,0.00452737385313,0.0189084437396,0.00719053494321,1.0,0.0,0.0,0.0,1.0,0.0,0.0,0.0,1.0,0.0682580566406,-0.177231445313,10.0123791504,0.1,0.0,0.0,0.0,0.1,0.0,0.0,0.0,0.1
1446039809186489555,197,1446039809183284997,robocape,5.35101348402,-2.17504731825,51.5486865854,0.0,10.0,0.0,0.0,0.0,10.0,0.0,0.0,0.0,10.0,0.00625842856169,0.0191747598486,0.00692421883421,1.0,0.0,0.0,0.0,1.0,0.0,0.0,0.0,1.0,0.0586779785156,-0.180823974609,10.0183666992,0.1,0.0,0.0,0.0,0.1,0.0,0.0,0.0,0.1
1446039809219920180,198,1446039809216850042,robocape,5.34432319697,-2.12033407586,51.3371096752,0.0,10.0,0.0,0.0,0.0,10.0,0.0,0.0,0.0,10.0,0.00625842856169,0.0191747598486,0.00732369299772,1.0,0.0,0.0,0.0,1.0,0.0,0.0,0.0,1.0,0.0622705078125,-0.183218994141,10.0327368164,0.1,0.0,0.0,0.0,0.1,0.0,0.0,0.0,0.1
1446039809253014055,199,1446039809249985933,robocape,5.3374045393,-2.06620874911,51.1271902155,0.0,10.0,0.0,0.0,0.0,10.0,0.0,0.0,0.0,10.0,0.00612527050718,0.0190416017941,0.00705737688871,1.0,0.0,0.0,0.0,1.0,0.0,0.0,0.0,1.0,0.0802331542969,-0.180823974609,10.0099841309,0.1,0.0,0.0,0.0,0.1,0.0,0.0,0.0,0.1
1446039809286354055,200,1446039809283303976,robocape,5.32878965297,-2.01183551265,50.9181774907,0.0,10.0,0.0,0.0,0.0,10.0,0.0,0.0,0.0,10.0,0.00519316412565,0.0193079179031,0.00625842856169,1.0,0.0,0.0,0.0,1.0,0.0,0.0,0.0,1.0,0.0610729980469,-0.161663818359,10.024354248,0.1,0.0,0.0,0.0,0.1,0.0,0.0,0.0,0.1
1446039809320138513,201,1446039809316977024,robocape,5.3193981808,-1.95787250127,50.7116244101,0.0,10.0,0.0,0.0,0.0,10.0,0.0,0.0,0.0,10.0,0.00479368996214,0.0193079179031,0.00652474467069,1.0,0.0,0.0,0.0,1.0,0.0,0.0,0.0,1.0,0.0598754882813,-0.17244140625,10.0255517578,0.1,0.0,0.0,0.0,0.1,0.0,0.0,0.0,0.1
1446039809364438680,202,1446039809361294031,robocape,5.30844446643,-1.90513346058,50.5080611635,0.0,10.0,0.0,0.0,0.0,10.0,0.0,0.0,0.0,10.0,0.00399474163512,0.0189084437396,0.00719053494321,1.0,0.0,0.0,0.0,1.0,0.0,0.0,0.0,1.0,0.0586779785156,-0.190404052734,10.024354248,0.1,0.0,0.0,0.0,0.1,0.0,0.0,0.0,0.1
1446039809387535263,203,1446039809384474992,robocape,5.2985674859,-1.85165963493,50.3057010408,0.0,10.0,0.0,0.0,0.0,10.0,0.0,0.0,0.0,10.0,0.00452737385313,0.0194410759576,0.0066579027252,1.0,0.0,0.0,0.0,1.0,0.0,0.0,0.0,1.0,0.0634680175781,-0.183218994141,10.019564209,0.1,0.0,0.0,0.0,0.1,0.0,0.0,0.0,0.1
1446039809420381013,204,1446039809417226076,robocape,5.28920024503,-1.7983057361,50.1054941188,0.0,10.0,0.0,0.0,0.0,10.0,0.0,0.0,0.0,10.0,0.00479368996214,0.0195742340121,0.0067910607797,1.0,0.0,0.0,0.0,1.0,0.0,0.0,0.0,1.0,0.067060546875,-0.190404052734,10.0147741699,0.1,0.0,0.0,0.0,0.1,0.0,0.0,0.0,0.1
1446039809453404180,205,1446039809450295925,robocape,5.28136518801,-1.74504334663,49.9071820766,0.0,10.0,0.0,0.0,0.0,10.0,0.0,0.0,0.0,10.0,0.00559263828917,0.0197073920666,0.0067910607797,1.0,0.0,0.0,0.0,1.0,0.0,0.0,0.0,1.0,0.0586779785156,-0.177231445313,10.0375268555,0.1,0.0,0.0,0.0,0.1,0.0,0.0,0.0,0.1
1446039809486452638,206,1446039809483344078,robocape,5.27481448903,-1.69159469986,49.7105567269,0.0,10.0,0.0,0.0,0.0,10.0,0.0,0.0,0.0,10.0,0.00625842856169,0.0199737081756,0.0066579027252,1.0,0.0,0.0,0.0,1.0,0.0,0.0,0.0,1.0,0.0562829589844,-0.183218994141,10.0135766602,0.1,0.0,0.0,0.0,0.1,0.0,0.0,0.0,0.1
1446039809520088430,207,1446039809516999006,robocape,5.26751624884,-1.63949500894,49.5157025923,0.0,10.0,0.0,0.0,0.0,10.0,0.0,0.0,0.0,10.0,0.00585895439817,0.0194410759576,0.0066579027252,1.0,0.0,0.0,0.0,1.0,0.0,0.0,0.0,1.0,0.0610729980469,-0.179626464844,10.0147741699,0.1,0.0,0.0,0.0,0.1,0.0,0.0,0.0,0.1
1446039809553145014,208,1446039809550079107,robocape,5.25995683679,-1.58801783383,49.3230667237,0.0,10.0,0.0,0.0,0.0,10.0,0.0,0.0,0.0,10.0,0.00572579634367,0.0193079179031,0.00692421883421,1.0,0.0,0.0,0.0,1.0,0.0,0.0,0.0,1.0,0.067060546875,-0.171243896484,10.0518969727,0.1,0.0,0.0,0.0,0.1,0.0,0.0,0.0,0.1
1446039809586464264,209,1446039809583390951,robocape,5.25087207231,-1.53640460507,49.1327113286,0.0,10.0,0.0,0.0,0.0,10.0,0.0,0.0,0.0,10.0,0.00492684801665,0.0195742340121,0.00719053494321,1.0,0.0,0.0,0.0,1.0,0.0,0.0,0.0,1.0,0.0514929199219,-0.173638916016,10.0315393066,0.1,0.0,0.0,0.0,0.1,0.0,0.0,0.0,0.1
1446039809620102930,210,1446039809617005109,robocape,5.2420565244,-1.48614284593,48.9442282143,0.0,10.0,0.0,0.0,0.0,10.0,0.0,0.0,0.0,10.0,0.00506000607115,0.0190416017941,0.00732369299772,1.0,0.0,0.0,0.0,1.0,0.0,0.0,0.0,1.0,0.0634680175781,-0.178428955078,10.0147741699,0.1,0.0,0.0,0.0,0.1,0.0,0.0,0.0,0.1
1446039809653039472,211,1446039809650027036,robocape,5.23250643138,-1.43619737813,48.7574909662,0.0,10.0,0.0,0.0,0.0,10.0,0.0,0.0,0.0,10.0,0.00466053190764,0.0190416017941,0.00732369299772,1.0,0.0,0.0,0.0,1.0,0.0,0.0,0.0,1.0,0.0814306640625,-0.180823974609,10.0303417969,0.1,0.0,0.0,0.0,0.1,0.0,0.0,0.0,0.1
1446039809686520222,212,1446039809683463096,robocape,5.22427573743,-1.38574169244,48.5718743062,0.0,10.0,0.0,0.0,0.0,10.0,0.0,0.0,0.0,10.0,0.00532632218016,0.0194410759576,0.00692421883421,1.0,0.0,0.0,0.0,1.0,0.0,0.0,0.0,1.0,0.0742456054688,-0.183218994141,10.0219592285,0.1,0.0,0.0,0.0,0.1,0.0,0.0,0.0,0.1
1446039809720063055,213,1446039809716974020,robocape,5.21684099918,-1.33683294,48.3876075975,0.0,10.0,0.0,0.0,0.0,10.0,0.0,0.0,0.0,10.0,0.00572579634367,0.0187752856851,0.0067910607797,1.0,0.0,0.0,0.0,1.0,0.0,0.0,0.0,1.0,0.0646655273438,-0.180823974609,10.0135766602,0.1,0.0,0.0,0.0,0.1,0.0,0.0,0.0,0.1
1446039809752992597,214,1446039809749985933,robocape,5.20965985834,-1.28775622572,48.2054641669,0.0,10.0,0.0,0.0,0.0,10.0,0.0,0.0,0.0,10.0,0.00585895439817,0.0190416017941,0.00705737688871,1.0,0.0,0.0,0.0,1.0,0.0,0.0,0.0,1.0,0.0802331542969,-0.179626464844,10.0231567383,0.1,0.0,0.0,0.0,0.1,0.0,0.0,0.0,0.1
1446039809786294972,215,1446039809783230066,robocape,5.20222666101,-1.23851009229,48.0254260807,0.0,10.0,0.0,0.0,0.0,10.0,0.0,0.0,0.0,10.0,0.00572579634367,0.0193079179031,0.00732369299772,1.0,0.0,0.0,0.0,1.0,0.0,0.0,0.0,1.0,0.0658630371094,-0.180823974609,10.0159716797,0.1,0.0,0.0,0.0,0.1,0.0,0.0,0.0,0.1
1446039809820451972,216,1446039809817168951,robocape,5.195096973,-1.18949519638,47.8463599254,0.0,10.0,0.0,0.0,0.0,10.0,0.0,0.0,0.0,10.0,0.00585895439817,0.0193079179031,0.00692421883421,1.0,0.0,0.0,0.0,1.0,0.0,0.0,0.0,1.0,0.0586779785156,-0.17244140625,10.0063916016,0.1,0.0,0.0,0.0,0.1,0.0,0.0,0.0,0.1
1446039809853066514,217,1446039809849947929,robocape,5.18650190899,-1.14146949951,47.6682123274,0.0,10.0,0.0,0.0,0.0,10.0,0.0,0.0,0.0,10.0,0.00506000607115,0.0189084437396,0.00652474467069,1.0,0.0,0.0,0.0,1.0,0.0,0.0,0.0,1.0,0.0694555664063,-0.176033935547,10.039921875,0.1,0.0,0.0,0.0,0.1,0.0,0.0,0.0,0.1
1446039809886541014,218,1446039809883428096,robocape,5.17842566053,-1.0940188958,47.4920281963,0.0,10.0,0.0,0.0,0.0,10.0,0.0,0.0,0.0,10.0,0.00532632218016,0.0187752856851,0.0067910607797,1.0,0.0,0.0,0.0,1.0,0.0,0.0,0.0,1.0,0.0658630371094,-0.178428955078,10.0171691895,0.1,0.0,0.0,0.0,0.1,0.0,0.0,0.0,0.1
1446039809920116972,219,1446039809916954040,robocape,5.16908468365,-1.04590061654,47.3181354695,0.0,10.0,0.0,0.0,0.0,10.0,0.0,0.0,0.0,10.0,0.00466053190764,0.0193079179031,0.00719053494321,1.0,0.0,0.0,0.0,1.0,0.0,0.0,0.0,1.0,0.0658630371094,-0.171243896484,10.0123791504,0.1,0.0,0.0,0.0,0.1,0.0,0.0,0.0,0.1
1446039809953379764,220,1446039809950275897,robocape,5.16030176473,-0.998524482651,47.1452855128,0.0,10.0,0.0,0.0,0.0,10.0,0.0,0.0,0.0,10.0,0.00492684801665,0.0190416017941,0.00692421883421,1.0,0.0,0.0,0.0,1.0,0.0,0.0,0.0,1.0,0.0718505859375,-0.176033935547,10.0303417969,0.1,0.0,0.0,0.0,0.1,0.0,0.0,0.0,0.1
1446039809986474222,221,1446039809983357906,robocape,5.15205197112,-0.952197333546,46.9740747247,0.0,10.0,0.0,0.0,0.0,10.0,0.0,0.0,0.0,10.0,0.00519316412565,0.0186421276306,0.00705737688871,1.0,0.0,0.0,0.0,1.0,0.0,0.0,0.0,1.0,0.0634680175781,-0.177231445313,10.0303417969,0.1,0.0,0.0,0.0,0.1,0.0,0.0,0.0,0.1
1446039810020255722,222,1446039810016876935,robocape,5.14409477826,-0.905862476056,46.8041484097,0.0,10.0,0.0,0.0,0.0,10.0,0.0,0.0,0.0,10.0,0.00532632218016,0.0187752856851,0.00692421883421,1.0,0.0,0.0,0.0,1.0,0.0,0.0,0.0,1.0,0.0682580566406,-0.189206542969,10.0291442871,0.1,0.0,0.0,0.0,0.1,0.0,0.0,0.0,0.1
1446039810053044555,223,1446039810050005912,robocape,5.13538085568,-0.857833614822,46.6365063582,0.0,10.0,0.0,0.0,0.0,10.0,0.0,0.0,0.0,10.0,0.00492684801665,0.0198405501211,0.00732369299772,1.0,0.0,0.0,0.0,1.0,0.0,0.0,0.0,1.0,0.067060546875,-0.176033935547,10.0135766602,0.1,0.0,0.0,0.0,0.1,0.0,0.0,0.0,0.1
1446039810086614805,224,1446039810083575963,robocape,5.12698704463,-0.81125224263,46.4693337124,0.0,10.0,0.0,0.0,0.0,10.0,0.0,0.0,0.0,10.0,0.00506000607115,0.0191747598486,0.0067910607797,1.0,0.0,0.0,0.0,1.0,0.0,0.0,0.0,1.0,0.0694555664063,-0.174836425781,10.0207617188,0.1,0.0,0.0,0.0,0.1,0.0,0.0,0.0,0.1
1446039810120013847,225,1446039810116926908,robocape,5.11914082475,-0.765160816968,46.3033386202,0.0,10.0,0.0,0.0,0.0,10.0,0.0,0.0,0.0,10.0,0.00532632218016,0.0190416017941,0.0066579027252,1.0,0.0,0.0,0.0,1.0,0.0,0.0,0.0,1.0,0.0682580566406,-0.184416503906,10.0099841309,0.1,0.0,0.0,0.0,0.1,0.0,0.0,0.0,0.1
1446039810153066680,226,1446039810150055885,robocape,5.111028525,-0.718436084065,46.1401173089,0.0,10.0,0.0,0.0,0.0,10.0,0.0,0.0,0.0,10.0,0.00519316412565,0.0195742340121,0.00745685105222,1.0,0.0,0.0,0.0,1.0,0.0,0.0,0.0,1.0,0.0550854492188,-0.177231445313,10.0207617188,0.1,0.0,0.0,0.0,0.1,0.0,0.0,0.0,0.1
1446039810186395014,227,1446039810183343887,robocape,5.1029941151,-0.672853166657,45.9769019958,0.0,10.0,0.0,0.0,0.0,10.0,0.0,0.0,0.0,10.0,0.00519316412565,0.0190416017941,0.0066579027252,1.0,0.0,0.0,0.0,1.0,0.0,0.0,0.0,1.0,0.0610729980469,-0.183218994141,10.0219592285,0.1,0.0,0.0,0.0,0.1,0.0,0.0,0.0,0.1
1446039810220559514,228,1446039810217144012,robocape,5.09500736003,-0.627477278945,45.8146238795,0.0,10.0,0.0,0.0,0.0,10.0,0.0,0.0,0.0,10.0,0.00519316412565,0.0190416017941,0.00639158661619,1.0,0.0,0.0,0.0,1.0,0.0,0.0,0.0,1.0,0.0646655273438,-0.174836425781,10.0099841309,0.1,0.0,0.0,0.0,0.1,0.0,0.0,0.0,0.1
1446039810253037764,229,1446039810250004053,robocape,5.08679415928,-0.58186204566,45.6539562762,0.0,10.0,0.0,0.0,0.0,10.0,0.0,0.0,0.0,10.0,0.00506000607115,0.0193079179031,0.00652474467069,1.0,0.0,0.0,0.0,1.0,0.0,0.0,0.0,1.0,0.0682580566406,-0.170046386719,10.0123791504,0.1,0.0,0.0,0.0,0.1,0.0,0.0,0.0,0.1
1446039810286381306,230,1446039810283344030,robocape,5.08090969152,-0.535666490626,45.4940014194,0.0,10.0,0.0,0.0,0.0,10.0,0.0,0.0,0.0,10.0,0.00625842856169,0.0197073920666,0.00612527050718,1.0,0.0,0.0,0.0,1.0,0.0,0.0,0.0,1.0,0.0682580566406,-0.173638916016,10.0183666992,0.1,0.0,0.0,0.0,0.1,0.0,0.0,0.0,0.1
1446039810320473806,231,1446039810316998958,robocape,5.07523474951,-0.488925105113,45.3378052692,0.0,10.0,0.0,0.0,0.0,10.0,0.0,0.0,0.0,10.0,0.00639158661619,0.0202400242846,0.00759000910673,1.0,0.0,0.0,0.0,1.0,0.0,0.0,0.0,1.0,0.0694555664063,-0.174836425781,10.0087866211,0.1,0.0,0.0,0.0,0.1,0.0,0.0,0.0,0.1
1446039810360040347,232,1446039810350071907,robocape,5.06859763986,-0.444636288669,45.1820713092,0.0,10.0,0.0,0.0,0.0,10.0,0.0,0.0,0.0,10.0,0.00585895439817,0.0190416017941,0.00719053494321,1.0,0.0,0.0,0.0,1.0,0.0,0.0,0.0,1.0,0.0598754882813,-0.192799072266,10.024354248,0.1,0.0,0.0,0.0,0.1,0.0,0.0,0.0,0.1
1446039810386450681,233,1446039810383305072,robocape,5.06124221471,-0.399275646293,45.0272945695,0.0,10.0,0.0,0.0,0.0,10.0,0.0,0.0,0.0,10.0,0.00545948023466,0.0197073920666,0.00692421883421,1.0,0.0,0.0,0.0,1.0,0.0,0.0,0.0,1.0,0.0706530761719,-0.186811523438,10.0111816406,0.1,0.0,0.0,0.0,0.1,0.0,0.0,0.0,0.1
1446039810422974597,234,1446039810416945934,robocape,5.05494113389,-0.355387175432,44.8734364403,0.0,10.0,0.0,0.0,0.0,10.0,0.0,0.0,0.0,10.0,0.00599211245268,0.0190416017941,0.0067910607797,1.0,0.0,0.0,0.0,1.0,0.0,0.0,0.0,1.0,0.0598754882813,-0.166453857422,10.0016015625,0.1,0.0,0.0,0.0,0.1,0.0,0.0,0.0,0.1
1446039810453342181,235,1446039810450311899,robocape,5.04816467931,-0.311218724125,44.7208696496,0.0,10.0,0.0,0.0,0.0,10.0,0.0,0.0,0.0,10.0,0.00572579634367,0.0193079179031,0.0067910607797,1.0,0.0,0.0,0.0,1.0,0.0,0.0,0.0,1.0,0.0550854492188,-0.184416503906,10.0075891113,0.1,0.0,0.0,0.0,0.1,0.0,0.0,0.0,0.1
1446039810486891556,236,1446039810483561992,robocape,5.04090490012,-0.267063210266,44.5699880873,0.0,10.0,0.0,0.0,0.0,10.0,0.0,0.0,0.0,10.0,0.00545948023466,0.0194410759576,0.00705737688871,1.0,0.0,0.0,0.0,1.0,0.0,0.0,0.0,1.0,0.0634680175781,-0.1916015625,10.0375268555,0.1,0.0,0.0,0.0,0.1,0.0,0.0,0.0,0.1
1446039810520391931,237,1446039810516798019,robocape,5.03314855895,-0.222475463204,44.4214629965,0.0,10.0,0.0,0.0,0.0,10.0,0.0,0.0,0.0,10.0,0.00519316412565,0.0198405501211,0.00772316716123,1.0,0.0,0.0,0.0,1.0,0.0,0.0,0.0,1.0,0.0682580566406,-0.184416503906,10.0375268555,0.1,0.0,0.0,0.0,0.1,0.0,0.0,0.0,0.1
1446039810553098181,238,1446039810550018072,robocape,5.02621027961,-0.179288260187,44.2731379732,0.0,10.0,0.0,0.0,0.0,10.0,0.0,0.0,0.0,10.0,0.00559263828917,0.0191747598486,0.00719053494321,1.0,0.0,0.0,0.0,1.0,0.0,0.0,0.0,1.0,0.0694555664063,-0.176033935547,10.019564209,0.1,0.0,0.0,0.0,0.1,0.0,0.0,0.0,0.1
1446039810586549014,239,1446039810583522081,robocape,5.01830037867,-0.136296653578,44.1257850046,0.0,10.0,0.0,0.0,0.0,10.0,0.0,0.0,0.0,10.0,0.00506000607115,0.0191747598486,0.00705737688871,1.0,0.0,0.0,0.0,1.0,0.0,0.0,0.0,1.0,0.05748046875,-0.195194091797,9.9980090332,0.1,0.0,0.0,0.0,0.1,0.0,0.0,0.0,0.1
1446039810620511847,240,1446039810617002964,robocape,5.010919871,-0.0941038265281,43.9804099859,0.0,10.0,0.0,0.0,0.0,10.0,0.0,0.0,0.0,10.0,0.00532632218016,0.0189084437396,0.00759000910673,1.0,0.0,0.0,0.0,1.0,0.0,0.0,0.0,1.0,0.0562829589844,-0.179626464844,10.0183666992,0.1,0.0,0.0,0.0,0.1,0.0,0.0,0.0,0.1
1446039810653081181,241,1446039810650037050,robocape,5.0028292144,-0.0507954399867,43.8356375355,0.0,10.0,0.0,0.0,0.0,10.0,0.0,0.0,0.0,10.0,0.00492684801665,0.0195742340121,0.00719053494321,1.0,0.0,0.0,0.0,1.0,0.0,0.0,0.0,1.0,0.0754431152344,-0.177231445313,10.0315393066,0.1,0.0,0.0,0.0,0.1,0.0,0.0,0.0,0.1
1446039810686355847,242,1446039810683309078,robocape,4.99553480225,-0.00822137370812,43.6921578827,0.0,10.0,0.0,0.0,0.0,10.0,0.0,0.0,0.0,10.0,0.00532632218016,0.0193079179031,0.00732369299772,1.0,0.0,0.0,0.0,1.0,0.0,0.0,0.0,1.0,0.0586779785156,-0.177231445313,10.0219592285,0.1,0.0,0.0,0.0,0.1,0.0,0.0,0.0,0.1
1446039810720446389,243,1446039810716835021,robocape,4.98878568819,0.0336436718431,43.5497425758,0.0,10.0,0.0,0.0,0.0,10.0,0.0,0.0,0.0,10.0,0.00559263828917,0.0190416017941,0.00732369299772,1.0,0.0,0.0,0.0,1.0,0.0,0.0,0.0,1.0,0.0694555664063,-0.176033935547,10.0123791504,0.1,0.0,0.0,0.0,0.1,0.0,0.0,0.0,0.1
1446039810753200431,244,1446039810750147104,robocape,4.98234226194,0.0766746038969,43.4074366035,0.0,10.0,0.0,0.0,0.0,10.0,0.0,0.0,0.0,10.0,0.00572579634367,0.0197073920666,0.0066579027252,1.0,0.0,0.0,0.0,1.0,0.0,0.0,0.0,1.0,0.0610729980469,-0.179626464844,10.024354248,0.1,0.0,0.0,0.0,0.1,0.0,0.0,0.0,0.1
1446039810786375764,245,1446039810783298015,robocape,4.97415594823,0.119206203896,43.266663632,0.0,10.0,0.0,0.0,0.0,10.0,0.0,0.0,0.0,10.0,0.00479368996214,0.0195742340121,0.00692421883421,1.0,0.0,0.0,0.0,1.0,0.0,0.0,0.0,1.0,0.0682580566406,-0.179626464844,9.99920654297,0.1,0.0,0.0,0.0,0.1,0.0,0.0,0.0,0.1
1446039810820476972,246,1446039810816881895,robocape,4.96625457311,0.161475793737,43.1276165397,0.0,10.0,0.0,0.0,0.0,10.0,0.0,0.0,0.0,10.0,0.00492684801665,0.0195742340121,0.00732369299772,1.0,0.0,0.0,0.0,1.0,0.0,0.0,0.0,1.0,0.076640625,-0.183218994141,10.0674645996,0.1,0.0,0.0,0.0,0.1,0.0,0.0,0.0,0.1
1446039810853222639,247,1446039810850084066,robocape,4.95864849456,0.202790554536,42.9895621224,0.0,10.0,0.0,0.0,0.0,10.0,0.0,0.0,0.0,10.0,0.00506000607115,0.0191747598486,0.00732369299772,1.0,0.0,0.0,0.0,1.0,0.0,0.0,0.0,1.0,0.0742456054688,-0.182021484375,10.0423168945,0.1,0.0,0.0,0.0,0.1,0.0,0.0,0.0,0.1
1446039810886433514,248,1446039810883289098,robocape,4.95057496832,0.243638834416,42.8527581588,0.0,10.0,0.0,0.0,0.0,10.0,0.0,0.0,0.0,10.0,0.00479368996214,0.0190416017941,0.00745685105222,1.0,0.0,0.0,0.0,1.0,0.0,0.0,0.0,1.0,0.067060546875,-0.178428955078,10.0231567383,0.1,0.0,0.0,0.0,0.1,0.0,0.0,0.0,0.1
1446039810920362848,249,1446039810916764974,robocape,4.94381988444,0.284634644334,42.7161119622,0.0,10.0,0.0,0.0,0.0,10.0,0.0,0.0,0.0,10.0,0.00545948023466,0.0191747598486,0.00692421883421,1.0,0.0,0.0,0.0,1.0,0.0,0.0,0.0,1.0,0.0634680175781,-0.190404052734,10.0027990723,0.1,0.0,0.0,0.0,0.1,0.0,0.0,0.0,0.1
1446039810953383014,250,1446039810950282096,robocape,4.93735190746,0.324897016051,42.5808840276,0.0,10.0,0.0,0.0,0.0,10.0,0.0,0.0,0.0,10.0,0.00559263828917,0.0189084437396,0.00719053494321,1.0,0.0,0.0,0.0,1.0,0.0,0.0,0.0,1.0,0.0634680175781,-0.179626464844,10.0339343262,0.1,0.0,0.0,0.0,0.1,0.0,0.0,0.0,0.1
1446039810986379598,251,1446039810983282089,robocape,4.93093150558,0.366342370297,42.4456695434,0.0,10.0,0.0,0.0,0.0,10.0,0.0,0.0,0.0,10.0,0.00559263828917,0.0195742340121,0.00652474467069,1.0,0.0,0.0,0.0,1.0,0.0,0.0,0.0,1.0,0.0646655273438,-0.171243896484,10.0279467773,0.1,0.0,0.0,0.0,0.1,0.0,0.0,0.0,0.1
1446039811020378348,252,1446039811016689062,robocape,4.92403519636,0.407539197574,42.3121233199,0.0,10.0,0.0,0.0,0.0,10.0,0.0,0.0,0.0,10.0,0.00532632218016,0.0195742340121,0.00692421883421,1.0,0.0,0.0,0.0,1.0,0.0,0.0,0.0,1.0,0.0490979003906,-0.180823974609,10.0291442871,0.1,0.0,0.0,0.0,0.1,0.0,0.0,0.0,0.1
1446039811053098681,253,1446039811050004959,robocape,4.91692404214,0.448804470429,42.17958685,0.0,10.0,0.0,0.0,0.0,10.0,0.0,0.0,0.0,10.0,0.00519316412565,0.0197073920666,0.00692421883421,1.0,0.0,0.0,0.0,1.0,0.0,0.0,0.0,1.0,0.0586779785156,-0.170046386719,10.0159716797,0.1,0.0,0.0,0.0,0.1,0.0,0.0,0.0,0.1
1446039811086795473,254,1446039811083744049,robocape,4.90909142694,0.488329000435,42.0483546319,0.0,10.0,0.0,0.0,0.0,10.0,0.0,0.0,0.0,10.0,0.00479368996214,0.0189084437396,0.00719053494321,1.0,0.0,0.0,0.0,1.0,0.0,0.0,0.0,1.0,0.0610729980469,-0.190404052734,10.0087866211,0.1,0.0,0.0,0.0,0.1,0.0,0.0,0.0,0.1
1446039811120370764,255,1446039811116710901,robocape,4.90206996566,0.528307865562,41.9167922316,0.0,10.0,0.0,0.0,0.0,10.0,0.0,0.0,0.0,10.0,0.00519316412565,0.0191747598486,0.00639158661619,1.0,0.0,0.0,0.0,1.0,0.0,0.0,0.0,1.0,0.067060546875,-0.178428955078,10.0123791504,0.1,0.0,0.0,0.0,0.1,0.0,0.0,0.0,0.1
1446039811153065014,256,1446039811150026082,robocape,4.89432216448,0.568259068439,41.7873186404,0.0,10.0,0.0,0.0,0.0,10.0,0.0,0.0,0.0,10.0,0.00479368996214,0.0193079179031,0.00705737688871,1.0,0.0,0.0,0.0,1.0,0.0,0.0,0.0,1.0,0.067060546875,-0.180823974609,10.0231567383,0.1,0.0,0.0,0.0,0.1,0.0,0.0,0.0,0.1
1446039811186499181,257,1446039811183433055,robocape,4.88762820681,0.609047566973,41.6588494334,0.0,10.0,0.0,0.0,0.0,10.0,0.0,0.0,0.0,10.0,0.00532632218016,0.0198405501211,0.00705737688871,1.0,0.0,0.0,0.0,1.0,0.0,0.0,0.0,1.0,0.0598754882813,-0.17244140625,10.0303417969,0.1,0.0,0.0,0.0,0.1,0.0,0.0,0.0,0.1
1446039811220433431,258,1446039811216725111,robocape,4.88249130912,0.648379631417,41.5314089234,0.0,10.0,0.0,0.0,0.0,10.0,0.0,0.0,0.0,10.0,0.00612527050718,0.0191747598486,0.00719053494321,1.0,0.0,0.0,0.0,1.0,0.0,0.0,0.0,1.0,0.0550854492188,-0.185614013672,10.019564209,0.1,0.0,0.0,0.0,0.1,0.0,0.0,0.0,0.1
1446039811254176973,259,1446039811251066923,robocape,4.87739226819,0.689184245825,41.4036778174,0.0,10.0,0.0,0.0,0.0,10.0,0.0,0.0,0.0,10.0,0.00612527050718,0.0199737081756,0.00639158661619,1.0,0.0,0.0,0.0,1.0,0.0,0.0,0.0,1.0,0.067060546875,-0.182021484375,10.0339343262,0.1,0.0,0.0,0.0,0.1,0.0,0.0,0.0,0.1
1446039811286480973,260,1446039811283426046,robocape,4.87105890026,0.728722605177,41.2776809983,0.0,10.0,0.0,0.0,0.0,10.0,0.0,0.0,0.0,10.0,0.00545948023466,0.0194410759576,0.00692421883421,1.0,0.0,0.0,0.0,1.0,0.0,0.0,0.0,1.0,0.076640625,-0.174836425781,10.0255517578,0.1,0.0,0.0,0.0,0.1,0.0,0.0,0.0,0.1
1446039811320584473,261,1446039811316863059,robocape,4.86552340105,0.767590158154,41.1525317563,0.0,10.0,0.0,0.0,0.0,10.0,0.0,0.0,0.0,10.0,0.00585895439817,0.0191747598486,0.00692421883421,1.0,0.0,0.0,0.0,1.0,0.0,0.0,0.0,1.0,0.0634680175781,-0.177231445313,10.0327368164,0.1,0.0,0.0,0.0,0.1,0.0,0.0,0.0,0.1
1446039811361367098,262,1446039811351596117,robocape,4.85926413422,0.80677865431,41.0285397662,0.0,10.0,0.0,0.0,0.0,10.0,0.0,0.0,0.0,10.0,0.00545948023466,0.0194410759576,0.00705737688871,1.0,0.0,0.0,0.0,1.0,0.0,0.0,0.0,1.0,0.0562829589844,-0.171243896484,10.0123791504,0.1,0.0,0.0,0.0,0.1,0.0,0.0,0.0,0.1
1446039811386721348,263,1446039811383582115,robocape,4.85278983012,0.845741632162,40.9060903724,0.0,10.0,0.0,0.0,0.0,10.0,0.0,0.0,0.0,10.0,0.00532632218016,0.0194410759576,0.00745685105222,1.0,0.0,0.0,0.0,1.0,0.0,0.0,0.0,1.0,0.0718505859375,-0.174836425781,10.0159716797,0.1,0.0,0.0,0.0,0.1,0.0,0.0,0.0,0.1
1446039811420218848,264,1446039811416685104,robocape,4.84483583478,0.885088318056,40.7841157633,0.0,10.0,0.0,0.0,0.0,10.0,0.0,0.0,0.0,10.0,0.00452737385313,0.0197073920666,0.00719053494321,1.0,0.0,0.0,0.0,1.0,0.0,0.0,0.0,1.0,0.076640625,-0.17244140625,10.0159716797,0.1,0.0,0.0,0.0,0.1,0.0,0.0,0.0,0.1
1446039811453449639,265,1446039811450294971,robocape,4.83920288743,0.923832606643,40.6622598898,0.0,10.0,0.0,0.0,0.0,10.0,0.0,0.0,0.0,10.0,0.00572579634367,0.0194410759576,0.0067910607797,1.0,0.0,0.0,0.0,1.0,0.0,0.0,0.0,1.0,0.0694555664063,-0.176033935547,10.0459094238,0.1,0.0,0.0,0.0,0.1,0.0,0.0,0.0,0.1
1446039811486409306,266,1446039811483304977,robocape,4.83284911559,0.961093062882,40.5418306021,0.0,10.0,0.0,0.0,0.0,10.0,0.0,0.0,0.0,10.0,0.00532632218016,0.0187752856851,0.00719053494321,1.0,0.0,0.0,0.0,1.0,0.0,0.0,0.0,1.0,0.067060546875,-0.190404052734,10.0267492676,0.1,0.0,0.0,0.0,0.1,0.0,0.0,0.0,0.1
1446039811520102639,267,1446039811516638040,robocape,4.82704038318,0.998496354414,40.4218045863,0.0,10.0,0.0,0.0,0.0,10.0,0.0,0.0,0.0,10.0,0.00559263828917,0.0189084437396,0.00692421883421,1.0,0.0,0.0,0.0,1.0,0.0,0.0,0.0,1.0,0.0622705078125,-0.184416503906,10.0315393066,0.1,0.0,0.0,0.0,0.1,0.0,0.0,0.0,0.1
1446039811553289223,268,1446039811550246953,robocape,4.82253671195,1.03596135251,40.3030554689,0.0,10.0,0.0,0.0,0.0,10.0,0.0,0.0,0.0,10.0,0.00625842856169,0.0190416017941,0.00719053494321,1.0,0.0,0.0,0.0,1.0,0.0,0.0,0.0,1.0,0.0730480957031,-0.177231445313,10.0459094238,0.1,0.0,0.0,0.0,0.1,0.0,0.0,0.0,0.1
1446039811586696806,269,1446039811583672046,robocape,4.81705501521,1.07426601024,40.1854347747,0.0,10.0,0.0,0.0,0.0,10.0,0.0,0.0,0.0,10.0,0.00572579634367,0.0195742340121,0.00732369299772,1.0,0.0,0.0,0.0,1.0,0.0,0.0,0.0,1.0,0.0502954101563,-0.173638916016,10.0255517578,0.1,0.0,0.0,0.0,0.1,0.0,0.0,0.0,0.1
1446039811620321265,270,1446039811616904973,robocape,4.81160487026,1.1132606127,40.0677848144,0.0,10.0,0.0,0.0,0.0,10.0,0.0,0.0,0.0,10.0,0.00572579634367,0.0199737081756,0.0067910607797,1.0,0.0,0.0,0.0,1.0,0.0,0.0,0.0,1.0,0.0718505859375,-0.177231445313,10.0279467773,0.1,0.0,0.0,0.0,0.1,0.0,0.0,0.0,0.1
1446039811653447890,271,1446039811650372982,robocape,4.80568540409,1.15132342142,39.9511065286,0.0,10.0,0.0,0.0,0.0,10.0,0.0,0.0,0.0,10.0,0.00545948023466,0.0195742340121,0.00692421883421,1.0,0.0,0.0,0.0,1.0,0.0,0.0,0.0,1.0,0.0658630371094,-0.182021484375,10.0255517578,0.1,0.0,0.0,0.0,0.1,0.0,0.0,0.0,0.1
1446039811686307098,272,1446039811683274030,robocape,4.79929605239,1.18875238008,39.8349631258,0.0,10.0,0.0,0.0,0.0,10.0,0.0,0.0,0.0,10.0,0.00519316412565,0.0193079179031,0.0067910607797,1.0,0.0,0.0,0.0,1.0,0.0,0.0,0.0,1.0,0.0658630371094,-0.184416503906,10.0051940918,0.1,0.0,0.0,0.0,0.1,0.0,0.0,0.0,0.1
1446039811720459890,273,1446039811716948032,robocape,4.79192885073,1.22609647291,39.7189448035,0.0,10.0,0.0,0.0,0.0,10.0,0.0,0.0,0.0,10.0,0.00466053190764,0.0193079179031,0.00639158661619,1.0,0.0,0.0,0.0,1.0,0.0,0.0,0.0,1.0,0.0658630371094,-0.195194091797,10.0075891113,0.1,0.0,0.0,0.0,0.1,0.0,0.0,0.0,0.1
1446039811753136681,274,1446039811750077962,robocape,4.78638310831,1.26371871822,39.6046162043,0.0,10.0,0.0,0.0,0.0,10.0,0.0,0.0,0.0,10.0,0.00559263828917,0.0195742340121,0.00692421883421,1.0,0.0,0.0,0.0,1.0,0.0,0.0,0.0,1.0,0.0694555664063,-0.192799072266,10.0027990723,0.1,0.0,0.0,0.0,0.1,0.0,0.0,0.0,0.1
1446039811786505098,275,1446039811783459901,robocape,4.78188839043,1.30168256062,39.4913020151,0.0,10.0,0.0,0.0,0.0,10.0,0.0,0.0,0.0,10.0,0.00612527050718,0.0198405501211,0.00705737688871,1.0,0.0,0.0,0.0,1.0,0.0,0.0,0.0,1.0,0.0622705078125,-0.176033935547,10.0363293457,0.1,0.0,0.0,0.0,0.1,0.0,0.0,0.0,0.1
1446039811820363806,276,1446039811816875934,robocape,4.7754016186,1.33975367993,39.3787850355,0.0,10.0,0.0,0.0,0.0,10.0,0.0,0.0,0.0,10.0,0.00506000607115,0.0199737081756,0.00705737688871,1.0,0.0,0.0,0.0,1.0,0.0,0.0,0.0,1.0,0.0622705078125,-0.173638916016,10.024354248,0.1,0.0,0.0,0.0,0.1,0.0,0.0,0.0,0.1
1446039811853330348,277,1446039811850096940,robocape,4.76895180413,1.37618557322,39.2666757019,0.0,10.0,0.0,0.0,0.0,10.0,0.0,0.0,0.0,10.0,0.00506000607115,0.0191747598486,0.00692421883421,1.0,0.0,0.0,0.0,1.0,0.0,0.0,0.0,1.0,0.0646655273438,-0.174836425781,10.0099841309,0.1,0.0,0.0,0.0,0.1,0.0,0.0,0.0,0.1
1446039811886432598,278,1446039811883306980,robocape,4.76229902172,1.41365896512,39.1563007565,0.0,10.0,0.0,0.0,0.0,10.0,0.0,0.0,0.0,10.0,0.00492684801665,0.0198405501211,0.00745685105222,1.0,0.0,0.0,0.0,1.0,0.0,0.0,0.0,1.0,0.0646655273438,-0.182021484375,10.0159716797,0.1,0.0,0.0,0.0,0.1,0.0,0.0,0.0,0.1
1446039811920317431,279,1446039811916975021,robocape,4.75567577171,1.44981211791,39.045659424,0.0,10.0,0.0,0.0,0.0,10.0,0.0,0.0,0.0,10.0,0.00492684801665,0.0191747598486,0.00692421883421,1.0,0.0,0.0,0.0,1.0,0.0,0.0,0.0,1.0,0.0610729980469,-0.167651367188,10.0087866211,0.1,0.0,0.0,0.0,0.1,0.0,0.0,0.0,0.1
1446039811953591098,280,1446039811950263977,robocape,4.74884868542,1.48601960208,38.9364375126,0.0,10.0,0.0,0.0,0.0,10.0,0.0,0.0,0.0,10.0,0.00479368996214,0.0193079179031,0.00732369299772,1.0,0.0,0.0,0.0,1.0,0.0,0.0,0.0,1.0,0.0562829589844,-0.168848876953,10.0518969727,0.1,0.0,0.0,0.0,0.1,0.0,0.0,0.0,0.1
1446039811986510431,281,1446039811983417034,robocape,4.74256638223,1.52211366133,38.8276972459,0.0,10.0,0.0,0.0,0.0,10.0,0.0,0.0,0.0,10.0,0.00506000607115,0.0193079179031,0.00719053494321,1.0,0.0,0.0,0.0,1.0,0.0,0.0,0.0,1.0,0.0610729980469,-0.179626464844,10.0303417969,0.1,0.0,0.0,0.0,0.1,0.0,0.0,0.0,0.1
1446039812020038681,282,1446039812016838073,robocape,4.73708961683,1.55853890505,38.7201416197,0.0,10.0,0.0,0.0,0.0,10.0,0.0,0.0,0.0,10.0,0.00545948023466,0.0195742340121,0.00745685105222,1.0,0.0,0.0,0.0,1.0,0.0,0.0,0.0,1.0,0.0754431152344,-0.180823974609,10.0351318359,0.1,0.0,0.0,0.0,0.1,0.0,0.0,0.0,0.1
1446039812053220390,283,1446039812050149917,robocape,4.73113682563,1.59462013627,38.6128184986,0.0,10.0,0.0,0.0,0.0,10.0,0.0,0.0,0.0,10.0,0.00519316412565,0.0194410759576,0.00719053494321,1.0,0.0,0.0,0.0,1.0,0.0,0.0,0.0,1.0,0.0610729980469,-0.182021484375,10.0016015625,0.1,0.0,0.0,0.0,0.1,0.0,0.0,0.0,0.1
1446039812086762431,284,1446039812083394050,robocape,4.7249554294,1.63065352385,38.5052883824,0.0,10.0,0.0,0.0,0.0,10.0,0.0,0.0,0.0,10.0,0.00506000607115,0.0194410759576,0.0066579027252,1.0,0.0,0.0,0.0,1.0,0.0,0.0,0.0,1.0,0.0586779785156,-0.177231445313,10.0171691895,0.1,0.0,0.0,0.0,0.1,0.0,0.0,0.0,0.1
1446039812120145765,285,1446039812116966009,robocape,4.71781495727,1.66672473117,38.3993780339,0.0,10.0,0.0,0.0,0.0,10.0,0.0,0.0,0.0,10.0,0.00452737385313,0.0195742340121,0.00719053494321,1.0,0.0,0.0,0.0,1.0,0.0,0.0,0.0,1.0,0.0658630371094,-0.167651367188,10.0327368164,0.1,0.0,0.0,0.0,0.1,0.0,0.0,0.0,0.1
1446039812153203431,286,1446039812150162935,robocape,4.71122267034,1.70241344583,38.2941192748,0.0,10.0,0.0,0.0,0.0,10.0,0.0,0.0,0.0,10.0,0.00479368996214,0.0194410759576,0.00719053494321,1.0,0.0,0.0,0.0,1.0,0.0,0.0,0.0,1.0,0.0730480957031,-0.168848876953,10.0315393066,0.1,0.0,0.0,0.0,0.1,0.0,0.0,0.0,0.1
1446039812186437348,287,1446039812183397054,robocape,4.70390327654,1.73776269897,38.1890679477,0.0,10.0,0.0,0.0,0.0,10.0,0.0,0.0,0.0,10.0,0.00439421579863,0.0193079179031,0.00692421883421,1.0,0.0,0.0,0.0,1.0,0.0,0.0,0.0,1.0,0.0610729980469,-0.166453857422,10.0483044434,0.1,0.0,0.0,0.0,0.1,0.0,0.0,0.0,0.1
1446039812219926640,288,1446039812216732025,robocape,4.69712067008,1.77355375462,38.0840353373,0.0,10.0,0.0,0.0,0.0,10.0,0.0,0.0,0.0,10.0,0.00466053190764,0.0195742340121,0.00652474467069,1.0,0.0,0.0,0.0,1.0,0.0,0.0,0.0,1.0,0.0658630371094,-0.182021484375,10.0183666992,0.1,0.0,0.0,0.0,0.1,0.0,0.0,0.0,0.1
1446039812253493306,289,1446039812250238895,robocape,4.69164861626,1.8091981986,37.9798763682,0.0,10.0,0.0,0.0,0.0,10.0,0.0,0.0,0.0,10.0,0.00532632218016,0.0195742340121,0.0066579027252,1.0,0.0,0.0,0.0,1.0,0.0,0.0,0.0,1.0,0.0682580566406,-0.17244140625,10.0363293457,0.1,0.0,0.0,0.0,0.1,0.0,0.0,0.0,0.1
1446039812292591265,290,1446039812289344072,robocape,4.68546267346,1.84518104716,37.8768679659,0.0,10.0,0.0,0.0,0.0,10.0,0.0,0.0,0.0,10.0,0.00492684801665,0.0198405501211,0.00692421883421,1.0,0.0,0.0,0.0,1.0,0.0,0.0,0.0,1.0,0.0838256835938,-0.17244140625,10.0315393066,0.1,0.0,0.0,0.0,0.1,0.0,0.0,0.0,0.1
1446039812320167973,291,1446039812316925048,robocape,4.68034568644,1.87969249599,37.7753054992,0.0,10.0,0.0,0.0,0.0,10.0,0.0,0.0,0.0,10.0,0.00545948023466,0.0191747598486,0.00745685105222,1.0,0.0,0.0,0.0,1.0,0.0,0.0,0.0,1.0,0.0838256835938,-0.178428955078,10.0147741699,0.1,0.0,0.0,0.0,0.1,0.0,0.0,0.0,0.1
1446039812359825807,292,1446039812350660085,robocape,4.67474462942,1.91465232427,37.6737390791,0.0,10.0,0.0,0.0,0.0,10.0,0.0,0.0,0.0,10.0,0.00519316412565,0.0194410759576,0.00705737688871,1.0,0.0,0.0,0.0,1.0,0.0,0.0,0.0,1.0,0.0550854492188,-0.182021484375,10.0183666992,0.1,0.0,0.0,0.0,0.1,0.0,0.0,0.0,0.1
1446039812386474223,293,1446039812383337020,robocape,4.67070019409,1.94999845574,37.5728233746,0.0,10.0,0.0,0.0,0.0,10.0,0.0,0.0,0.0,10.0,0.00599211245268,0.0197073920666,0.00705737688871,1.0,0.0,0.0,0.0,1.0,0.0,0.0,0.0,1.0,0.0586779785156,-0.178428955078,10.0099841309,0.1,0.0,0.0,0.0,0.1,0.0,0.0,0.0,0.1
1446039812420298598,294,1446039812417085886,robocape,4.66592276,1.9844872644,37.4722577273,0.0,10.0,0.0,0.0,0.0,10.0,0.0,0.0,0.0,10.0,0.00559263828917,0.0193079179031,0.00692421883421,1.0,0.0,0.0,0.0,1.0,0.0,0.0,0.0,1.0,0.0718505859375,-0.166453857422,10.024354248,0.1,0.0,0.0,0.0,0.1,0.0,0.0,0.0,0.1
1446039812453794057,295,1446039812450740098,robocape,4.65967665616,2.01854269246,37.3729889098,0.0,10.0,0.0,0.0,0.0,10.0,0.0,0.0,0.0,10.0,0.00479368996214,0.0191747598486,0.00732369299772,1.0,0.0,0.0,0.0,1.0,0.0,0.0,0.0,1.0,0.0598754882813,-0.188009033203,10.0099841309,0.1,0.0,0.0,0.0,0.1,0.0,0.0,0.0,0.1
1446039812486446432,296,1446039812483329057,robocape,4.65218233602,2.05231227163,37.273415659,0.0,10.0,0.0,0.0,0.0,10.0,0.0,0.0,0.0,10.0,0.00412789968962,0.0190416017941,0.0067910607797,1.0,0.0,0.0,0.0,1.0,0.0,0.0,0.0,1.0,0.047900390625,-0.188009033203,10.0351318359,0.1,0.0,0.0,0.0,0.1,0.0,0.0,0.0,0.1
1446039812519890807,297,1446039812516733884,robocape,4.64574994286,2.08645183032,37.1747027775,0.0,10.0,0.0,0.0,0.0,10.0,0.0,0.0,0.0,10.0,0.00466053190764,0.0193079179031,0.00692421883421,1.0,0.0,0.0,0.0,1.0,0.0,0.0,0.0,1.0,0.0682580566406,-0.197589111328,10.0004040527,0.1,0.0,0.0,0.0,0.1,0.0,0.0,0.0,0.1
1446039812553595223,298,1446039812550549030,robocape,4.63834916161,2.11919144526,37.0767367567,0.0,10.0,0.0,0.0,0.0,10.0,0.0,0.0,0.0,10.0,0.00412789968962,0.0186421276306,0.00705737688871,1.0,0.0,0.0,0.0,1.0,0.0,0.0,0.0,1.0,0.0730480957031,-0.173638916016,10.0303417969,0.1,0.0,0.0,0.0,0.1,0.0,0.0,0.0,0.1
1446039812586877932,299,1446039812583554983,robocape,4.63174702075,2.15361063096,36.979255442,0.0,10.0,0.0,0.0,0.0,10.0,0.0,0.0,0.0,10.0,0.00452737385313,0.0195742340121,0.00692421883421,1.0,0.0,0.0,0.0,1.0,0.0,0.0,0.0,1.0,0.0610729980469,-0.17244140625,10.0363293457,0.1,0.0,0.0,0.0,0.1,0.0,0.0,0.0,0.1
1446039812620111348,300,1446039812617017984,robocape,4.6264615748,2.18661097249,36.8827138647,0.0,10.0,0.0,0.0,0.0,10.0,0.0,0.0,0.0,10.0,0.00519316412565,0.0189084437396,0.00719053494321,1.0,0.0,0.0,0.0,1.0,0.0,0.0,0.0,1.0,0.0634680175781,-0.179626464844,10.0183666992,0.1,0.0,0.0,0.0,0.1,0.0,0.0,0.0,0.1
1446039812653870932,301,1446039812650716066,robocape,4.62121336083,2.22000801152,36.7867888487,0.0,10.0,0.0,0.0,0.0,10.0,0.0,0.0,0.0,10.0,0.00519316412565,0.0191747598486,0.00719053494321,1.0,0.0,0.0,0.0,1.0,0.0,0.0,0.0,1.0,0.0598754882813,-0.185614013672,10.0279467773,0.1,0.0,0.0,0.0,0.1,0.0,0.0,0.0,0.1
1446039812686601598,302,1446039812683525085,robocape,4.61648808537,2.25260073705,36.6906960913,0.0,10.0,0.0,0.0,0.0,10.0,0.0,0.0,0.0,10.0,0.00545948023466,0.0187752856851,0.0067910607797,1.0,0.0,0.0,0.0,1.0,0.0,0.0,0.0,1.0,0.0646655273438,-0.174836425781,10.0339343262,0.1,0.0,0.0,0.0,0.1,0.0,0.0,0.0,0.1
1446039812719948307,303,1446039812716886997,robocape,4.60979212791,2.28552899239,36.5959161223,0.0,10.0,0.0,0.0,0.0,10.0,0.0,0.0,0.0,10.0,0.00439421579863,0.0190416017941,0.00719053494321,1.0,0.0,0.0,0.0,1.0,0.0,0.0,0.0,1.0,0.0634680175781,-0.17244140625,10.024354248,0.1,0.0,0.0,0.0,0.1,0.0,0.0,0.0,0.1
1446039812753724848,304,1446039812750569105,robocape,4.60263773967,2.31908661181,36.5019856007,0.0,10.0,0.0,0.0,0.0,10.0,0.0,0.0,0.0,10.0,0.00412789968962,0.0194410759576,0.00732369299772,1.0,0.0,0.0,0.0,1.0,0.0,0.0,0.0,1.0,0.067060546875,-0.167651367188,10.0135766602,0.1,0.0,0.0,0.0,0.1,0.0,0.0,0.0,0.1
1446039812786710057,305,1446039812783426046,robocape,4.59527779647,2.35200877442,36.4088053564,0.0,10.0,0.0,0.0,0.0,10.0,0.0,0.0,0.0,10.0,0.00399474163512,0.0191747598486,0.00745685105222,1.0,0.0,0.0,0.0,1.0,0.0,0.0,0.0,1.0,0.0718505859375,-0.179626464844,10.0135766602,0.1,0.0,0.0,0.0,0.1,0.0,0.0,0.0,0.1
1446039812820181723,306,1446039812817009925,robocape,4.58866312414,2.38398082583,36.3142691366,0.0,10.0,0.0,0.0,0.0,10.0,0.0,0.0,0.0,10.0,0.00439421579863,0.0186421276306,0.00639158661619,1.0,0.0,0.0,0.0,1.0,0.0,0.0,0.0,1.0,0.0778381347656,-0.185614013672,10.0004040527,0.1,0.0,0.0,0.0,0.1,0.0,0.0,0.0,0.1
1446039812853602057,307,1446039812850380897,robocape,4.58313090395,2.41652511015,36.2212449417,0.0,10.0,0.0,0.0,0.0,10.0,0.0,0.0,0.0,10.0,0.00492684801665,0.0190416017941,0.00692421883421,1.0,0.0,0.0,0.0,1.0,0.0,0.0,0.0,1.0,0.0778381347656,-0.174836425781,10.0159716797,0.1,0.0,0.0,0.0,0.1,0.0,0.0,0.0,0.1
1446039812886559890,308,1446039812883260965,robocape,4.57966128514,2.44896722079,36.1287455706,0.0,10.0,0.0,0.0,0.0,10.0,0.0,0.0,0.0,10.0,0.00599211245268,0.0190416017941,0.00692421883421,1.0,0.0,0.0,0.0,1.0,0.0,0.0,0.0,1.0,0.067060546875,-0.179626464844,10.0291442871,0.1,0.0,0.0,0.0,0.1,0.0,0.0,0.0,0.1
1446039812920001640,309,1446039812916872024,robocape,4.57675107662,2.48124585001,36.0374670657,0.0,10.0,0.0,0.0,0.0,10.0,0.0,0.0,0.0,10.0,0.00625842856169,0.0190416017941,0.00732369299772,1.0,0.0,0.0,0.0,1.0,0.0,0.0,0.0,1.0,0.0634680175781,-0.180823974609,10.0255517578,0.1,0.0,0.0,0.0,0.1,0.0,0.0,0.0,0.1
1446039812953578057,310,1446039812950489997,robocape,4.57313308536,2.51336166906,35.9474130715,0.0,10.0,0.0,0.0,0.0,10.0,0.0,0.0,0.0,10.0,0.00585895439817,0.0190416017941,0.00772316716123,1.0,0.0,0.0,0.0,1.0,0.0,0.0,0.0,1.0,0.0790356445313,-0.166453857422,10.0111816406,0.1,0.0,0.0,0.0,0.1,0.0,0.0,0.0,0.1
1446039812986707973,311,1446039812983437061,robocape,4.56799638619,2.54546108791,35.856979322,0.0,10.0,0.0,0.0,0.0,10.0,0.0,0.0,0.0,10.0,0.00506000607115,0.0190416017941,0.00719053494321,1.0,0.0,0.0,0.0,1.0,0.0,0.0,0.0,1.0,0.067060546875,-0.182021484375,10.0051940918,0.1,0.0,0.0,0.0,0.1,0.0,0.0,0.0,0.1
1446039813019846682,312,1446039813016622066,robocape,4.56265017696,2.57769262756,35.7673158993,0.0,10.0,0.0,0.0,0.0,10.0,0.0,0.0,0.0,10.0,0.00492684801665,0.0191747598486,0.00732369299772,1.0,0.0,0.0,0.0,1.0,0.0,0.0,0.0,1.0,0.0610729980469,-0.173638916016,10.0231567383,0.1,0.0,0.0,0.0,0.1,0.0,0.0,0.0,0.1
1446039813053663432,313,1446039813050587892,robocape,4.55629571464,2.61041309721,35.6772949138,0.0,10.0,0.0,0.0,0.0,10.0,0.0,0.0,0.0,10.0,0.00439421579863,0.0194410759576,0.0067910607797,1.0,0.0,0.0,0.0,1.0,0.0,0.0,0.0,1.0,0.0718505859375,-0.178428955078,10.0207617188,0.1,0.0,0.0,0.0,0.1,0.0,0.0,0.0,0.1
1446039813086866265,314,1446039813083398103,robocape,4.55098432217,2.64305387593,35.5875492724,0.0,10.0,0.0,0.0,0.0,10.0,0.0,0.0,0.0,10.0,0.00492684801665,0.0194410759576,0.0066579027252,1.0,0.0,0.0,0.0,1.0,0.0,0.0,0.0,1.0,0.0634680175781,-0.190404052734,10.0435144043,0.1,0.0,0.0,0.0,0.1,0.0,0.0,0.0,0.1
1446039813120003432,315,1446039813116861104,robocape,4.54650749345,2.67422740135,35.4993673145,0.0,10.0,0.0,0.0,0.0,10.0,0.0,0.0,0.0,10.0,0.00532632218016,0.0187752856851,0.00732369299772,1.0,0.0,0.0,0.0,1.0,0.0,0.0,0.0,1.0,0.0718505859375,-0.186811523438,10.0231567383,0.1,0.0,0.0,0.0,0.1,0.0,0.0,0.0,0.1
1446039813153648849,316,1446039813150567054,robocape,4.54154147666,2.70560073542,35.4112494937,0.0,10.0,0.0,0.0,0.0,10.0,0.0,0.0,0.0,10.0,0.00506000607115,0.0189084437396,0.00705737688871,1.0,0.0,0.0,0.0,1.0,0.0,0.0,0.0,1.0,0.0622705078125,-0.180823974609,10.0207617188,0.1,0.0,0.0,0.0,0.1,0.0,0.0,0.0,0.1
1446039813186698974,317,1446039813183433055,robocape,4.53787620052,2.73662709585,35.3236013966,0.0,10.0,0.0,0.0,0.0,10.0,0.0,0.0,0.0,10.0,0.00572579634367,0.0187752856851,0.00705737688871,1.0,0.0,0.0,0.0,1.0,0.0,0.0,0.0,1.0,0.0658630371094,-0.178428955078,10.0063916016,0.1,0.0,0.0,0.0,0.1,0.0,0.0,0.0,0.1
1446039813219962182,318,1446039813216773033,robocape,4.53475779221,2.76779289828,35.2366905528,0.0,10.0,0.0,0.0,0.0,10.0,0.0,0.0,0.0,10.0,0.00599211245268,0.0189084437396,0.00719053494321,1.0,0.0,0.0,0.0,1.0,0.0,0.0,0.0,1.0,0.067060546875,-0.180823974609,10.0459094238,0.1,0.0,0.0,0.0,0.1,0.0,0.0,0.0,0.1
1446039813253496057,319,1446039813250251054,robocape,4.53140759929,2.79939271065,35.1500755215,0.0,10.0,0.0,0.0,0.0,10.0,0.0,0.0,0.0,10.0,0.00585895439817,0.0191747598486,0.00705737688871,1.0,0.0,0.0,0.0,1.0,0.0,0.0,0.0,1.0,0.0502954101563,-0.188009033203,10.0219592285,0.1,0.0,0.0,0.0,0.1,0.0,0.0,0.0,0.1
1446039813286741265,320,1446039813283437967,robocape,4.52658568154,2.83085701648,35.0644190678,0.0,10.0,0.0,0.0,0.0,10.0,0.0,0.0,0.0,10.0,0.00506000607115,0.0191747598486,0.00732369299772,1.0,0.0,0.0,0.0,1.0,0.0,0.0,0.0,1.0,0.0514929199219,-0.1916015625,10.0135766602,0.1,0.0,0.0,0.0,0.1,0.0,0.0,0.0,0.1
1446039813320196765,321,1446039813316931009,robocape,4.52026071121,2.86277485488,34.9788278657,0.0,10.0,0.0,0.0,0.0,10.0,0.0,0.0,0.0,10.0,0.00426105774413,0.0194410759576,0.00705737688871,1.0,0.0,0.0,0.0,1.0,0.0,0.0,0.0,1.0,0.0562829589844,-0.179626464844,9.99441650391,0.1,0.0,0.0,0.0,0.1,0.0,0.0,0.0,0.1
1446039813360045557,322,1446039813351257085,robocape,4.51548168826,2.89335586832,34.8933812167,0.0,10.0,0.0,0.0,0.0,10.0,0.0,0.0,0.0,10.0,0.00506000607115,0.0187752856851,0.00692421883421,1.0,0.0,0.0,0.0,1.0,0.0,0.0,0.0,1.0,0.0622705078125,-0.17244140625,10.0147741699,0.1,0.0,0.0,0.0,0.1,0.0,0.0,0.0,0.1
1446039813386761765,323,1446039813383270025,robocape,4.51123589238,2.9251318,34.8082589727,0.0,10.0,0.0,0.0,0.0,10.0,0.0,0.0,0.0,10.0,0.00532632218016,0.0194410759576,0.0067910607797,1.0,0.0,0.0,0.0,1.0,0.0,0.0,0.0,1.0,0.0490979003906,-0.184416503906,10.0135766602,0.1,0.0,0.0,0.0,0.1,0.0,0.0,0.0,0.1
1446039813420140515,324,1446039813416881084,robocape,4.5075461737,2.95601572546,34.7240107508,0.0,10.0,0.0,0.0,0.0,10.0,0.0,0.0,0.0,10.0,0.00559263828917,0.0190416017941,0.00705737688871,1.0,0.0,0.0,0.0,1.0,0.0,0.0,0.0,1.0,0.0598754882813,-0.186811523438,10.0231567383,0.1,0.0,0.0,0.0,0.1,0.0,0.0,0.0,0.1
1446039813453789849,325,1446039813450731039,robocape,4.50288545853,2.98780018246,34.640533891,0.0,10.0,0.0,0.0,0.0,10.0,0.0,0.0,0.0,10.0,0.00506000607115,0.0195742340121,0.00719053494321,1.0,0.0,0.0,0.0,1.0,0.0,0.0,0.0,1.0,0.0742456054688,-0.178428955078,10.0027990723,0.1,0.0,0.0,0.0,0.1,0.0,0.0,0.0,0.1
1446039813486719599,326,1446039813483426094,robocape,4.4999989378,3.01854547934,34.556737458,0.0,10.0,0.0,0.0,0.0,10.0,0.0,0.0,0.0,10.0,0.00599211245268,0.0190416017941,0.0067910607797,1.0,0.0,0.0,0.0,1.0,0.0,0.0,0.0,1.0,0.0658630371094,-0.170046386719,10.0016015625,0.1,0.0,0.0,0.0,0.1,0.0,0.0,0.0,0.1
1446039813519934224,327,1446039813516653060,robocape,4.49643173222,3.04960403235,34.4745936897,0.0,10.0,0.0,0.0,0.0,10.0,0.0,0.0,0.0,10.0,0.00559263828917,0.0193079179031,0.00745685105222,1.0,0.0,0.0,0.0,1.0,0.0,0.0,0.0,1.0,0.0706530761719,-0.177231445313,10.0183666992,0.1,0.0,0.0,0.0,0.1,0.0,0.0,0.0,0.1
1446039813553428307,328,1446039813550373077,robocape,4.49262087806,3.08061614439,34.3924369338,0.0,10.0,0.0,0.0,0.0,10.0,0.0,0.0,0.0,10.0,0.00545948023466,0.0193079179031,0.00719053494321,1.0,0.0,0.0,0.0,1.0,0.0,0.0,0.0,1.0,0.0778381347656,-0.178428955078,10.0327368164,0.1,0.0,0.0,0.0,0.1,0.0,0.0,0.0,0.1
1446039813586566474,329,1446039813583306074,robocape,4.4883334681,3.11128762504,34.3107124849,0.0,10.0,0.0,0.0,0.0,10.0,0.0,0.0,0.0,10.0,0.00519316412565,0.0191747598486,0.00719053494321,1.0,0.0,0.0,0.0,1.0,0.0,0.0,0.0,1.0,0.0598754882813,-0.183218994141,10.0267492676,0.1,0.0,0.0,0.0,0.1,0.0,0.0,0.0,0.1
1446039813620231349,330,1446039813616981983,robocape,4.48455364123,3.14218801161,34.2287483289,0.0,10.0,0.0,0.0,0.0,10.0,0.0,0.0,0.0,10.0,0.00545948023466,0.0193079179031,0.0067910607797,1.0,0.0,0.0,0.0,1.0,0.0,0.0,0.0,1.0,0.0706530761719,-0.171243896484,10.0255517578,0.1,0.0,0.0,0.0,0.1,0.0,0.0,0.0,0.1
1446039813653664974,331,1446039813650429964,robocape,4.48103605176,3.17304367308,34.1467600587,0.0,10.0,0.0,0.0,0.0,10.0,0.0,0.0,0.0,10.0,0.00559263828917,0.0193079179031,0.00652474467069,1.0,0.0,0.0,0.0,1.0,0.0,0.0,0.0,1.0,0.0694555664063,-0.17244140625,10.0495019531,0.1,0.0,0.0,0.0,0.1,0.0,0.0,0.0,0.1
1446039813686430140,332,1446039813683249950,robocape,4.47603873369,3.20379203738,34.0654550545,0.0,10.0,0.0,0.0,0.0,10.0,0.0,0.0,0.0,10.0,0.00479368996214,0.0193079179031,0.0066579027252,1.0,0.0,0.0,0.0,1.0,0.0,0.0,0.0,1.0,0.0562829589844,-0.182021484375,10.0183666992,0.1,0.0,0.0,0.0,0.1,0.0,0.0,0.0,0.1
1446039813720108516,333,1446039813716856956,robocape,4.47109691989,3.23466515985,33.9850637032,0.0,10.0,0.0,0.0,0.0,10.0,0.0,0.0,0.0,10.0,0.00479368996214,0.0194410759576,0.00692421883421,1.0,0.0,0.0,0.0,1.0,0.0,0.0,0.0,1.0,0.067060546875,-0.183218994141,10.0147741699,0.1,0.0,0.0,0.0,0.1,0.0,0.0,0.0,0.1
1446039813753889932,334,1446039813750488042,robocape,4.46692344874,3.26423082253,33.9045453213,0.0,10.0,0.0,0.0,0.0,10.0,0.0,0.0,0.0,10.0,0.00519316412565,0.0187752856851,0.0066579027252,1.0,0.0,0.0,0.0,1.0,0.0,0.0,0.0,1.0,0.076640625,-0.176033935547,10.0123791504,0.1,0.0,0.0,0.0,0.1,0.0,0.0,0.0,0.1
1446039813786304641,335,1446039813783226966,robocape,4.46303680006,3.29472569052,33.824519623,0.0,10.0,0.0,0.0,0.0,10.0,0.0,0.0,0.0,10.0,0.00532632218016,0.0193079179031,0.0066579027252,1.0,0.0,0.0,0.0,1.0,0.0,0.0,0.0,1.0,0.067060546875,-0.17244140625,10.0219592285,0.1,0.0,0.0,0.0,0.1,0.0,0.0,0.0,0.1
1446039813820168141,336,1446039813816849946,robocape,4.45921403211,3.32507413078,33.7456121683,0.0,10.0,0.0,0.0,0.0,10.0,0.0,0.0,0.0,10.0,0.00532632218016,0.0193079179031,0.00705737688871,1.0,0.0,0.0,0.0,1.0,0.0,0.0,0.0,1.0,0.0526904296875,-0.192799072266,10.0016015625,0.1,0.0,0.0,0.0,0.1,0.0,0.0,0.0,0.1
1446039813853866016,337,1446039813850459098,robocape,4.45471841559,3.35523491447,33.6682863105,0.0,10.0,0.0,0.0,0.0,10.0,0.0,0.0,0.0,10.0,0.00492684801665,0.0193079179031,0.00772316716123,1.0,0.0,0.0,0.0,1.0,0.0,0.0,0.0,1.0,0.0610729980469,-0.179626464844,10.0315393066,0.1,0.0,0.0,0.0,0.1,0.0,0.0,0.0,0.1
1446039813886377266,338,1446039813883258104,robocape,4.45022107586,3.38588148059,33.5907037697,0.0,10.0,0.0,0.0,0.0,10.0,0.0,0.0,0.0,10.0,0.00492684801665,0.0195742340121,0.00732369299772,1.0,0.0,0.0,0.0,1.0,0.0,0.0,0.0,1.0,0.0634680175781,-0.185614013672,10.0363293457,0.1,0.0,0.0,0.0,0.1,0.0,0.0,0.0,0.1
1446039813920415641,339,1446039813917107105,robocape,4.44615642082,3.41663313794,33.5114327945,0.0,10.0,0.0,0.0,0.0,10.0,0.0,0.0,0.0,10.0,0.00519316412565,0.0195742340121,0.00612527050718,1.0,0.0,0.0,0.0,1.0,0.0,0.0,0.0,1.0,0.0622705078125,-0.176033935547,10.0327368164,0.1,0.0,0.0,0.0,0.1,0.0,0.0,0.0,0.1
1446039813953861099,340,1446039813950426101,robocape,4.44173010348,3.44557636219,33.4348005563,0.0,10.0,0.0,0.0,0.0,10.0,0.0,0.0,0.0,10.0,0.00492684801665,0.0187752856851,0.00745685105222,1.0,0.0,0.0,0.0,1.0,0.0,0.0,0.0,1.0,0.0694555664063,-0.170046386719,10.039921875,0.1,0.0,0.0,0.0,0.1,0.0,0.0,0.0,0.1
1446039813986575932,341,1446039813983489036,robocape,4.43836149654,3.47467354203,33.3588079578,0.0,10.0,0.0,0.0,0.0,10.0,0.0,0.0,0.0,10.0,0.00545948023466,0.0189084437396,0.00759000910673,1.0,0.0,0.0,0.0,1.0,0.0,0.0,0.0,1.0,0.0550854492188,-0.179626464844,10.019564209,0.1,0.0,0.0,0.0,0.1,0.0,0.0,0.0,0.1
1446039814020084182,342,1446039814016696929,robocape,4.43498775029,3.50476669225,33.2825788581,0.0,10.0,0.0,0.0,0.0,10.0,0.0,0.0,0.0,10.0,0.00545948023466,0.0194410759576,0.00719053494321,1.0,0.0,0.0,0.0,1.0,0.0,0.0,0.0,1.0,0.0718505859375,-0.180823974609,10.0626745605,0.1,0.0,0.0,0.0,0.1,0.0,0.0,0.0,0.1
1446039814053631057,343,1446039814050446033,robocape,4.43112448959,3.53530617431,33.206547835,0.0,10.0,0.0,0.0,0.0,10.0,0.0,0.0,0.0,10.0,0.00519316412565,0.0197073920666,0.00705737688871,1.0,0.0,0.0,0.0,1.0,0.0,0.0,0.0,1.0,0.05748046875,-0.170046386719,10.0207617188,0.1,0.0,0.0,0.0,0.1,0.0,0.0,0.0,0.1
1446039814086279682,344,1446039814083209037,robocape,4.42859233787,3.56494397122,33.131545502,0.0,10.0,0.0,0.0,0.0,10.0,0.0,0.0,0.0,10.0,0.00585895439817,0.0193079179031,0.00745685105222,1.0,0.0,0.0,0.0,1.0,0.0,0.0,0.0,1.0,0.0622705078125,-0.177231445313,10.0183666992,0.1,0.0,0.0,0.0,0.1,0.0,0.0,0.0,0.1
1446039814120374266,345,1446039814117016077,robocape,4.42579710358,3.5953249519,33.0562815459,0.0,10.0,0.0,0.0,0.0,10.0,0.0,0.0,0.0,10.0,0.00572579634367,0.0197073920666,0.00705737688871,1.0,0.0,0.0,0.0,1.0,0.0,0.0,0.0,1.0,0.0778381347656,-0.165256347656,10.0183666992,0.1,0.0,0.0,0.0,0.1,0.0,0.0,0.0,0.1
1446039814154204391,346,1446039814150957107,robocape,4.42251963955,3.62486842519,32.9813559161,0.0,10.0,0.0,0.0,0.0,10.0,0.0,0.0,0.0,10.0,0.00545948023466,0.0193079179031,0.00705737688871,1.0,0.0,0.0,0.0,1.0,0.0,0.0,0.0,1.0,0.067060546875,-0.170046386719,10.0171691895,0.1,0.0,0.0,0.0,0.1,0.0,0.0,0.0,0.1
1446039814186254724,347,1446039814183238983,robocape,4.41848266791,3.65361860218,32.9063018279,0.0,10.0,0.0,0.0,0.0,10.0,0.0,0.0,0.0,10.0,0.00506000607115,0.0189084437396,0.0067910607797,1.0,0.0,0.0,0.0,1.0,0.0,0.0,0.0,1.0,0.067060546875,-0.17244140625,10.0423168945,0.1,0.0,0.0,0.0,0.1,0.0,0.0,0.0,0.1
1446039814220232682,348,1446039814216768980,robocape,4.41402454432,3.68372603073,32.8326644476,0.0,10.0,0.0,0.0,0.0,10.0,0.0,0.0,0.0,10.0,0.00479368996214,0.0197073920666,0.00732369299772,1.0,0.0,0.0,0.0,1.0,0.0,0.0,0.0,1.0,0.067060546875,-0.183218994141,10.019564209,0.1,0.0,0.0,0.0,0.1,0.0,0.0,0.0,0.1
1446039814254145974,349,1446039814250812053,robocape,4.41110188743,3.71301793819,32.7591043951,0.0,10.0,0.0,0.0,0.0,10.0,0.0,0.0,0.0,10.0,0.00559263828917,0.0193079179031,0.00719053494321,1.0,0.0,0.0,0.0,1.0,0.0,0.0,0.0,1.0,0.0694555664063,-0.167651367188,10.0135766602,0.1,0.0,0.0,0.0,0.1,0.0,0.0,0.0,0.1
1446039814286240807,350,1446039814283229112,robocape,4.40692490587,3.74175001225,32.6856586141,0.0,10.0,0.0,0.0,0.0,10.0,0.0,0.0,0.0,10.0,0.00492684801665,0.0190416017941,0.00705737688871,1.0,0.0,0.0,0.0,1.0,0.0,0.0,0.0,1.0,0.0646655273438,-0.176033935547,10.0219592285,0.1,0.0,0.0,0.0,0.1,0.0,0.0,0.0,0.1
1446039814320253641,351,1446039814316701889,robocape,4.40303207615,3.77066064692,32.6125964268,0.0,10.0,0.0,0.0,0.0,10.0,0.0,0.0,0.0,10.0,0.00506000607115,0.0191747598486,0.00705737688871,1.0,0.0,0.0,0.0,1.0,0.0,0.0,0.0,1.0,0.0706530761719,-0.188009033203,10.0303417969,0.1,0.0,0.0,0.0,0.1,0.0,0.0,0.0,0.1
1446039814360644307,352,1446039814350277900,robocape,4.3988901103,3.80029698312,32.5394843745,0.0,10.0,0.0,0.0,0.0,10.0,0.0,0.0,0.0,10.0,0.00492684801665,0.0195742340121,0.0067910607797,1.0,0.0,0.0,0.0,1.0,0.0,0.0,0.0,1.0,0.0610729980469,-0.176033935547,10.0159716797,0.1,0.0,0.0,0.0,0.1,0.0,0.0,0.0,0.1
1446039814386461391,353,1446039814383269071,robocape,4.39612512191,3.82947912232,32.4681122658,0.0,10.0,0.0,0.0,0.0,10.0,0.0,0.0,0.0,10.0,0.00559263828917,0.0194410759576,0.00759000910673,1.0,0.0,0.0,0.0,1.0,0.0,0.0,0.0,1.0,0.0658630371094,-0.178428955078,10.0171691895,0.1,0.0,0.0,0.0,0.1,0.0,0.0,0.0,0.1
1446039814420220433,354,1446039814416663885,robocape,4.39309221847,3.85890286583,32.3964127146,0.0,10.0,0.0,0.0,0.0,10.0,0.0,0.0,0.0,10.0,0.00545948023466,0.0195742340121,0.00719053494321,1.0,0.0,0.0,0.0,1.0,0.0,0.0,0.0,1.0,0.0682580566406,-0.177231445313,10.0231567383,0.1,0.0,0.0,0.0,0.1,0.0,0.0,0.0,0.1
1446039814453871474,355,1446039814450469017,robocape,4.38928344328,3.88806245085,32.3243564281,0.0,10.0,0.0,0.0,0.0,10.0,0.0,0.0,0.0,10.0,0.00506000607115,0.0194410759576,0.0067910607797,1.0,0.0,0.0,0.0,1.0,0.0,0.0,0.0,1.0,0.0598754882813,-0.188009033203,10.0075891113,0.1,0.0,0.0,0.0,0.1,0.0,0.0,0.0,0.1
1446039814486362891,356,1446039814483284950,robocape,4.38560182205,3.91725439111,32.2543094776,0.0,10.0,0.0,0.0,0.0,10.0,0.0,0.0,0.0,10.0,0.00506000607115,0.0195742340121,0.00772316716123,1.0,0.0,0.0,0.0,1.0,0.0,0.0,0.0,1.0,0.0622705078125,-0.186811523438,10.0291442871,0.1,0.0,0.0,0.0,0.1,0.0,0.0,0.0,0.1
1446039814520204766,357,1446039814516680002,robocape,4.38190986074,3.94795161115,32.1840036791,0.0,10.0,0.0,0.0,0.0,10.0,0.0,0.0,0.0,10.0,0.00506000607115,0.0203731823391,0.00732369299772,1.0,0.0,0.0,0.0,1.0,0.0,0.0,0.0,1.0,0.067060546875,-0.180823974609,10.0183666992,0.1,0.0,0.0,0.0,0.1,0.0,0.0,0.0,0.1
1446039814553686058,358,1446039814550585031,robocape,4.37767250948,3.9753708933,32.1128971676,0.0,10.0,0.0,0.0,0.0,10.0,0.0,0.0,0.0,10.0,0.00479368996214,0.0186421276306,0.0067910607797,1.0,0.0,0.0,0.0,1.0,0.0,0.0,0.0,1.0,0.0826281738281,-0.176033935547,10.0231567383,0.1,0.0,0.0,0.0,0.1,0.0,0.0,0.0,0.1
1446039814586416224,359,1446039814583368062,robocape,4.37398570668,4.00244813267,32.042353184,0.0,10.0,0.0,0.0,0.0,10.0,0.0,0.0,0.0,10.0,0.00506000607115,0.0185089695761,0.00692421883421,1.0,0.0,0.0,0.0,1.0,0.0,0.0,0.0,1.0,0.0658630371094,-0.193996582031,10.0518969727,0.1,0.0,0.0,0.0,0.1,0.0,0.0,0.0,0.1
1446039814620394849,360,1446039814616897106,robocape,4.37107521611,4.03023721582,31.9719630939,0.0,10.0,0.0,0.0,0.0,10.0,0.0,0.0,0.0,10.0,0.00545948023466,0.0189084437396,0.0067910607797,1.0,0.0,0.0,0.0,1.0,0.0,0.0,0.0,1.0,0.0754431152344,-0.185614013672,10.0255517578,0.1,0.0,0.0,0.0,0.1,0.0,0.0,0.0,0.1
1446039814653648058,361,1446039814650116920,robocape,4.3681902964,4.05770532338,31.9018994885,0.0,10.0,0.0,0.0,0.0,10.0,0.0,0.0,0.0,10.0,0.00545948023466,0.0187752856851,0.0067910607797,1.0,0.0,0.0,0.0,1.0,0.0,0.0,0.0,1.0,0.067060546875,-0.182021484375,10.0387243652,0.1,0.0,0.0,0.0,0.1,0.0,0.0,0.0,0.1
1446039814686381183,362,1446039814683357954,robocape,4.36561665603,4.08582224009,31.8326918845,0.0,10.0,0.0,0.0,0.0,10.0,0.0,0.0,0.0,10.0,0.00559263828917,0.0191747598486,0.00705737688871,1.0,0.0,0.0,0.0,1.0,0.0,0.0,0.0,1.0,0.0598754882813,-0.185614013672,10.0231567383,0.1,0.0,0.0,0.0,0.1,0.0,0.0,0.0,0.1
1446039814723479433,363,1446039814720386028,robocape,4.36283962935,4.11206011572,31.7641764144,0.0,10.0,0.0,0.0,0.0,10.0,0.0,0.0,0.0,10.0,0.00545948023466,0.018242653467,0.00732369299772,1.0,0.0,0.0,0.0,1.0,0.0,0.0,0.0,1.0,0.0778381347656,-0.185614013672,10.0183666992,0.1,0.0,0.0,0.0,0.1,0.0,0.0,0.0,0.1
1446039814753659683,364,1446039814749998092,robocape,4.3598249385,4.13977125855,31.6958566995,0.0,10.0,0.0,0.0,0.0,10.0,0.0,0.0,0.0,10.0,0.00532632218016,0.0190416017941,0.00719053494321,1.0,0.0,0.0,0.0,1.0,0.0,0.0,0.0,1.0,0.0634680175781,-0.168848876953,10.019564209,0.1,0.0,0.0,0.0,0.1,0.0,0.0,0.0,0.1
1446039814786435974,365,1446039814783370018,robocape,4.35679378683,4.16848856111,31.627226004,0.0,10.0,0.0,0.0,0.0,10.0,0.0,0.0,0.0,10.0,0.00532632218016,0.0195742340121,0.0067910607797,1.0,0.0,0.0,0.0,1.0,0.0,0.0,0.0,1.0,0.0550854492188,-0.162861328125,10.0267492676,0.1,0.0,0.0,0.0,0.1,0.0,0.0,0.0,0.1
1446039814820541391,366,1446039814816867113,robocape,4.35254990442,4.19633647781,31.559353593,0.0,10.0,0.0,0.0,0.0,10.0,0.0,0.0,0.0,10.0,0.00466053190764,0.0191747598486,0.00705737688871,1.0,0.0,0.0,0.0,1.0,0.0,0.0,0.0,1.0,0.067060546875,-0.186811523438,10.0542919922,0.1,0.0,0.0,0.0,0.1,0.0,0.0,0.0,0.1
1446039814853904308,367,1446039814850183963,robocape,4.34904809773,4.22392688891,31.4910786973,0.0,10.0,0.0,0.0,0.0,10.0,0.0,0.0,0.0,10.0,0.00506000607115,0.0190416017941,0.0066579027252,1.0,0.0,0.0,0.0,1.0,0.0,0.0,0.0,1.0,0.0634680175781,-0.173638916016,10.0267492676,0.1,0.0,0.0,0.0,0.1,0.0,0.0,0.0,0.1
1446039814886480099,368,1446039814883366107,robocape,4.34561937672,4.25113539437,31.4238174601,0.0,10.0,0.0,0.0,0.0,10.0,0.0,0.0,0.0,10.0,0.00506000607115,0.0189084437396,0.00705737688871,1.0,0.0,0.0,0.0,1.0,0.0,0.0,0.0,1.0,0.0562829589844,-0.1916015625,10.0291442871,0.1,0.0,0.0,0.0,0.1,0.0,0.0,0.0,0.1
1446039814920304558,369,1446039814916817903,robocape,4.34347177547,4.2793100532,31.3566959684,0.0,10.0,0.0,0.0,0.0,10.0,0.0,0.0,0.0,10.0,0.00572579634367,0.0194410759576,0.00692421883421,1.0,0.0,0.0,0.0,1.0,0.0,0.0,0.0,1.0,0.0718505859375,-0.174836425781,10.0183666992,0.1,0.0,0.0,0.0,0.1,0.0,0.0,0.0,0.1
1446039814954241641,370,1446039814950251102,robocape,4.34109326575,4.30716513456,31.2898775805,0.0,10.0,0.0,0.0,0.0,10.0,0.0,0.0,0.0,10.0,0.00559263828917,0.0193079179031,0.00692421883421,1.0,0.0,0.0,0.0,1.0,0.0,0.0,0.0,1.0,0.0694555664063,-0.182021484375,10.0207617188,0.1,0.0,0.0,0.0,0.1,0.0,0.0,0.0,0.1
1446039814986530266,371,1446039814983412027,robocape,4.33819849467,4.33449092249,31.2228751416,0.0,10.0,0.0,0.0,0.0,10.0,0.0,0.0,0.0,10.0,0.00532632218016,0.0190416017941,0.0066579027252,1.0,0.0,0.0,0.0,1.0,0.0,0.0,0.0,1.0,0.0694555664063,-0.166453857422,10.039921875,0.1,0.0,0.0,0.0,0.1,0.0,0.0,0.0,0.1
1446039815020103266,372,1446039815016768932,robocape,4.33536421789,4.362720693,31.1567224867,0.0,10.0,0.0,0.0,0.0,10.0,0.0,0.0,0.0,10.0,0.00532632218016,0.0195742340121,0.00692421883421,1.0,0.0,0.0,0.0,1.0,0.0,0.0,0.0,1.0,0.0598754882813,-0.178428955078,10.0087866211,0.1,0.0,0.0,0.0,0.1,0.0,0.0,0.0,0.1
1446039815057709849,373,1446039815054478883,robocape,4.33268266423,4.39021070671,31.0927307904,0.0,10.0,0.0,0.0,0.0,10.0,0.0,0.0,0.0,10.0,0.00532632218016,0.0193079179031,0.00798948327024,1.0,0.0,0.0,0.0,1.0,0.0,0.0,0.0,1.0,0.0550854492188,-0.186811523438,10.0147741699,0.1,0.0,0.0,0.0,0.1,0.0,0.0,0.0,0.1
1446039815086444683,374,1446039815083405017,robocape,4.32970783426,4.41797246479,31.0281139888,0.0,10.0,0.0,0.0,0.0,10.0,0.0,0.0,0.0,10.0,0.00519316412565,0.0194410759576,0.00745685105222,1.0,0.0,0.0,0.0,1.0,0.0,0.0,0.0,1.0,0.0634680175781,-0.173638916016,10.0339343262,0.1,0.0,0.0,0.0,0.1,0.0,0.0,0.0,0.1
1446039815120094516,375,1446039815116931915,robocape,4.32655176322,4.44484819062,30.9644585907,0.0,10.0,0.0,0.0,0.0,10.0,0.0,0.0,0.0,10.0,0.00506000607115,0.0190416017941,0.00785632521573,1.0,0.0,0.0,0.0,1.0,0.0,0.0,0.0,1.0,0.0598754882813,-0.184416503906,10.0027990723,0.1,0.0,0.0,0.0,0.1,0.0,0.0,0.0,0.1
1446039815153973850,376,1446039815150429964,robocape,4.32310348695,4.4722501107,30.9001900321,0.0,10.0,0.0,0.0,0.0,10.0,0.0,0.0,0.0,10.0,0.00492684801665,0.0193079179031,0.00732369299772,1.0,0.0,0.0,0.0,1.0,0.0,0.0,0.0,1.0,0.0634680175781,-0.193996582031,10.0339343262,0.1,0.0,0.0,0.0,0.1,0.0,0.0,0.0,0.1
1446039815186354141,377,1446039815183306932,robocape,4.31846475917,4.49952520986,30.8369346093,0.0,10.0,0.0,0.0,0.0,10.0,0.0,0.0,0.0,10.0,0.00426105774413,0.0193079179031,0.00772316716123,1.0,0.0,0.0,0.0,1.0,0.0,0.0,0.0,1.0,0.0706530761719,-0.174836425781,10.0027990723,0.1,0.0,0.0,0.0,0.1,0.0,0.0,0.0,0.1
1446039815219846016,378,1446039815216726064,robocape,4.31439568968,4.52669417924,30.7744390074,0.0,10.0,0.0,0.0,0.0,10.0,0.0,0.0,0.0,10.0,0.00452737385313,0.0193079179031,0.00798948327024,1.0,0.0,0.0,0.0,1.0,0.0,0.0,0.0,1.0,0.0682580566406,-0.185614013672,10.0267492676,0.1,0.0,0.0,0.0,0.1,0.0,0.0,0.0,0.1
1446039815253184850,379,1446039815250024080,robocape,4.31143546384,4.55428258651,30.7096430579,0.0,10.0,0.0,0.0,0.0,10.0,0.0,0.0,0.0,10.0,0.00519316412565,0.0194410759576,0.00652474467069,1.0,0.0,0.0,0.0,1.0,0.0,0.0,0.0,1.0,0.0694555664063,-0.179626464844,10.024354248,0.1,0.0,0.0,0.0,0.1,0.0,0.0,0.0,0.1
1446039815286355350,380,1446039815283308029,robocape,4.30839941278,4.58136611987,30.6472538961,0.0,10.0,0.0,0.0,0.0,10.0,0.0,0.0,0.0,10.0,0.00506000607115,0.0193079179031,0.00772316716123,1.0,0.0,0.0,0.0,1.0,0.0,0.0,0.0,1.0,0.0742456054688,-0.177231445313,10.0423168945,0.1,0.0,0.0,0.0,0.1,0.0,0.0,0.0,0.1
1446039815320049516,381,1446039815316888093,robocape,4.30662161299,4.608681448,30.5846854774,0.0,10.0,0.0,0.0,0.0,10.0,0.0,0.0,0.0,10.0,0.00572579634367,0.0194410759576,0.00745685105222,1.0,0.0,0.0,0.0,1.0,0.0,0.0,0.0,1.0,0.0694555664063,-0.178428955078,10.0315393066,0.1,0.0,0.0,0.0,0.1,0.0,0.0,0.0,0.1
1446039815362950308,382,1446039815350089073,robocape,4.30425382324,4.63580769724,30.5209730963,0.0,10.0,0.0,0.0,0.0,10.0,0.0,0.0,0.0,10.0,0.00545948023466,0.0193079179031,0.0066579027252,1.0,0.0,0.0,0.0,1.0,0.0,0.0,0.0,1.0,0.0718505859375,-0.179626464844,10.0219592285,0.1,0.0,0.0,0.0,0.1,0.0,0.0,0.0,0.1
1446039815387162975,383,1446039815384095907,robocape,4.3016914406,4.66308291887,30.4580403422,0.0,10.0,0.0,0.0,0.0,10.0,0.0,0.0,0.0,10.0,0.00532632218016,0.0194410759576,0.00692421883421,1.0,0.0,0.0,0.0,1.0,0.0,0.0,0.0,1.0,0.0682580566406,-0.180823974609,10.0087866211,0.1,0.0,0.0,0.0,0.1,0.0,0.0,0.0,0.1
1446039815420883683,384,1446039815416774034,robocape,4.29896942054,4.69021222927,30.3963397177,0.0,10.0,0.0,0.0,0.0,10.0,0.0,0.0,0.0,10.0,0.00519316412565,0.0194410759576,0.00745685105222,1.0,0.0,0.0,0.0,1.0,0.0,0.0,0.0,1.0,0.0610729980469,-0.1916015625,10.0123791504,0.1,0.0,0.0,0.0,0.1,0.0,0.0,0.0,0.1
1446039815453450516,385,1446039815450032949,robocape,4.29670122541,4.71559545212,30.3338585581,0.0,10.0,0.0,0.0,0.0,10.0,0.0,0.0,0.0,10.0,0.00545948023466,0.0185089695761,0.00692421883421,1.0,0.0,0.0,0.0,1.0,0.0,0.0,0.0,1.0,0.0730480957031,-0.193996582031,10.0363293457,0.1,0.0,0.0,0.0,0.1,0.0,0.0,0.0,0.1
1446039815486473141,386,1446039815483365058,robocape,4.29396662052,4.74064842306,30.2718839059,0.0,10.0,0.0,0.0,0.0,10.0,0.0,0.0,0.0,10.0,0.00519316412565,0.0183758115215,0.00705737688871,1.0,0.0,0.0,0.0,1.0,0.0,0.0,0.0,1.0,0.0658630371094,-0.182021484375,10.0303417969,0.1,0.0,0.0,0.0,0.1,0.0,0.0,0.0,0.1
1446039815519836183,387,1446039815516724109,robocape,4.29223678023,4.76644486414,30.2097561859,0.0,10.0,0.0,0.0,0.0,10.0,0.0,0.0,0.0,10.0,0.00572579634367,0.0187752856851,0.0067910607797,1.0,0.0,0.0,0.0,1.0,0.0,0.0,0.0,1.0,0.0694555664063,-0.171243896484,10.0279467773,0.1,0.0,0.0,0.0,0.1,0.0,0.0,0.0,0.1
1446039815553354100,388,1446039815550184011,robocape,4.28926506833,4.7931946344,30.1479785433,0.0,10.0,0.0,0.0,0.0,10.0,0.0,0.0,0.0,10.0,0.00506000607115,0.0193079179031,0.0067910607797,1.0,0.0,0.0,0.0,1.0,0.0,0.0,0.0,1.0,0.0742456054688,-0.174836425781,10.0303417969,0.1,0.0,0.0,0.0,0.1,0.0,0.0,0.0,0.1
1446039815586302808,389,1446039815583221912,robocape,4.28789154613,4.81956848735,30.0871614608,0.0,10.0,0.0,0.0,0.0,10.0,0.0,0.0,0.0,10.0,0.00585895439817,0.0191747598486,0.00719053494321,1.0,0.0,0.0,0.0,1.0,0.0,0.0,0.0,1.0,0.0526904296875,-0.180823974609,10.0231567383,0.1,0.0,0.0,0.0,0.1,0.0,0.0,0.0,0.1
