%time,field.header.seq,field.header.stamp,field.header.frame_id,field.orientation.x,field.orientation.y,field.orientation.z,field.orientation.w,field.orientation_covariance0,field.orientation_covariance1,field.orientation_covariance2,field.orientation_covariance3,field.orientation_covariance4,field.orientation_covariance5,field.orientation_covariance6,field.orientation_covariance7,field.orientation_covariance8,field.angular_velocity.x,field.angular_velocity.y,field.angular_velocity.z,field.angular_velocity_covariance0,field.angular_velocity_covariance1,field.angular_velocity_covariance2,field.angular_velocity_covariance3,field.angular_velocity_covariance4,field.angular_velocity_covariance5,field.angular_velocity_covariance6,field.angular_velocity_covariance7,field.angular_velocity_covariance8,field.linear_acceleration.x,field.linear_acceleration.y,field.linear_acceleration.z,field.linear_acceleration_covariance0,field.linear_acceleration_covariance1,field.linear_acceleration_covariance2,field.linear_acceleration_covariance3,field.linear_acceleration_covariance4,field.linear_acceleration_covariance5,field.linear_acceleration_covariance6,field.linear_acceleration_covariance7,field.linear_acceleration_covariance8
1446040348240361687,1,1446040348237334012,robocape,-9.7470686904,2.65752692771,-45.8824810021,0.0,10.0,0.0,0.0,0.0,10.0,0.0,0.0,0.0,10.0,-0.520914309219,-0.0498011123845,-1.2962936606,1.0,0.0,0.0,0.0,1.0,0.0,0.0,0.0,1.0,0.150886230469,1.65974853516,10.0974023437,0.1,0.0,0.0,0.0,0.1,0.0,0.0,0.0,0.1
1446040348273876645,2,1446040348270473957,robocape,-11.1281275474,2.04187348222,-47.9218083223,0.0,10.0,0.0,0.0,0.0,10.0,0.0,0.0,0.0,10.0,-0.701210315018,-0.109322762748,-1.21852935677,1.0,0.0,0.0,0.0,1.0,0.0,0.0,0.0,1.0,1.20828735352,1.44778930664,10.075847168,0.1,0.0,0.0,0.0,0.1,0.0,0.0,0.0,0.1
1446040348306805479,3,1446040348303797006,robocape,-12.7273761875,1.69654614908,-49.581785582,0.0,10.0,0.0,0.0,0.0,10.0,0.0,0.0,0.0,10.0,-0.828376257069,0.0141147537774,-0.973252220369,1.0,0.0,0.0,0.0,1.0,0.0,0.0,0.0,1.0,1.21547241211,1.51963989258,9.62079345703,0.1,0.0,0.0,0.0,0.1,0.0,0.0,0.0,0.1
1446040348340419729,4,1446040348337474107,robocape,-13.7671072838,1.47304052921,-51.2410275464,0.0,10.0,0.0,0.0,0.0,10.0,0.0,0.0,0.0,10.0,-0.539290120741,0.0964064314609,-0.951414299431,1.0,0.0,0.0,0.0,1.0,0.0,0.0,0.0,1.0,1.4908996582,-2.43333984375,9.71539672852,0.1,0.0,0.0,0.0,0.1,0.0,0.0,0.0,0.1
1446040348373506354,5,1446040348370609998,robocape,-14.5141985122,1.35642412921,-52.6492441871,0.0,10.0,0.0,0.0,0.0,10.0,0.0,0.0,0.0,10.0,-0.383628355026,0.127299100106,-0.772982506395,1.0,0.0,0.0,0.0,1.0,0.0,0.0,0.0,1.0,1.09572143555,-0.649050292969,9.52738769531,0.1,0.0,0.0,0.0,0.1,0.0,0.0,0.0,0.1
1446040348406796020,6,1446040348403913021,robocape,-15.0722524703,1.20968992523,-53.6114663145,0.0,10.0,0.0,0.0,0.0,10.0,0.0,0.0,0.0,10.0,-0.276036646987,0.0513990090385,-0.48722532143,1.0,0.0,0.0,0.0,1.0,0.0,0.0,0.0,1.0,0.581989746094,0.403560791016,9.37290893555,0.1,0.0,0.0,0.0,0.1,0.0,0.0,0.0,0.1
1446040348440433229,7,1446040348437371969,robocape,-15.6969246911,0.840983305629,-54.2581439064,0.0,10.0,0.0,0.0,0.0,10.0,0.0,0.0,0.0,10.0,-0.30599720925,-0.104928546949,-0.319712488864,1.0,0.0,0.0,0.0,1.0,0.0,0.0,0.0,1.0,0.17244140625,0.643062744141,8.89869506836,0.1,0.0,0.0,0.0,0.1,0.0,0.0,0.0,0.1
1446040348473671729,8,1446040348470704078,robocape,-16.3751954822,0.326655162811,-54.6961816775,0.0,10.0,0.0,0.0,0.0,10.0,0.0,0.0,0.0,10.0,-0.330098817115,-0.207593406972,-0.211055516389,1.0,0.0,0.0,0.0,1.0,0.0,0.0,0.0,1.0,0.112565917969,-0.1149609375,8.62925537109,0.1,0.0,0.0,0.0,0.1,0.0,0.0,0.0,0.1
1446040348506720229,9,1446040348503803014,robocape,-16.8430205947,-0.475833724614,-54.9591797307,0.0,10.0,0.0,0.0,0.0,10.0,0.0,0.0,0.0,10.0,-0.213718677479,-0.378568348955,-0.140348589447,1.0,0.0,0.0,0.0,1.0,0.0,0.0,0.0,1.0,0.246687011719,-0.738863525391,8.4340612793,0.1,0.0,0.0,0.0,0.1,0.0,0.0,0.0,0.1
1446040348540677479,10,1446040348537357091,robocape,-16.6323871316,-1.66211151563,-55.1135386933,0.0,10.0,0.0,0.0,0.0,10.0,0.0,0.0,0.0,10.0,0.150468601589,-0.589357549235,-0.10879013053,1.0,0.0,0.0,0.0,1.0,0.0,0.0,0.0,1.0,0.170046386719,-1.48730712891,8.12989379883,0.1,0.0,0.0,0.0,0.1,0.0,0.0,0.0,0.1
1446040348573515521,11,1446040348570579051,robocape,-15.6138662941,-3.46070193879,-55.1298551285,0.0,10.0,0.0,0.0,0.0,10.0,0.0,0.0,0.0,10.0,0.584430701218,-0.919056892186,-0.0818922035199,1.0,0.0,0.0,0.0,1.0,0.0,0.0,0.0,1.0,-0.180823974609,-1.79626464844,8.01493286133,0.1,0.0,0.0,0.0,0.1,0.0,0.0,0.0,0.1
1446040348606737521,12,1446040348603843927,robocape,-14.2569623985,-5.89020504784,-54.804971205,0.0,10.0,0.0,0.0,0.0,10.0,0.0,0.0,0.0,10.0,0.785898837682,-1.28191259071,0.0669785014155,1.0,0.0,0.0,0.0,1.0,0.0,0.0,0.0,1.0,0.0,-0.353265380859,8.1969543457,0.1,0.0,0.0,0.0,0.1,0.0,0.0,0.0,0.1
1446040348640609521,13,1446040348637384891,robocape,-12.8278560607,-8.27967644202,-54.0755529697,0.0,10.0,0.0,0.0,0.0,10.0,0.0,0.0,0.0,10.0,0.869655253965,-1.3009541925,0.356064637744,1.0,0.0,0.0,0.0,1.0,0.0,0.0,0.0,1.0,1.72680908203,-1.12925170898,8.94779296875,0.1,0.0,0.0,0.0,0.1,0.0,0.0,0.0,0.1
1446040348673640187,14,1446040348670629978,robocape,-11.4243780351,-9.99162115876,-52.9089625769,0.0,10.0,0.0,0.0,0.0,10.0,0.0,0.0,0.0,10.0,0.922652159658,-0.982040651967,0.744087208568,1.0,0.0,0.0,0.0,1.0,0.0,0.0,0.0,1.0,2.9853918457,-0.67060546875,9.06514892578,0.1,0.0,0.0,0.0,0.1,0.0,0.0,0.0,0.1
1446040348706713479,15,1446040348703763008,robocape,-9.90995005222,-10.8222342888,-51.5901504046,0.0,10.0,0.0,0.0,0.0,10.0,0.0,0.0,0.0,10.0,1.01386542699,-0.518117990075,0.959004308538,1.0,0.0,0.0,0.0,1.0,0.0,0.0,0.0,1.0,3.10274780273,-0.547261962891,8.55381225586,0.1,0.0,0.0,0.0,0.1,0.0,0.0,0.0,0.1
1446040348740559687,16,1446040348737385034,robocape,-8.67312079183,-10.9924582822,-50.2510237614,0.0,10.0,0.0,0.0,0.0,10.0,0.0,0.0,0.0,10.0,0.869522095911,-0.157259662369,1.02371912303,1.0,0.0,0.0,0.0,1.0,0.0,0.0,0.0,1.0,3.45601318359,0.380808105469,8.47118408203,0.1,0.0,0.0,0.0,0.1,0.0,0.0,0.0,0.1
1446040348775164771,17,1446040348771718978,robocape,-8.23735493118,-10.2349317155,-48.8414590114,0.0,10.0,0.0,0.0,0.0,10.0,0.0,0.0,0.0,10.0,0.449408433951,0.327169339916,1.11985923838,1.0,0.0,0.0,0.0,1.0,0.0,0.0,0.0,1.0,3.89070922852,0.920885009766,9.08311157227,0.1,0.0,0.0,0.0,0.1,0.0,0.0,0.0,0.1
1446040348806880729,18,1446040348803776025,robocape,-8.39804149029,-8.67046083764,-47.5654459834,0.0,10.0,0.0,0.0,0.0,10.0,0.0,0.0,0.0,10.0,0.103596966404,0.746484053549,1.08177603479,1.0,0.0,0.0,0.0,1.0,0.0,0.0,0.0,1.0,3.78652587891,0.379610595703,9.32860107422,0.1,0.0,0.0,0.0,0.1,0.0,0.0,0.0,0.1
1446040348840398229,19,1446040348837490081,robocape,-8.78786971457,-6.75561328151,-46.2966702106,0.0,10.0,0.0,0.0,0.0,10.0,0.0,0.0,0.0,10.0,-0.0424774193868,0.912132673352,1.0893660439,1.0,0.0,0.0,0.0,1.0,0.0,0.0,0.0,1.0,2.19982543945,-0.571212158203,8.81965942383,0.1,0.0,0.0,0.0,0.1,0.0,0.0,0.0,0.1
1446040348873555729,20,1446040348870636940,robocape,-8.93733546394,-4.88396180947,-44.7329357378,0.0,10.0,0.0,0.0,0.0,10.0,0.0,0.0,0.0,10.0,0.0765658813398,0.851412600498,1.24888939319,1.0,0.0,0.0,0.0,1.0,0.0,0.0,0.0,1.0,0.63228515625,-1.3759387207,8.15504150391,0.1,0.0,0.0,0.0,0.1,0.0,0.0,0.0,0.1
1446040348907117354,21,1446040348904211997,robocape,-8.79593233347,-3.43077943587,-42.8274146657,0.0,10.0,0.0,0.0,0.0,10.0,0.0,0.0,0.0,10.0,0.214384467751,0.598811771104,1.38977061486,1.0,0.0,0.0,0.0,1.0,0.0,0.0,0.0,1.0,-0.192799072266,-1.83338745117,7.87841674805,0.1,0.0,0.0,0.0,0.1,0.0,0.0,0.0,0.1
1446040348947106312,22,1446040348937248945,robocape,-8.20167238725,-2.20796614337,-40.8719787847,0.0,10.0,0.0,0.0,0.0,10.0,0.0,0.0,0.0,10.0,0.419714187796,0.476306360961,1.37099532917,1.0,0.0,0.0,0.0,1.0,0.0,0.0,0.0,1.0,-0.323327636719,-2.35909423828,7.55868164063,0.1,0.0,0.0,0.0,0.1,0.0,0.0,0.0,0.1
1446040348973646104,23,1446040348970701932,robocape,-6.91543268257,-1.17209648477,-39.2323833437,0.0,10.0,0.0,0.0,0.0,10.0,0.0,0.0,0.0,10.0,0.740358783042,0.415852604216,1.14369453013,1.0,0.0,0.0,0.0,1.0,0.0,0.0,0.0,1.0,-0.692160644531,-2.86204833984,7.13715820313,0.1,0.0,0.0,0.0,0.1,0.0,0.0,0.0,0.1
1446040349007006187,24,1446040349004084110,robocape,-5.01529439679,-0.397181414014,-37.9599322077,0.0,10.0,0.0,0.0,0.0,10.0,0.0,0.0,0.0,10.0,1.0287791291,0.325571443262,0.884702114124,1.0,0.0,0.0,0.0,1.0,0.0,0.0,0.0,1.0,-1.27415039063,-1.53999755859,7.21260131836,0.1,0.0,0.0,0.0,0.1,0.0,0.0,0.0,0.1
1446040349040299104,25,1446040349037170886,robocape,-2.95648485515,-0.000947617940667,-36.7655353892,0.0,10.0,0.0,0.0,0.0,10.0,0.0,0.0,0.0,10.0,1.09282815331,0.156860188206,0.793488846789,1.0,0.0,0.0,0.0,1.0,0.0,0.0,0.0,1.0,-1.68609375,-0.777183837891,7.67005004883,0.1,0.0,0.0,0.0,0.1,0.0,0.0,0.0,0.1
1446040349073864479,26,1446040349070853948,robocape,-1.0544869195,0.00679078150278,-35.8037396263,0.0,10.0,0.0,0.0,0.0,10.0,0.0,0.0,0.0,10.0,0.999484357107,-0.0167779148675,0.627840226986,1.0,0.0,0.0,0.0,1.0,0.0,0.0,0.0,1.0,-1.24062011719,-0.319735107422,8.06403076172,0.1,0.0,0.0,0.0,0.1,0.0,0.0,0.0,0.1
1446040349107084979,27,1446040349104109048,robocape,0.67056769099,-0.215921191634,-35.2806242409,0.0,10.0,0.0,0.0,0.0,10.0,0.0,0.0,0.0,10.0,0.902145819264,-0.117844878236,0.363388330741,1.0,0.0,0.0,0.0,1.0,0.0,0.0,0.0,1.0,-0.852626953125,-1.10530151367,8.51549194336,0.1,0.0,0.0,0.0,0.1,0.0,0.0,0.0,0.1
1446040349140343312,28,1446040349137211084,robocape,2.25975921486,-0.544580118147,-35.1315774994,0.0,10.0,0.0,0.0,0.0,10.0,0.0,0.0,0.0,10.0,0.828775731233,-0.168711255057,0.146873334118,1.0,0.0,0.0,0.0,1.0,0.0,0.0,0.0,1.0,-0.762813720703,0.0131726074219,9.14178955078,0.1,0.0,0.0,0.0,0.1,0.0,0.0,0.0,0.1
1446040349173678021,29,1446040349170696973,robocape,3.51474961544,-0.966251698735,-35.0377449653,0.0,10.0,0.0,0.0,0.0,10.0,0.0,0.0,0.0,10.0,0.652341309015,-0.215316574133,0.119043300727,1.0,0.0,0.0,0.0,1.0,0.0,0.0,0.0,1.0,-0.870589599609,0.446671142578,10.1453027344,0.1,0.0,0.0,0.0,0.1,0.0,0.0,0.0,0.1
1446040349206915938,30,1446040349203847885,robocape,4.53568681957,-1.56484744681,-34.6208196226,0.0,10.0,0.0,0.0,0.0,10.0,0.0,0.0,0.0,10.0,0.530634847198,-0.291882455473,0.313454060302,1.0,0.0,0.0,0.0,1.0,0.0,0.0,0.0,1.0,-0.0443078613281,1.05979614258,10.1716479492,0.1,0.0,0.0,0.0,0.1,0.0,0.0,0.0,0.1
1446040349240609688,31,1446040349237406015,robocape,5.31808616649,-2.28699824614,-34.160076462,0.0,10.0,0.0,0.0,0.0,10.0,0.0,0.0,0.0,10.0,0.407596804837,-0.348341470582,0.346477257819,1.0,0.0,0.0,0.0,1.0,0.0,0.0,0.0,1.0,0.1149609375,0.463436279297,10.0363293457,0.1,0.0,0.0,0.0,0.1,0.0,0.0,0.0,0.1
1446040349274111604,32,1446040349270656108,robocape,5.78343733379,-2.97396178149,-33.9414543768,0.0,10.0,0.0,0.0,0.0,10.0,0.0,0.0,0.0,10.0,0.239950814216,-0.338887248713,0.209857093898,1.0,0.0,0.0,0.0,1.0,0.0,0.0,0.0,1.0,-0.00359252929688,1.67172363281,10.5380859375,0.1,0.0,0.0,0.0,0.1,0.0,0.0,0.0,0.1
1446040349307093563,33,1446040349304100036,robocape,5.25736062487,-3.64607106918,-33.4365659131,0.0,10.0,0.0,0.0,0.0,10.0,0.0,0.0,0.0,10.0,-0.270310850643,-0.312521953921,0.375638871756,1.0,0.0,0.0,0.0,1.0,0.0,0.0,0.0,1.0,-0.372425537109,3.4105078125,10.5847888184,0.1,0.0,0.0,0.0,0.1,0.0,0.0,0.0,0.1
1446040349340490688,34,1446040349337428092,robocape,3.95292771385,-4.2628748868,-33.015377802,0.0,10.0,0.0,0.0,0.0,10.0,0.0,0.0,0.0,10.0,-0.674312388008,-0.2912166652,0.321177227464,1.0,0.0,0.0,0.0,1.0,0.0,0.0,0.0,1.0,0.0323327636719,-0.483793945313,10.2925964355,0.1,0.0,0.0,0.0,0.1,0.0,0.0,0.0,0.1
1446040349373662354,35,1446040349370656967,robocape,3.27466273045,-4.59368238737,-33.1069065574,0.0,10.0,0.0,0.0,0.0,10.0,0.0,0.0,0.0,10.0,-0.361657276033,-0.167779148675,0.0107858024148,1.0,0.0,0.0,0.0,1.0,0.0,0.0,0.0,1.0,1.32324829102,-3.09556274414,10.1896105957,0.1,0.0,0.0,0.0,0.1,0.0,0.0,0.0,0.1
1446040349407237938,36,1446040349404192924,robocape,3.68669528434,-4.50856179713,-33.4416312004,0.0,10.0,0.0,0.0,0.0,10.0,0.0,0.0,0.0,10.0,0.199470765647,0.0395479421877,-0.141813328047,1.0,0.0,0.0,0.0,1.0,0.0,0.0,0.0,1.0,1.46215942383,-1.4980847168,9.39685913086,0.1,0.0,0.0,0.0,0.1,0.0,0.0,0.0,0.1
1446040349440247479,37,1446040349437263011,robocape,4.13102305434,-4.31433202823,-33.2836379347,0.0,10.0,0.0,0.0,0.0,10.0,0.0,0.0,0.0,10.0,0.234225017872,0.116380139636,0.133957002831,1.0,0.0,0.0,0.0,1.0,0.0,0.0,0.0,1.0,0.993933105469,0.676593017578,9.62797851563,0.1,0.0,0.0,0.0,0.1,0.0,0.0,0.0,0.1
1446040349473650188,38,1446040349470639944,robocape,4.34281563224,-3.94631800999,-32.6526345771,0.0,10.0,0.0,0.0,0.0,10.0,0.0,0.0,0.0,10.0,0.127299100106,0.228765537638,0.394280999386,1.0,0.0,0.0,0.0,1.0,0.0,0.0,0.0,1.0,1.15200439453,-0.572409667969,9.52140014648,0.1,0.0,0.0,0.0,0.1,0.0,0.0,0.0,0.1
1446040349506904313,39,1446040349503875970,robocape,4.64452326964,-3.27169775816,-31.8904207968,0.0,10.0,0.0,0.0,0.0,10.0,0.0,0.0,0.0,10.0,0.174170735291,0.39468047355,0.451938436986,1.0,0.0,0.0,0.0,1.0,0.0,0.0,0.0,1.0,0.978365478516,-0.486188964844,9.43996948242,0.1,0.0,0.0,0.0,0.1,0.0,0.0,0.0,0.1
1446040349540733729,40,1446040349537482023,robocape,5.2516128452,-2.28388688445,-31.1724848085,0.0,10.0,0.0,0.0,0.0,10.0,0.0,0.0,0.0,10.0,0.325837759371,0.556068035609,0.404800485692,1.0,0.0,0.0,0.0,1.0,0.0,0.0,0.0,1.0,1.14242431641,-1.76752441406,10.0950073242,0.1,0.0,0.0,0.0,0.1,0.0,0.0,0.0,0.1
1446040349573561521,41,1446040349570565938,robocape,5.96080758021,-1.35003479695,-30.3201111281,0.0,10.0,0.0,0.0,0.0,10.0,0.0,0.0,0.0,10.0,0.372709394557,0.536760117705,0.470447406562,1.0,0.0,0.0,0.0,1.0,0.0,0.0,0.0,1.0,0.0910107421875,-0.292192382813,10.5895788574,0.1,0.0,0.0,0.0,0.1,0.0,0.0,0.0,0.1
1446040349607067104,42,1446040349603981971,robocape,6.94369083036,-0.552151111679,-29.1639555671,0.0,10.0,0.0,0.0,0.0,10.0,0.0,0.0,0.0,10.0,0.507731661824,0.488423743921,0.631435494458,1.0,0.0,0.0,0.0,1.0,0.0,0.0,0.0,1.0,-0.631087646484,0.0778381347656,12.9989685059,0.1,0.0,0.0,0.0,0.1,0.0,0.0,0.0,0.1
1446040349640594146,43,1446040349637533903,robocape,7.58909764766,0.289803588649,-27.5896377352,0.0,10.0,0.0,0.0,0.0,10.0,0.0,0.0,0.0,10.0,0.317581959992,0.545548549303,0.846485752482,1.0,0.0,0.0,0.0,1.0,0.0,0.0,0.0,1.0,-0.320932617188,2.07169189453,12.967833252,0.1,0.0,0.0,0.0,0.1,0.0,0.0,0.0,0.1
1446040349673680146,44,1446040349670625925,robocape,7.89180650024,1.12654113089,-25.8018512247,0.0,10.0,0.0,0.0,0.0,10.0,0.0,0.0,0.0,10.0,0.12210593598,0.561793831952,0.951281141376,1.0,0.0,0.0,0.0,1.0,0.0,0.0,0.0,1.0,-0.463436279297,0.0383203125,11.2901220703,0.1,0.0,0.0,0.0,0.1,0.0,0.0,0.0,0.1
1446040349706924104,45,1446040349703844070,robocape,8.45978532089,1.78222459063,-24.1564215173,0.0,10.0,0.0,0.0,0.0,10.0,0.0,0.0,0.0,10.0,0.252201355231,0.46179213302,0.870321044238,1.0,0.0,0.0,0.0,1.0,0.0,0.0,0.0,1.0,-0.226329345703,0.101788330078,10.2985839844,0.1,0.0,0.0,0.0,0.1,0.0,0.0,0.0,0.1
1446040349740599604,46,1446040349737560033,robocape,8.67399035284,2.14913687877,-22.4305002985,0.0,10.0,0.0,0.0,0.0,10.0,0.0,0.0,0.0,10.0,0.0564590151097,0.322908282172,0.927579007675,1.0,0.0,0.0,0.0,1.0,0.0,0.0,0.0,1.0,-0.117355957031,1.20948486328,10.6722070313,0.1,0.0,0.0,0.0,0.1,0.0,0.0,0.0,0.1
1446040349773824479,47,1446040349770486116,robocape,8.64986406239,2.36009271769,-20.8066275457,0.0,10.0,0.0,0.0,0.0,10.0,0.0,0.0,0.0,10.0,-0.0693753463966,0.234890808145,0.878310527508,1.0,0.0,0.0,0.0,1.0,0.0,0.0,0.0,1.0,-0.55564453125,0.116158447266,11.3679602051,0.1,0.0,0.0,0.0,0.1,0.0,0.0,0.0,0.1
1446040349806865188,48,1446040349803812026,robocape,9.01874698792,2.59938943702,-19.3111598281,0.0,10.0,0.0,0.0,0.0,10.0,0.0,0.0,0.0,10.0,0.138883850848,0.241282394761,0.796684640097,1.0,0.0,0.0,0.0,1.0,0.0,0.0,0.0,1.0,-0.0323327636719,0.211959228516,12.1475390625,0.1,0.0,0.0,0.0,0.1,0.0,0.0,0.0,0.1
1446040349840493438,49,1446040349837316989,robocape,9.72493331493,2.8669485862,-17.5962682615,0.0,10.0,0.0,0.0,0.0,10.0,0.0,0.0,0.0,10.0,0.30599720925,0.280963495003,0.899615816229,1.0,0.0,0.0,0.0,1.0,0.0,0.0,0.0,1.0,0.222736816406,1.24301513672,12.2110070801,0.1,0.0,0.0,0.0,0.1,0.0,0.0,0.0,0.1
1446040349873604313,50,1446040349870601892,robocape,10.4752536421,3.20395593329,-15.8365318631,0.0,10.0,0.0,0.0,0.0,10.0,0.0,0.0,0.0,10.0,0.32344091439,0.331297239606,0.906007402845,1.0,0.0,0.0,0.0,1.0,0.0,0.0,0.0,1.0,0.235909423828,1.85254760742,11.4122680664,0.1,0.0,0.0,0.0,0.1,0.0,0.0,0.0,0.1
1446040349906915771,51,1446040349903965950,robocape,11.0512672104,3.6750806471,-14.3748222254,0.0,10.0,0.0,0.0,0.0,10.0,0.0,0.0,0.0,10.0,0.237553969235,0.38109835199,0.728108242028,1.0,0.0,0.0,0.0,1.0,0.0,0.0,0.0,1.0,-0.415535888672,2.07767944336,11.4302307129,0.1,0.0,0.0,0.0,0.1,0.0,0.0,0.0,0.1
1446040349947468396,52,1446040349937360048,robocape,11.3541201442,4.15869821484,-13.0060802873,0.0,10.0,0.0,0.0,0.0,10.0,0.0,0.0,0.0,10.0,0.0916127414987,0.382696248644,0.672980807463,1.0,0.0,0.0,0.0,1.0,0.0,0.0,0.0,1.0,-0.998723144531,1.93158325195,11.6445849609,0.1,0.0,0.0,0.0,0.1,0.0,0.0,0.0,0.1
1446040349973767188,53,1446040349970767974,robocape,11.655418251,4.71818583541,-12.0058413459,0.0,10.0,0.0,0.0,0.0,10.0,0.0,0.0,0.0,10.0,0.102531701968,0.386824148334,0.468583193799,1.0,0.0,0.0,0.0,1.0,0.0,0.0,0.0,1.0,-1.00950073242,1.48012207031,11.9906652832,0.1,0.0,0.0,0.0,0.1,0.0,0.0,0.0,0.1
1446040350007111896,54,1446040350004138946,robocape,11.7708314745,5.2977018326,-11.4030169158,0.0,10.0,0.0,0.0,0.0,10.0,0.0,0.0,0.0,10.0,0.0201068662301,0.356597269962,0.258859257956,1.0,0.0,0.0,0.0,1.0,0.0,0.0,0.0,1.0,-0.904119873047,2.21778808594,12.742701416,0.1,0.0,0.0,0.0,0.1,0.0,0.0,0.0,0.1
1446040350040377396,55,1446040350037389993,robocape,11.6632034151,5.69562214335,-10.9412869405,0.0,10.0,0.0,0.0,0.0,10.0,0.0,0.0,0.0,10.0,-0.0929443220438,0.247807139432,0.206128668372,1.0,0.0,0.0,0.0,1.0,0.0,0.0,0.0,1.0,-1.54239257813,2.53033813477,12.553494873,0.1,0.0,0.0,0.0,0.1,0.0,0.0,0.0,0.1
1446040350073844938,56,1446040350070750951,robocape,11.4431232099,5.77813621217,-10.5554176891,0.0,10.0,0.0,0.0,0.0,10.0,0.0,0.0,0.0,10.0,-0.149669653262,0.0769653555033,0.201601294519,1.0,0.0,0.0,0.0,1.0,0.0,0.0,0.0,1.0,-2.01780395508,2.44651245117,12.2325622559,0.1,0.0,0.0,0.0,0.1,0.0,0.0,0.0,0.1
1446040350107180105,57,1446040350104060888,robocape,11.0215652556,5.44619849765,-10.6021973128,0.0,10.0,0.0,0.0,0.0,10.0,0.0,0.0,0.0,10.0,-0.232094489,-0.180429163853,0.0231695014837,1.0,0.0,0.0,0.0,1.0,0.0,0.0,0.0,1.0,-2.02019897461,2.11599975586,12.0697009277,0.1,0.0,0.0,0.0,0.1,0.0,0.0,0.0,0.1
1446040350140501105,58,1446040350137361049,robocape,10.3417803409,4.93438817036,-10.9840363439,0.0,10.0,0.0,0.0,0.0,10.0,0.0,0.0,0.0,10.0,-0.350738315563,-0.30479878676,-0.132492264231,1.0,0.0,0.0,0.0,1.0,0.0,0.0,0.0,1.0,-1.4178515625,1.03345092773,11.5799194336,0.1,0.0,0.0,0.0,0.1,0.0,0.0,0.0,0.1
1446040350173644938,59,1446040350170564889,robocape,9.73894827535,4.44958287469,-11.4508433302,0.0,10.0,0.0,0.0,0.0,10.0,0.0,0.0,0.0,10.0,-0.306529841468,-0.296010355162,-0.183092324943,1.0,0.0,0.0,0.0,1.0,0.0,0.0,0.0,1.0,-0.734073486328,0.320932617188,11.0781628418,0.1,0.0,0.0,0.0,0.1,0.0,0.0,0.0,0.1
1446040350207179688,60,1446040350203933954,robocape,9.31728172604,4.15426337731,-11.818164237,0.0,10.0,0.0,0.0,0.0,10.0,0.0,0.0,0.0,10.0,-0.215716048296,-0.187220224633,-0.151933340189,1.0,0.0,0.0,0.0,1.0,0.0,0.0,0.0,1.0,-0.17244140625,0.17244140625,10.3955822754,0.1,0.0,0.0,0.0,0.1,0.0,0.0,0.0,0.1
1446040350248850063,61,1446040350245634078,robocape,9.0171264724,4.05962464699,-11.9614579257,0.0,10.0,0.0,0.0,0.0,10.0,0.0,0.0,0.0,10.0,-0.160854929841,-0.0637827081074,-0.0541953281831,1.0,0.0,0.0,0.0,1.0,0.0,0.0,0.0,1.0,-0.597557373047,0.277822265625,10.4339025879,0.1,0.0,0.0,0.0,0.1,0.0,0.0,0.0,0.1
1446040350273620813,62,1446040350270561933,robocape,8.78904263061,4.11327759556,-11.9858817599,0.0,10.0,0.0,0.0,0.0,10.0,0.0,0.0,0.0,10.0,-0.127299100106,0.0227700273202,-0.00519316412565,1.0,0.0,0.0,0.0,1.0,0.0,0.0,0.0,1.0,-0.226329345703,0.893342285156,10.2806213379,0.1,0.0,0.0,0.0,0.1,0.0,0.0,0.0,0.1
1446040350306852355,63,1446040350303819894,robocape,8.66556315574,4.32830680211,-11.7141319827,0.0,10.0,0.0,0.0,0.0,10.0,0.0,0.0,0.0,10.0,-0.0844222065555,0.129296470923,0.135554899485,1.0,0.0,0.0,0.0,1.0,0.0,0.0,0.0,1.0,-0.395178222656,0.279019775391,10.3860021973,0.1,0.0,0.0,0.0,0.1,0.0,0.0,0.0,0.1
1446040350340535605,64,1446040350337416887,robocape,8.84687945039,4.55019101272,-11.2749297221,0.0,10.0,0.0,0.0,0.0,10.0,0.0,0.0,0.0,10.0,0.0680437658515,0.146074385791,0.220376580204,1.0,0.0,0.0,0.0,1.0,0.0,0.0,0.0,1.0,-0.649050292969,0.360450439453,10.2375109863,0.1,0.0,0.0,0.0,0.1,0.0,0.0,0.0,0.1
1446040350373595813,65,1446040350370619058,robocape,9.07065227044,4.74716062212,-10.7682542533,0.0,10.0,0.0,0.0,0.0,10.0,0.0,0.0,0.0,10.0,0.0862864193186,0.139150166957,0.256196096866,1.0,0.0,0.0,0.0,1.0,0.0,0.0,0.0,1.0,-0.949625244141,1.21906494141,10.2195483398,0.1,0.0,0.0,0.0,0.1,0.0,0.0,0.0,0.1
1446040350407348771,66,1446040350404078006,robocape,9.16474325626,4.91826779013,-10.3077813802,0.0,10.0,0.0,0.0,0.0,10.0,0.0,0.0,0.0,10.0,0.0193079179031,0.122372252089,0.233825543709,1.0,0.0,0.0,0.0,1.0,0.0,0.0,0.0,1.0,-0.998723144531,0.899329833984,9.81718505859,0.1,0.0,0.0,0.0,0.1,0.0,0.0,0.0,0.1
1446040350440489688,67,1446040350437201976,robocape,9.21101749835,5.05866840368,-10.0489856514,0.0,10.0,0.0,0.0,0.0,10.0,0.0,0.0,0.0,10.0,0.0034621094171,0.0901480028992,0.131293841741,1.0,0.0,0.0,0.0,1.0,0.0,0.0,0.0,1.0,-0.675395507813,0.512534179688,9.64474365234,0.1,0.0,0.0,0.0,0.1,0.0,0.0,0.0,0.1
1446040350473676230,68,1446040350470685005,robocape,9.24025174735,5.21955167552,-10.0038255477,0.0,10.0,0.0,0.0,0.0,10.0,0.0,0.0,0.0,10.0,0.00506000607115,0.083223784065,0.0185089695761,1.0,0.0,0.0,0.0,1.0,0.0,0.0,0.0,1.0,-0.584384765625,0.760418701172,9.87466552734,0.1,0.0,0.0,0.0,0.1,0.0,0.0,0.0,0.1
1446040350507203938,69,1446040350504127979,robocape,9.08083275946,5.35579756953,-10.0404015608,0.0,10.0,0.0,0.0,0.0,10.0,0.0,0.0,0.0,10.0,-0.0901480028992,0.0633832339439,-0.0209058145571,1.0,0.0,0.0,0.0,1.0,0.0,0.0,0.0,1.0,-0.621507568359,0.784368896484,9.71419921875,0.1,0.0,0.0,0.0,0.1,0.0,0.0,0.0,0.1
1446040350540608771,70,1446040350537117958,robocape,8.71940829527,5.43756843496,-10.154449155,0.0,10.0,0.0,0.0,0.0,10.0,0.0,0.0,0.0,10.0,-0.192280230704,0.0287621397729,-0.0553937506736,1.0,0.0,0.0,0.0,1.0,0.0,0.0,0.0,1.0,-0.516126708984,0.47900390625,10.0435144043,0.1,0.0,0.0,0.0,0.1,0.0,0.0,0.0,0.1
1446040350573822355,71,1446040350570764064,robocape,8.25120474964,5.45683469546,-10.3317320592,0.0,10.0,0.0,0.0,0.0,10.0,0.0,0.0,0.0,10.0,-0.244744504178,-0.00812264132474,-0.0825579937925,1.0,0.0,0.0,0.0,1.0,0.0,0.0,0.0,1.0,-0.476608886719,-0.140108642578,10.1884130859,0.1,0.0,0.0,0.0,0.1,0.0,0.0,0.0,0.1
1446040350607416147,72,1446040350604260921,robocape,7.97326196696,4.78278995577,-10.5374672319,0.0,10.0,0.0,0.0,0.0,10.0,0.0,0.0,0.0,10.0,-0.144742805246,-0.368714652921,-0.0451405804768,1.0,0.0,0.0,0.0,1.0,0.0,0.0,0.0,1.0,-1.78189453125,0.399968261719,10.1021923828,0.1,0.0,0.0,0.0,0.1,0.0,0.0,0.0,0.1
1446040350642197022,73,1446040350639075040,robocape,7.64627379295,4.05158054031,-10.5993758663,0.0,10.0,0.0,0.0,0.0,10.0,0.0,0.0,0.0,10.0,-0.177632844708,-0.387356780552,0.031957933081,1.0,0.0,0.0,0.0,1.0,0.0,0.0,0.0,1.0,0.425115966797,-0.0514929199219,9.54295532227,0.1,0.0,0.0,0.0,0.1,0.0,0.0,0.0,0.1
1446040350673725897,74,1446040350670671939,robocape,7.17993649819,3.73299983596,-10.5886433406,0.0,10.0,0.0,0.0,0.0,10.0,0.0,0.0,0.0,10.0,-0.252600829394,-0.167912306729,0.0386158358061,1.0,0.0,0.0,0.0,1.0,0.0,0.0,0.0,1.0,0.669407958984,-0.0778381347656,9.73216186523,0.1,0.0,0.0,0.0,0.1,0.0,0.0,0.0,0.1
1446040350707105605,75,1446040350704047918,robocape,6.78737894082,3.64095749601,-10.6356661412,0.0,10.0,0.0,0.0,0.0,10.0,0.0,0.0,0.0,10.0,-0.21078920028,-0.0536626959651,-0.00812264132474,1.0,0.0,0.0,0.0,1.0,0.0,0.0,0.0,1.0,0.0431103515625,-0.51732421875,10.6973547363,0.1,0.0,0.0,0.0,0.1,0.0,0.0,0.0,0.1
1446040350740553188,76,1446040350737243890,robocape,6.6184708076,3.93045829511,-10.4830202058,0.0,10.0,0.0,0.0,0.0,10.0,0.0,0.0,0.0,10.0,-0.100001698932,0.156860188206,0.0712395591596,1.0,0.0,0.0,0.0,1.0,0.0,0.0,0.0,1.0,0.586779785156,-0.744851074219,10.1117724609,0.1,0.0,0.0,0.0,0.1,0.0,0.0,0.0,0.1
1446040350776202730,77,1446040350771972894,robocape,6.7048178496,4.49742095617,-10.1493825964,0.0,10.0,0.0,0.0,0.0,10.0,0.0,0.0,0.0,10.0,0.0263652947918,0.311723005594,0.14753912439,1.0,0.0,0.0,0.0,1.0,0.0,0.0,0.0,1.0,0.0443078613281,-0.746048583984,10.0782421875,0.1,0.0,0.0,0.0,0.1,0.0,0.0,0.0,0.1
1446040350806959980,78,1446040350803925991,robocape,6.95491457285,5.07475107417,-9.77112135877,0.0,10.0,0.0,0.0,0.0,10.0,0.0,0.0,0.0,10.0,0.108523814421,0.319978804973,0.168178622839,1.0,0.0,0.0,0.0,1.0,0.0,0.0,0.0,1.0,-2.75786499023,0.125738525391,10.9835595703,0.1,0.0,0.0,0.0,0.1,0.0,0.0,0.0,0.1
1446040350840704647,79,1446040350837426900,robocape,7.27517756544,4.6378525831,-9.77249011386,0.0,10.0,0.0,0.0,0.0,10.0,0.0,0.0,0.0,10.0,0.161254404004,-0.230496592346,0.0360858327706,1.0,0.0,0.0,0.0,1.0,0.0,0.0,0.0,1.0,-0.952020263672,0.0047900390625,9.62797851563,0.1,0.0,0.0,0.0,0.1,0.0,0.0,0.0,0.1
1446040350873588230,80,1446040350870592117,robocape,7.59777456845,4.37025006367,-9.69815083205,0.0,10.0,0.0,0.0,0.0,10.0,0.0,0.0,0.0,10.0,0.159257033187,-0.137019638085,0.0648479725434,1.0,0.0,0.0,0.0,1.0,0.0,0.0,0.0,1.0,-0.444276123047,0.723295898438,10.3979772949,0.1,0.0,0.0,0.0,0.1,0.0,0.0,0.0,0.1
1446040350907137230,81,1446040350903975963,robocape,7.68154100972,4.08723946734,-9.73062131722,0.0,10.0,0.0,0.0,0.0,10.0,0.0,0.0,0.0,10.0,0.0382163616426,-0.152066498244,0.0114515926873,1.0,0.0,0.0,0.0,1.0,0.0,0.0,0.0,1.0,-0.076640625,0.427510986328,10.0171691895,0.1,0.0,0.0,0.0,0.1,0.0,0.0,0.0,0.1
1446040350947488563,82,1446040350937316894,robocape,7.7225105884,3.74537975088,-9.78145318912,0.0,10.0,0.0,0.0,0.0,10.0,0.0,0.0,0.0,10.0,0.0162452826495,-0.183624957161,0.00639158661619,1.0,0.0,0.0,0.0,1.0,0.0,0.0,0.0,1.0,-1.13404174805,0.226329345703,9.96208374023,0.1,0.0,0.0,0.0,0.1,0.0,0.0,0.0,0.1
1446040350973479272,83,1446040350970505952,robocape,7.70327751767,3.33966681748,-9.83685462873,0.0,10.0,0.0,0.0,0.0,10.0,0.0,0.0,0.0,10.0,-0.0154463343225,-0.216781312732,0.00878843159726,1.0,0.0,0.0,0.0,1.0,0.0,0.0,0.0,1.0,-0.796343994141,0.189206542969,10.0411193848,0.1,0.0,0.0,0.0,0.1,0.0,0.0,0.0,0.1
1446040351007037772,84,1446040351004038095,robocape,7.70081911655,2.93220577897,-9.89447609757,0.0,10.0,0.0,0.0,0.0,10.0,0.0,0.0,0.0,10.0,-0.0066579027252,-0.217447103005,0.00759000910673,1.0,0.0,0.0,0.0,1.0,0.0,0.0,0.0,1.0,-0.170046386719,-0.028740234375,10.0650695801,0.1,0.0,0.0,0.0,0.1,0.0,0.0,0.0,0.1
1446040351040806022,85,1446040351037496089,robocape,7.6884568829,2.58847363418,-9.86894283317,0.0,10.0,0.0,0.0,0.0,10.0,0.0,0.0,0.0,10.0,-0.0142479118319,-0.178298634981,0.0463390029674,1.0,0.0,0.0,0.0,1.0,0.0,0.0,0.0,1.0,-0.267044677734,-0.0047900390625,10.330916748,0.1,0.0,0.0,0.0,0.1,0.0,0.0,0.0,0.1
1446040351073549188,86,1446040351070560932,robocape,7.70247289774,2.33526817223,-9.84879635206,0.0,10.0,0.0,0.0,0.0,10.0,0.0,0.0,0.0,10.0,0.0,-0.131426999795,0.0368847810976,1.0,0.0,0.0,0.0,1.0,0.0,0.0,0.0,1.0,-0.167651367188,-0.271834716797,10.0099841309,0.1,0.0,0.0,0.0,0.1,0.0,0.0,0.0,0.1
1446040351113218397,87,1446040351110085010,robocape,7.78983768819,2.11476522383,-9.85035559173,0.0,10.0,0.0,0.0,0.0,10.0,0.0,0.0,0.0,10.0,0.0391484680242,-0.115714349364,0.0230363434292,1.0,0.0,0.0,0.0,1.0,0.0,0.0,0.0,1.0,-0.244291992188,0.0419128417969,10.0794396973,0.1,0.0,0.0,0.0,0.1,0.0,0.0,0.0,0.1
1446040351140456897,88,1446040351137178897,robocape,7.84401546528,1.86986846053,-9.81715533377,0.0,10.0,0.0,0.0,0.0,10.0,0.0,0.0,0.0,10.0,0.0209058145571,-0.125701203452,0.0431432096593,1.0,0.0,0.0,0.0,1.0,0.0,0.0,0.0,1.0,-0.245489501953,0.0922082519531,10.075847168,0.1,0.0,0.0,0.0,0.1,0.0,0.0,0.0,0.1
1446040351173744105,89,1446040351170666933,robocape,7.90360800546,1.59560491532,-9.76461957865,0.0,10.0,0.0,0.0,0.0,10.0,0.0,0.0,0.0,10.0,0.0234358175927,-0.139283325011,0.0553937506736,1.0,0.0,0.0,0.0,1.0,0.0,0.0,0.0,1.0,0.0359252929688,-0.13412109375,10.2003881836,0.1,0.0,0.0,0.0,0.1,0.0,0.0,0.0,0.1
1446040351207008397,90,1446040351203943014,robocape,8.00972669845,1.364720943,-9.73808057603,0.0,10.0,0.0,0.0,0.0,10.0,0.0,0.0,0.0,10.0,0.0484695318394,-0.118377510454,0.0386158358061,1.0,0.0,0.0,0.0,1.0,0.0,0.0,0.0,1.0,-0.217946777344,0.0467028808594,10.080637207,0.1,0.0,0.0,0.0,0.1,0.0,0.0,0.0,0.1
1446040351240540480,91,1446040351237262964,robocape,8.0890173998,1.10346386963,-9.70197057047,0.0,10.0,0.0,0.0,0.0,10.0,0.0,0.0,0.0,10.0,0.0342216200075,-0.133158054504,0.0460726868584,1.0,0.0,0.0,0.0,1.0,0.0,0.0,0.0,1.0,-0.137713623047,0.443078613281,10.0279467773,0.1,0.0,0.0,0.0,0.1,0.0,0.0,0.0,0.1
1446040351273698897,92,1446040351270664930,robocape,8.08319721674,0.906106276601,-9.61361318607,0.0,10.0,0.0,0.0,0.0,10.0,0.0,0.0,0.0,10.0,-0.0110521185238,-0.0960069572974,0.0688427141785,1.0,0.0,0.0,0.0,1.0,0.0,0.0,0.0,1.0,0.0119750976563,0.0359252929688,10.5045556641,0.1,0.0,0.0,0.0,0.1,0.0,0.0,0.0,0.1
1446040351307158480,93,1446040351304177045,robocape,8.13951162284,0.883523192679,-9.45609508986,0.0,10.0,0.0,0.0,0.0,10.0,0.0,0.0,0.0,10.0,0.0210389726116,-0.000266316109008,0.0916127414987,1.0,0.0,0.0,0.0,1.0,0.0,0.0,0.0,1.0,-0.184416503906,-0.446671142578,10.2446960449,0.1,0.0,0.0,0.0,0.1,0.0,0.0,0.0,0.1
1446040351340469730,94,1446040351337240934,robocape,8.32642013745,0.855310389325,-9.26942100108,0.0,10.0,0.0,0.0,0.0,10.0,0.0,0.0,0.0,10.0,0.0893490545722,-0.000798948327024,0.106659601658,1.0,0.0,0.0,0.0,1.0,0.0,0.0,0.0,1.0,-0.258662109375,-0.414338378906,10.0004040527,0.1,0.0,0.0,0.0,0.1,0.0,0.0,0.0,0.1
1446040351373545647,95,1446040351370590925,robocape,8.53243036487,0.778566919825,-8.93365833012,0.0,10.0,0.0,0.0,0.0,10.0,0.0,0.0,0.0,10.0,0.0977380120059,-0.0141147537774,0.187752856851,1.0,0.0,0.0,0.0,1.0,0.0,0.0,0.0,1.0,-0.263452148438,-0.366437988281,9.82077758789,0.1,0.0,0.0,0.0,0.1,0.0,0.0,0.0,0.1
1446040351407356689,96,1446040351404318094,robocape,8.60796731812,0.377776914357,-8.12984291567,0.0,10.0,0.0,0.0,0.0,10.0,0.0,0.0,0.0,10.0,0.0256995045193,-0.144609647191,0.45646581084,1.0,0.0,0.0,0.0,1.0,0.0,0.0,0.0,1.0,-0.635877685547,-0.403560791016,9.69384155273,0.1,0.0,0.0,0.0,0.1,0.0,0.0,0.0,0.1
1446040351440243147,97,1446040351437207937,robocape,8.48945135499,-0.282451081512,-6.6441131881,0.0,10.0,0.0,0.0,0.0,10.0,0.0,0.0,0.0,10.0,-0.0743021944132,-0.225303428221,0.829707837614,1.0,0.0,0.0,0.0,1.0,0.0,0.0,0.0,1.0,-0.428708496094,-0.625100097656,9.63396606445,0.1,0.0,0.0,0.0,0.1,0.0,0.0,0.0,0.1
1446040351473656980,98,1446040351470679998,robocape,8.29196738535,-1.28695279774,-4.72998176816,0.0,10.0,0.0,0.0,0.0,10.0,0.0,0.0,0.0,10.0,-0.101066963369,-0.372043604284,1.07458549985,1.0,0.0,0.0,0.0,1.0,0.0,0.0,0.0,1.0,3.89190673828,-2.50758544922,9.62318847656,0.1,0.0,0.0,0.0,0.1,0.0,0.0,0.0,0.1
1446040351507476147,99,1446040351504394054,robocape,8.85236606669,-1.31324595352,-3.96592103319,0.0,10.0,0.0,0.0,0.0,10.0,0.0,0.0,0.0,10.0,0.296010355162,0.0471379512944,0.400406269893,1.0,0.0,0.0,0.0,1.0,0.0,0.0,0.0,1.0,-0.559237060547,3.36021240234,11.0470275879,0.1,0.0,0.0,0.0,0.1,0.0,0.0,0.0,0.1
1446040351540387772,100,1446040351537182092,robocape,9.20629562288,-1.3074011334,-3.16268125436,0.0,10.0,0.0,0.0,0.0,10.0,0.0,0.0,0.0,10.0,0.187752856851,0.0701742947236,0.417184184761,1.0,0.0,0.0,0.0,1.0,0.0,0.0,0.0,1.0,1.1112890625,0.245489501953,9.70461914063,0.1,0.0,0.0,0.0,0.1,0.0,0.0,0.0,0.1
1446040351573837314,101,1446040351570763111,robocape,9.40458254939,-1.29698191262,-2.88556168981,0.0,10.0,0.0,0.0,0.0,10.0,0.0,0.0,0.0,10.0,0.100134856987,0.0299605622634,0.144343331082,1.0,0.0,0.0,0.0,1.0,0.0,0.0,0.0,1.0,0.564027099609,1.86212768555,10.2446960449,0.1,0.0,0.0,0.0,0.1,0.0,0.0,0.0,0.1
1446040351607597439,102,1446040351604535102,robocape,9.19981382191,-1.36525138324,-2.5227836497,0.0,10.0,0.0,0.0,0.0,10.0,0.0,0.0,0.0,10.0,-0.111053817456,-0.0031957933081,0.195342865957,1.0,0.0,0.0,0.0,1.0,0.0,0.0,0.0,1.0,0.219144287109,1.67531616211,10.3129541016,0.1,0.0,0.0,0.0,0.1,0.0,0.0,0.0,0.1
1446040351640277480,103,1446040351637188911,robocape,8.54895333665,-1.34764707813,-1.92781503067,0.0,10.0,0.0,0.0,0.0,10.0,0.0,0.0,0.0,10.0,-0.342615674239,0.0587227020362,0.308260896177,1.0,0.0,0.0,0.0,1.0,0.0,0.0,0.0,1.0,0.183218994141,-1.21547241211,9.97046630859,0.1,0.0,0.0,0.0,0.1,0.0,0.0,0.0,0.1
1446040351673648189,104,1446040351670558929,robocape,8.44987172188,-1.25648418346,-1.40967060452,0.0,10.0,0.0,0.0,0.0,10.0,0.0,0.0,0.0,10.0,-0.0528637476381,0.0884169481906,0.262321367373,1.0,0.0,0.0,0.0,1.0,0.0,0.0,0.0,1.0,0.0047900390625,-2.41537719727,9.7297668457,0.1,0.0,0.0,0.0,0.1,0.0,0.0,0.0,0.1
1446040351717634272,105,1446040351714456081,robocape,8.76964248917,-1.24422969755,-0.934274653637,0.0,10.0,0.0,0.0,0.0,10.0,0.0,0.0,0.0,10.0,0.166847042293,0.0444747902043,0.24567661056,1.0,0.0,0.0,0.0,1.0,0.0,0.0,0.0,1.0,-0.0443078613281,-0.772393798828,9.83634521484,0.1,0.0,0.0,0.0,0.1,0.0,0.0,0.0,0.1
1446040351741141939,106,1446040351738183021,robocape,9.32742238769,-1.28438656229,-0.366074624215,0.0,10.0,0.0,0.0,0.0,10.0,0.0,0.0,0.0,10.0,0.293080877963,0.0267647689553,0.297208777653,1.0,0.0,0.0,0.0,1.0,0.0,0.0,0.0,1.0,-0.101788330078,-0.45984375,9.75730957031,0.1,0.0,0.0,0.0,0.1,0.0,0.0,0.0,0.1
1446040351773500355,107,1446040351770478010,robocape,9.72604618795,-1.48019080033,0.302140917295,0.0,10.0,0.0,0.0,0.0,10.0,0.0,0.0,0.0,10.0,0.211055516389,-0.0423442613323,0.361657276033,1.0,0.0,0.0,0.0,1.0,0.0,0.0,0.0,1.0,-0.104183349609,0.720900878906,10.177635498,0.1,0.0,0.0,0.0,0.1,0.0,0.0,0.0,0.1
1446040351807381897,108,1446040351804374933,robocape,9.88875613054,-1.61033130657,1.2742047001,0.0,10.0,0.0,0.0,0.0,10.0,0.0,0.0,0.0,10.0,0.0920122156622,0.0205063403936,0.511992719568,1.0,0.0,0.0,0.0,1.0,0.0,0.0,0.0,1.0,0.992735595703,0.428708496094,10.3117565918,0.1,0.0,0.0,0.0,0.1,0.0,0.0,0.0,0.1
1446040351840289022,109,1446040351837260007,robocape,9.97447902387,-1.64710963774,2.35611315082,0.0,10.0,0.0,0.0,0.0,10.0,0.0,0.0,0.0,10.0,0.0540621701286,0.0796285165934,0.559396986971,1.0,0.0,0.0,0.0,1.0,0.0,0.0,0.0,1.0,0.445473632813,-0.167651367188,10.0985998535,0.1,0.0,0.0,0.0,0.1,0.0,0.0,0.0,0.1
1446040351873776397,110,1446040351870776891,robocape,10.1370405158,-1.64672720389,3.17241012844,0.0,10.0,0.0,0.0,0.0,10.0,0.0,0.0,0.0,10.0,0.0908137931717,0.0756337749583,0.418515765306,1.0,0.0,0.0,0.0,1.0,0.0,0.0,0.0,1.0,0.146096191406,0.439486083984,9.94771362305,0.1,0.0,0.0,0.0,0.1,0.0,0.0,0.0,0.1
1446040351907401939,111,1446040351904377937,robocape,10.2934388053,-1.69882850968,3.80262238128,0.0,10.0,0.0,0.0,0.0,10.0,0.0,0.0,0.0,10.0,0.084821680719,0.032490565299,0.326903023807,1.0,0.0,0.0,0.0,1.0,0.0,0.0,0.0,1.0,0.0910107421875,0.328117675781,9.71300170898,0.1,0.0,0.0,0.0,0.1,0.0,0.0,0.0,0.1
1446040351947794064,112,1446040351937374114,robocape,10.5217851559,-1.88214277419,4.18147865313,0.0,10.0,0.0,0.0,0.0,10.0,0.0,0.0,0.0,10.0,0.119043300727,-0.0576574376002,0.209590777789,1.0,0.0,0.0,0.0,1.0,0.0,0.0,0.0,1.0,-0.425115966797,0.493374023438,9.44356201172,0.1,0.0,0.0,0.0,0.1,0.0,0.0,0.0,0.1
1446040351973542064,113,1446040351970558881,robocape,10.7072572552,-1.88914783737,4.32689375666,0.0,10.0,0.0,0.0,0.0,10.0,0.0,0.0,0.0,10.0,0.0920122156622,0.0114515926873,0.0723048235957,1.0,0.0,0.0,0.0,1.0,0.0,0.0,0.0,1.0,1.84775756836,1.0310559082,10.560838623,0.1,0.0,0.0,0.0,0.1,0.0,0.0,0.0,0.1
1446040352008579439,114,1446040352005570888,robocape,10.6735587389,-1.76066617086,4.34344508018,0.0,10.0,0.0,0.0,0.0,10.0,0.0,0.0,0.0,10.0,-0.0263652947918,0.0688427141785,-0.00772316716123,1.0,0.0,0.0,0.0,1.0,0.0,0.0,0.0,1.0,0.558039550781,0.899329833984,10.1692529297,0.1,0.0,0.0,0.0,0.1,0.0,0.0,0.0,0.1
1446040352040311397,115,1446040352037298917,robocape,10.6073438452,-1.62901693176,4.21120644768,0.0,10.0,0.0,0.0,0.0,10.0,0.0,0.0,0.0,10.0,-0.0460726868584,0.0560595409462,-0.08455536461,1.0,0.0,0.0,0.0,1.0,0.0,0.0,0.0,1.0,0.341290283203,0.453856201172,10.0542919922,0.1,0.0,0.0,0.0,0.1,0.0,0.0,0.0,0.1
1446040352074063772,116,1446040352071029901,robocape,10.5027367446,-1.47864107899,4.04618856052,0.0,10.0,0.0,0.0,0.0,10.0,0.0,0.0,0.0,10.0,-0.066579027252,0.0625842856169,-0.103064334186,1.0,0.0,0.0,0.0,1.0,0.0,0.0,0.0,1.0,-0.009580078125,0.110170898438,9.96447875977,0.1,0.0,0.0,0.0,0.1,0.0,0.0,0.0,0.1
1446040352107805147,117,1446040352104742050,robocape,10.4072096908,-1.25825591252,3.92950465677,0.0,10.0,0.0,0.0,0.0,10.0,0.0,0.0,0.0,10.0,-0.0607200728538,0.103197492241,-0.08455536461,1.0,0.0,0.0,0.0,1.0,0.0,0.0,0.0,1.0,0.307760009766,-0.155676269531,9.76449462891,0.1,0.0,0.0,0.0,0.1,0.0,0.0,0.0,0.1
1446040352140333272,118,1446040352137259006,robocape,10.3228220268,-0.927377190585,3.94006321988,0.0,10.0,0.0,0.0,0.0,10.0,0.0,0.0,0.0,10.0,-0.0529969056926,0.171907048365,-0.0291616139364,1.0,0.0,0.0,0.0,1.0,0.0,0.0,0.0,1.0,0.214354248047,-0.494571533203,9.75730957031,0.1,0.0,0.0,0.0,0.1,0.0,0.0,0.0,0.1
1446040352173879522,119,1446040352170846939,robocape,10.311990683,-0.617245066769,4.0561477118,0.0,10.0,0.0,0.0,0.0,10.0,0.0,0.0,0.0,10.0,-0.0131826473959,0.170841783929,0.0274305592278,1.0,0.0,0.0,0.0,1.0,0.0,0.0,0.0,1.0,-0.146096191406,-0.501756591797,10.1261425781,0.1,0.0,0.0,0.0,0.1,0.0,0.0,0.0,0.1
1446040352207557897,120,1446040352204408884,robocape,10.5037475366,-0.311900453558,4.10457898487,0.0,10.0,0.0,0.0,0.0,10.0,0.0,0.0,0.0,10.0,0.0929443220438,0.161787036222,-0.00692421883421,1.0,0.0,0.0,0.0,1.0,0.0,0.0,0.0,1.0,-0.067060546875,-0.216749267578,10.3033740234,0.1,0.0,0.0,0.0,0.1,0.0,0.0,0.0,0.1
1446040352240358647,121,1446040352237289905,robocape,10.7791882332,-0.0903008684053,4.1543293716,0.0,10.0,0.0,0.0,0.0,10.0,0.0,0.0,0.0,10.0,0.13688648003,0.118643826563,0.00133158054504,1.0,0.0,0.0,0.0,1.0,0.0,0.0,0.0,1.0,-0.0167651367188,-0.253872070313,10.3943847656,0.1,0.0,0.0,0.0,0.1,0.0,0.0,0.0,0.1
1446040352273467189,122,1446040352270458936,robocape,11.1357893962,0.0157950813153,4.20709895474,0.0,10.0,0.0,0.0,0.0,10.0,0.0,0.0,0.0,10.0,0.179497057471,0.0595216503633,0.0138484376684,1.0,0.0,0.0,0.0,1.0,0.0,0.0,0.0,1.0,0.0586779785156,-0.280217285156,10.1764379883,0.1,0.0,0.0,0.0,0.1,0.0,0.0,0.0,0.1
1446040352307397939,123,1446040352304393053,robocape,11.5111359815,0.117356068302,4.23687067419,0.0,10.0,0.0,0.0,0.0,10.0,0.0,0.0,0.0,10.0,0.189084437396,0.0548611184556,0.00213052887206,1.0,0.0,0.0,0.0,1.0,0.0,0.0,0.0,1.0,-0.047900390625,0.620310058594,9.92376342773,0.1,0.0,0.0,0.0,0.1,0.0,0.0,0.0,0.1
1446040352340494772,124,1446040352337251901,robocape,11.7199288541,0.258027655263,4.25822549691,0.0,10.0,0.0,0.0,0.0,10.0,0.0,0.0,0.0,10.0,0.100800647259,0.0739027202497,-0.00692421883421,1.0,0.0,0.0,0.0,1.0,0.0,0.0,0.0,1.0,-0.128133544922,0.981958007813,9.93454101563,0.1,0.0,0.0,0.0,0.1,0.0,0.0,0.0,0.1
1446040352373581772,125,1446040352370604038,robocape,11.7353244886,0.37951668494,4.30860263561,0.0,10.0,0.0,0.0,0.0,10.0,0.0,0.0,0.0,10.0,-0.00159789665405,0.0669785014155,0.00945422186978,1.0,0.0,0.0,0.0,1.0,0.0,0.0,0.0,1.0,-0.148491210938,0.985550537109,10.1812280273,0.1,0.0,0.0,0.0,0.1,0.0,0.0,0.0,0.1
1446040352407350064,126,1446040352404309034,robocape,11.5652432002,0.425517380454,4.35235615544,0.0,10.0,0.0,0.0,0.0,10.0,0.0,0.0,0.0,10.0,-0.099602224769,0.0274305592278,0.0137152796139,1.0,0.0,0.0,0.0,1.0,0.0,0.0,0.0,1.0,-0.119750976563,0.931662597656,10.157277832,0.1,0.0,0.0,0.0,0.1,0.0,0.0,0.0,0.1
1446040352440259689,127,1446040352437186002,robocape,11.2188290106,0.443667970004,4.41875473613,0.0,10.0,0.0,0.0,0.0,10.0,0.0,0.0,0.0,10.0,-0.192546546813,0.015313176268,0.0279631914458,1.0,0.0,0.0,0.0,1.0,0.0,0.0,0.0,1.0,-0.149688720703,0.895737304688,10.0926123047,0.1,0.0,0.0,0.0,0.1,0.0,0.0,0.0,0.1
1446040352473632189,128,1446040352470632076,robocape,10.6886403003,0.442445080146,4.51068443568,0.0,10.0,0.0,0.0,0.0,10.0,0.0,0.0,0.0,10.0,-0.289086136328,0.00759000910673,0.0427437354958,1.0,0.0,0.0,0.0,1.0,0.0,0.0,0.0,1.0,-0.0598754882813,0.706530761719,10.0279467773,0.1,0.0,0.0,0.0,0.1,0.0,0.0,0.0,0.1
1446040352507496564,129,1446040352504375934,robocape,10.0838362251,0.378827662541,4.50571857948,0.0,10.0,0.0,0.0,0.0,10.0,0.0,0.0,0.0,10.0,-0.327435656025,-0.034088461953,-0.00133158054504,1.0,0.0,0.0,0.0,1.0,0.0,0.0,0.0,1.0,-0.106578369141,-0.277822265625,10.0339343262,0.1,0.0,0.0,0.0,0.1,0.0,0.0,0.0,0.1
1446040352540635981,130,1446040352537278890,robocape,9.64350673358,0.373970172861,4.56137862044,0.0,10.0,0.0,0.0,0.0,10.0,0.0,0.0,0.0,10.0,-0.240083972271,0.00173105470855,0.0247673981377,1.0,0.0,0.0,0.0,1.0,0.0,0.0,0.0,1.0,0.0299377441406,-0.779578857422,10.0135766602,0.1,0.0,0.0,0.0,0.1,0.0,0.0,0.0,0.1
1446040352573870689,131,1446040352570765972,robocape,9.40145006159,0.392113240035,4.59799556148,0.0,10.0,0.0,0.0,0.0,10.0,0.0,0.0,0.0,10.0,-0.135155425322,0.0118510668509,0.0133158054504,1.0,0.0,0.0,0.0,1.0,0.0,0.0,0.0,1.0,0.216749267578,-1.04422851562,10.0315393066,0.1,0.0,0.0,0.0,0.1,0.0,0.0,0.0,0.1
1446040352607527731,132,1446040352604461908,robocape,9.39897942372,0.429709302559,4.61972129466,0.0,10.0,0.0,0.0,0.0,10.0,0.0,0.0,0.0,10.0,-0.00878843159726,0.0206394984481,0.00439421579863,1.0,0.0,0.0,0.0,1.0,0.0,0.0,0.0,1.0,-0.1149609375,-1.05380859375,10.0614770508,0.1,0.0,0.0,0.0,0.1,0.0,0.0,0.0,0.1
1446040352640363772,133,1446040352637176036,robocape,9.60292465703,0.490252455829,4.63953804586,0.0,10.0,0.0,0.0,0.0,10.0,0.0,0.0,0.0,10.0,0.099868540878,0.0323574072445,0.00173105470855,1.0,0.0,0.0,0.0,1.0,0.0,0.0,0.0,1.0,0.119750976563,-0.773591308594,10.0135766602,0.1,0.0,0.0,0.0,0.1,0.0,0.0,0.0,0.1
1446040352673989939,134,1446040352670846939,robocape,9.93296693332,0.572901767021,4.59391167336,0.0,10.0,0.0,0.0,0.0,10.0,0.0,0.0,0.0,10.0,0.166314410075,0.0379500455336,-0.0339553038985,1.0,0.0,0.0,0.0,1.0,0.0,0.0,0.0,1.0,0.00239501953125,-0.360450439453,10.0351318359,0.1,0.0,0.0,0.0,0.1,0.0,0.0,0.0,0.1
1446040352707565523,135,1446040352704559087,robocape,10.3006847581,0.645237250203,4.60996970711,0.0,10.0,0.0,0.0,0.0,10.0,0.0,0.0,0.0,10.0,0.185755486033,0.0380832035881,-0.00133158054504,1.0,0.0,0.0,0.0,1.0,0.0,0.0,0.0,1.0,-0.0383203125,0.0455053710938,10.055489502,0.1,0.0,0.0,0.0,0.1,0.0,0.0,0.0,0.1
1446040352740292564,136,1446040352737149000,robocape,10.5324073066,0.698294058499,4.64613498372,0.0,10.0,0.0,0.0,0.0,10.0,0.0,0.0,0.0,10.0,0.113716978546,0.0299605622634,0.0103863282513,1.0,0.0,0.0,0.0,1.0,0.0,0.0,0.0,1.0,-0.184416503906,0.531694335938,10.0004040527,0.1,0.0,0.0,0.0,0.1,0.0,0.0,0.0,0.1
1446040352773750773,137,1446040352770715951,robocape,10.554167064,0.733335504579,4.68432526026,0.0,10.0,0.0,0.0,0.0,10.0,0.0,0.0,0.0,10.0,0.00279631914458,0.0207726565026,0.0126500151779,1.0,0.0,0.0,0.0,1.0,0.0,0.0,0.0,1.0,-0.0490979003906,0.835861816406,10.0303417969,0.1,0.0,0.0,0.0,0.1,0.0,0.0,0.0,0.1
1446040352807706981,138,1446040352804668903,robocape,10.3886482406,0.756804460981,4.70402662014,0.0,10.0,0.0,0.0,0.0,10.0,0.0,0.0,0.0,10.0,-0.0958737992429,0.0129163312869,0.00386158358061,1.0,0.0,0.0,0.0,1.0,0.0,0.0,0.0,1.0,-0.0946032714844,0.467028808594,10.0327368164,0.1,0.0,0.0,0.0,0.1,0.0,0.0,0.0,0.1
1446040352840543398,139,1446040352837451934,robocape,10.1533090507,0.773754403845,4.72478432275,0.0,10.0,0.0,0.0,0.0,10.0,0.0,0.0,0.0,10.0,-0.132492264231,0.00958737992429,0.00492684801665,1.0,0.0,0.0,0.0,1.0,0.0,0.0,0.0,1.0,-0.0610729980469,-0.0706530761719,10.0471069336,0.1,0.0,0.0,0.0,0.1,0.0,0.0,0.0,0.1
1446040352873781814,140,1446040352870811939,robocape,9.94738582576,0.790226839341,4.75429776553,0.0,10.0,0.0,0.0,0.0,10.0,0.0,0.0,0.0,10.0,-0.1167796138,0.0101200121423,0.00958737992429,1.0,0.0,0.0,0.0,1.0,0.0,0.0,0.0,1.0,-0.05748046875,-0.4215234375,10.0782421875,0.1,0.0,0.0,0.0,0.1,0.0,0.0,0.0,0.1
1446040352907389523,141,1446040352904386997,robocape,9.840682316,0.816246693339,4.78532305648,0.0,10.0,0.0,0.0,0.0,10.0,0.0,0.0,0.0,10.0,-0.0643153403254,0.0151800182135,0.00972053797879,1.0,0.0,0.0,0.0,1.0,0.0,0.0,0.0,1.0,0.028740234375,-0.531694335938,10.0495019531,0.1,0.0,0.0,0.0,0.1,0.0,0.0,0.0,0.1
1446040352947168023,142,1446040352937331914,robocape,9.87884870516,0.856548381329,4.80954123693,0.0,10.0,0.0,0.0,0.0,10.0,0.0,0.0,0.0,10.0,0.0121173829599,0.0219710789932,0.00519316412565,1.0,0.0,0.0,0.0,1.0,0.0,0.0,0.0,1.0,0.028740234375,-0.597557373047,10.0231567383,0.1,0.0,0.0,0.0,0.1,0.0,0.0,0.0,0.1
1446040352973879648,143,1446040352970885038,robocape,10.018995117,0.904435325534,4.83585544957,0.0,10.0,0.0,0.0,0.0,10.0,0.0,0.0,0.0,10.0,0.065780078925,0.0260989786828,0.00572579634367,1.0,0.0,0.0,0.0,1.0,0.0,0.0,0.0,1.0,0.0131726074219,-0.410745849609,10.0303417969,0.1,0.0,0.0,0.0,0.1,0.0,0.0,0.0,0.1
1446040353007733148,144,1446040353004543066,robocape,10.213651392,0.959138134748,4.85717857377,0.0,10.0,0.0,0.0,0.0,10.0,0.0,0.0,0.0,10.0,0.0944090606433,0.0291616139364,0.00253000303558,1.0,0.0,0.0,0.0,1.0,0.0,0.0,0.0,1.0,0.149688720703,-0.168848876953,10.0315393066,0.1,0.0,0.0,0.0,0.1,0.0,0.0,0.0,0.1
1446040353040246981,145,1446040353037153005,robocape,10.3987455216,1.00891304604,4.89596037146,0.0,10.0,0.0,0.0,0.0,10.0,0.0,0.0,0.0,10.0,0.0890827384632,0.0282295075548,0.0118510668509,1.0,0.0,0.0,0.0,1.0,0.0,0.0,0.0,1.0,-0.148491210938,0.162861328125,10.0051940918,0.1,0.0,0.0,0.0,0.1,0.0,0.0,0.0,0.1
1446040353074696773,146,1446040353071495056,robocape,10.5020402199,1.05012558163,4.93265354606,0.0,10.0,0.0,0.0,0.0,10.0,0.0,0.0,0.0,10.0,0.0458063707494,0.0235689756472,0.0113184346328,1.0,0.0,0.0,0.0,1.0,0.0,0.0,0.0,1.0,-0.0754431152344,0.496966552734,10.0279467773,0.1,0.0,0.0,0.0,0.1,0.0,0.0,0.0,0.1
1446040353107456356,147,1446040353104228973,robocape,10.482860433,1.08161664873,4.9572675239,0.0,10.0,0.0,0.0,0.0,10.0,0.0,0.0,0.0,10.0,-0.0187752856851,0.0173105470855,0.00572579634367,1.0,0.0,0.0,0.0,1.0,0.0,0.0,0.0,1.0,-0.0730480957031,0.392783203125,10.0506994629,0.1,0.0,0.0,0.0,0.1,0.0,0.0,0.0,0.1
1446040353140583064,148,1446040353137414932,robocape,10.3774538116,1.11040942905,4.97784210313,0.0,10.0,0.0,0.0,0.0,10.0,0.0,0.0,0.0,10.0,-0.0641821822709,0.0154463343225,0.00372842552611,1.0,0.0,0.0,0.0,1.0,0.0,0.0,0.0,1.0,-0.0706530761719,0.0155676269531,10.0291442871,0.1,0.0,0.0,0.0,0.1,0.0,0.0,0.0,0.1
1446040353173751023,149,1446040353170711994,robocape,10.2912517883,1.13587809932,5.01113817599,0.0,10.0,0.0,0.0,0.0,10.0,0.0,0.0,0.0,10.0,-0.0540621701286,0.0149137021044,0.0106526443603,1.0,0.0,0.0,0.0,1.0,0.0,0.0,0.0,1.0,-0.0754431152344,-0.283809814453,10.0506994629,0.1,0.0,0.0,0.0,0.1,0.0,0.0,0.0,0.1
1446040353207446356,150,1446040353204191923,robocape,10.2619512629,1.1681646425,5.04105767848,0.0,10.0,0.0,0.0,0.0,10.0,0.0,0.0,0.0,10.0,-0.0239684498107,0.0181094954125,0.00838895743375,1.0,0.0,0.0,0.0,1.0,0.0,0.0,0.0,1.0,0.0490979003906,-0.317340087891,10.0650695801,0.1,0.0,0.0,0.0,0.1,0.0,0.0,0.0,0.1
1446040353240336064,151,1446040353237195014,robocape,10.2989821114,1.20936028658,5.06591043492,0.0,10.0,0.0,0.0,0.0,10.0,0.0,0.0,0.0,10.0,0.0110521185238,0.0222373951022,0.00506000607115,1.0,0.0,0.0,0.0,1.0,0.0,0.0,0.0,1.0,-0.0335302734375,-0.374820556641,10.055489502,0.1,0.0,0.0,0.0,0.1,0.0,0.0,0.0,0.1
1446040353273812273,152,1446040353270765066,robocape,10.3957624743,1.25394313679,5.09330246547,0.0,10.0,0.0,0.0,0.0,10.0,0.0,0.0,0.0,10.0,0.0424774193868,0.0242347659197,0.00612527050718,1.0,0.0,0.0,0.0,1.0,0.0,0.0,0.0,1.0,0.0203576660156,-0.264649658203,10.0351318359,0.1,0.0,0.0,0.0,0.1,0.0,0.0,0.0,0.1
1446040353307196106,153,1446040353304205894,robocape,10.5265038775,1.30101275991,5.11702233571,0.0,10.0,0.0,0.0,0.0,10.0,0.0,0.0,0.0,10.0,0.0603205986903,0.0251668723012,0.00399474163512,1.0,0.0,0.0,0.0,1.0,0.0,0.0,0.0,1.0,-0.0754431152344,-0.142503662109,10.0722546387,0.1,0.0,0.0,0.0,0.1,0.0,0.0,0.0,0.1
1446040353340379773,154,1446040353337285995,robocape,10.6411351925,1.34716453315,5.14466639882,0.0,10.0,0.0,0.0,0.0,10.0,0.0,0.0,0.0,10.0,0.0516653251475,0.0250337142467,0.00599211245268,1.0,0.0,0.0,0.0,1.0,0.0,0.0,0.0,1.0,-0.0371228027344,0.0850231933594,10.0279467773,0.1,0.0,0.0,0.0,0.1,0.0,0.0,0.0,0.1
1446040353373695939,155,1446040353370691061,robocape,10.6815587431,1.38454810548,5.17574492761,0.0,10.0,0.0,0.0,0.0,10.0,0.0,0.0,0.0,10.0,0.0123836990689,0.0207726565026,0.00838895743375,1.0,0.0,0.0,0.0,1.0,0.0,0.0,0.0,1.0,-0.111368408203,0.229921875,10.039921875,0.1,0.0,0.0,0.0,0.1,0.0,0.0,0.0,0.1
1446040353407712190,156,1446040353404634952,robocape,10.649560185,1.4170680461,5.20471314434,0.0,10.0,0.0,0.0,0.0,10.0,0.0,0.0,0.0,10.0,-0.0258326625738,0.017976337358,0.00759000910673,1.0,0.0,0.0,0.0,1.0,0.0,0.0,0.0,1.0,-0.0586779785156,0.09580078125,10.0351318359,0.1,0.0,0.0,0.0,0.1,0.0,0.0,0.0,0.1
1446040353440512231,157,1446040353437418937,robocape,10.5934219759,1.44856407511,5.22868531057,0.0,10.0,0.0,0.0,0.0,10.0,0.0,0.0,0.0,10.0,-0.0384826777516,0.016911072922,0.00506000607115,1.0,0.0,0.0,0.0,1.0,0.0,0.0,0.0,1.0,-0.0586779785156,-0.0981958007813,10.024354248,0.1,0.0,0.0,0.0,0.1,0.0,0.0,0.0,0.1
1446040353473973356,158,1446040353470940113,robocape,10.5600528064,1.47893024074,5.25881858797,0.0,10.0,0.0,0.0,0.0,10.0,0.0,0.0,0.0,10.0,-0.0264984528463,0.016911072922,0.00838895743375,1.0,0.0,0.0,0.0,1.0,0.0,0.0,0.0,1.0,-0.0455053710938,-0.227526855469,10.0375268555,0.1,0.0,0.0,0.0,0.1,0.0,0.0,0.0,0.1
1446040353507538773,159,1446040353504378080,robocape,10.5695448856,1.51573717355,5.2876748335,0.0,10.0,0.0,0.0,0.0,10.0,0.0,0.0,0.0,10.0,-0.00386158358061,0.0201068662301,0.00719053494321,1.0,0.0,0.0,0.0,1.0,0.0,0.0,0.0,1.0,0.0167651367188,-0.264649658203,10.055489502,0.1,0.0,0.0,0.0,0.1,0.0,0.0,0.0,0.1
1446040353540791065,160,1446040353537448883,robocape,10.633814454,1.55844645987,5.31384969988,0.0,10.0,0.0,0.0,0.0,10.0,0.0,0.0,0.0,10.0,0.0250337142467,0.0229031853747,0.00532632218016,1.0,0.0,0.0,0.0,1.0,0.0,0.0,0.0,1.0,-0.028740234375,-0.246687011719,10.0411193848,0.1,0.0,0.0,0.0,0.1,0.0,0.0,0.0,0.1
1446040353573898440,161,1446040353570775985,robocape,10.7295335375,1.60315963089,5.34037610886,0.0,10.0,0.0,0.0,0.0,10.0,0.0,0.0,0.0,10.0,0.0415453130052,0.0239684498107,0.00532632218016,1.0,0.0,0.0,0.0,1.0,0.0,0.0,0.0,1.0,-0.0359252929688,-0.137713623047,10.0734521484,0.1,0.0,0.0,0.0,0.1,0.0,0.0,0.0,0.1
1446040353610565315,162,1446040353607469081,robocape,10.8156295005,1.64632610495,5.3685856853,0.0,10.0,0.0,0.0,0.0,10.0,0.0,0.0,0.0,10.0,0.0363521488796,0.0233026595382,0.00625842856169,1.0,0.0,0.0,0.0,1.0,0.0,0.0,0.0,1.0,-0.0407153320313,0.0502954101563,10.0590820312,0.1,0.0,0.0,0.0,0.1,0.0,0.0,0.0,0.1
1446040353640473940,163,1446040353637362003,robocape,10.8537385961,1.68579750189,5.39924758916,0.0,10.0,0.0,0.0,0.0,10.0,0.0,0.0,0.0,10.0,0.0109189604693,0.0215716048296,0.00772316716123,1.0,0.0,0.0,0.0,1.0,0.0,0.0,0.0,1.0,-0.0778381347656,0.136516113281,10.0435144043,0.1,0.0,0.0,0.0,0.1,0.0,0.0,0.0,0.1
1446040353673760065,164,1446040353670679092,robocape,10.8404381096,1.71922657834,5.42981805926,0.0,10.0,0.0,0.0,0.0,10.0,0.0,0.0,0.0,10.0,-0.0162452826495,0.0183758115215,0.00812264132474,1.0,0.0,0.0,0.0,1.0,0.0,0.0,0.0,1.0,-0.0455053710938,0.0682580566406,10.0674645996,0.1,0.0,0.0,0.0,0.1,0.0,0.0,0.0,0.1
1446040353707249356,165,1446040353703780889,robocape,10.8101181166,1.75270013263,5.4566183533,0.0,10.0,0.0,0.0,0.0,10.0,0.0,0.0,0.0,10.0,-0.0251668723012,0.017976337358,0.00612527050718,1.0,0.0,0.0,0.0,1.0,0.0,0.0,0.0,1.0,-0.0455053710938,-0.0969982910156,10.0495019531,0.1,0.0,0.0,0.0,0.1,0.0,0.0,0.0,0.1
1446040353740405773,166,1446040353737341880,robocape,10.8048277221,1.78667548944,5.48627481673,0.0,10.0,0.0,0.0,0.0,10.0,0.0,0.0,0.0,10.0,-0.0119842249054,0.0185089695761,0.00759000910673,1.0,0.0,0.0,0.0,1.0,0.0,0.0,0.0,1.0,-0.0323327636719,-0.207169189453,10.0339343262,0.1,0.0,0.0,0.0,0.1,0.0,0.0,0.0,0.1
1446040353773741940,167,1446040353770534992,robocape,10.8378704731,1.82538264902,5.51412602214,0.0,10.0,0.0,0.0,0.0,10.0,0.0,0.0,0.0,10.0,0.00825579937925,0.0207726565026,0.00625842856169,1.0,0.0,0.0,0.0,1.0,0.0,0.0,0.0,1.0,-0.00119750976563,-0.215551757813,10.0351318359,0.1,0.0,0.0,0.0,0.1,0.0,0.0,0.0,0.1
1446040353807436648,168,1446040353803987026,robocape,10.9047962747,1.86707895948,5.54118489936,0.0,10.0,0.0,0.0,0.0,10.0,0.0,0.0,0.0,10.0,0.0260989786828,0.0222373951022,0.00559263828917,1.0,0.0,0.0,0.0,1.0,0.0,0.0,0.0,1.0,-0.0598754882813,-0.161663818359,10.0219592285,0.1,0.0,0.0,0.0,0.1,0.0,0.0,0.0,0.1
1446040353840504565,169,1446040353837527036,robocape,10.985298698,1.90915331339,5.57043205662,0.0,10.0,0.0,0.0,0.0,10.0,0.0,0.0,0.0,10.0,0.0331563555715,0.0226368692657,0.0066579027252,1.0,0.0,0.0,0.0,1.0,0.0,0.0,0.0,1.0,-0.0359252929688,-0.0395178222656,10.0638720703,0.1,0.0,0.0,0.0,0.1,0.0,0.0,0.0,0.1
1446040353873809106,170,1446040353870809078,robocape,11.0453290242,1.94884457895,5.60175020218,0.0,10.0,0.0,0.0,0.0,10.0,0.0,0.0,0.0,10.0,0.0222373951022,0.0215716048296,0.00785632521573,1.0,0.0,0.0,0.0,1.0,0.0,0.0,0.0,1.0,-0.0622705078125,0.0694555664063,10.0435144043,0.1,0.0,0.0,0.0,0.1,0.0,0.0,0.0,0.1
1446040353907541898,171,1446040353904110908,robocape,11.0650838644,1.98497441699,5.63212773759,0.0,10.0,0.0,0.0,0.0,10.0,0.0,0.0,0.0,10.0,0.000932106381528,0.0195742340121,0.00759000910673,1.0,0.0,0.0,0.0,1.0,0.0,0.0,0.0,1.0,-0.047900390625,0.0922082519531,10.0447119141,0.1,0.0,0.0,0.0,0.1,0.0,0.0,0.0,0.1
1446040353947383648,172,1446040353937406063,robocape,11.0492747896,2.01914794353,5.66130330825,0.0,10.0,0.0,0.0,0.0,10.0,0.0,0.0,0.0,10.0,-0.0178431793035,0.0183758115215,0.00705737688871,1.0,0.0,0.0,0.0,1.0,0.0,0.0,0.0,1.0,-0.047900390625,0.00239501953125,10.0471069336,0.1,0.0,0.0,0.0,0.1,0.0,0.0,0.0,0.1
1446040353973711815,173,1446040353970695018,robocape,11.0394859482,2.05456375686,5.68968898841,0.0,10.0,0.0,0.0,0.0,10.0,0.0,0.0,0.0,10.0,-0.0146473859954,0.0189084437396,0.00652474467069,1.0,0.0,0.0,0.0,1.0,0.0,0.0,0.0,1.0,-0.0526904296875,-0.141306152344,10.0530944824,0.1,0.0,0.0,0.0,0.1,0.0,0.0,0.0,0.1
1446040354007475481,174,1446040354004020929,robocape,11.0598084473,2.09129754337,5.72056652876,0.0,10.0,0.0,0.0,0.0,10.0,0.0,0.0,0.0,10.0,0.00119842249054,0.0198405501211,0.00772316716123,1.0,0.0,0.0,0.0,1.0,0.0,0.0,0.0,1.0,-0.0275427246094,-0.201181640625,10.0578845215,0.1,0.0,0.0,0.0,0.1,0.0,0.0,0.0,0.1
1446040354040627273,175,1446040354037547111,robocape,11.1086571169,2.13142187612,5.74997204096,0.0,10.0,0.0,0.0,0.0,10.0,0.0,0.0,0.0,10.0,0.0162452826495,0.0214384467751,0.0066579027252,1.0,0.0,0.0,0.0,1.0,0.0,0.0,0.0,1.0,-0.0311352539063,-0.17244140625,10.0530944824,0.1,0.0,0.0,0.0,0.1,0.0,0.0,0.0,0.1
1446040354073934357,176,1446040354070873975,robocape,11.1758588824,2.17290849361,5.78172516161,0.0,10.0,0.0,0.0,0.0,10.0,0.0,0.0,0.0,10.0,0.0258326625738,0.0223705531567,0.00772316716123,1.0,0.0,0.0,0.0,1.0,0.0,0.0,0.0,1.0,-0.0251477050781,-0.0922082519531,10.0506994629,0.1,0.0,0.0,0.0,0.1,0.0,0.0,0.0,0.1
1446040354107661232,177,1446040354104034900,robocape,11.2341089508,2.21299033916,5.81309092459,0.0,10.0,0.0,0.0,0.0,10.0,0.0,0.0,0.0,10.0,0.0210389726116,0.0215716048296,0.00759000910673,1.0,0.0,0.0,0.0,1.0,0.0,0.0,0.0,1.0,-0.0598754882813,0.0155676269531,10.0363293457,0.1,0.0,0.0,0.0,0.1,0.0,0.0,0.0,0.1
1446040354140981315,178,1446040354137960910,robocape,11.2561332586,2.25076808431,5.84374355275,0.0,10.0,0.0,0.0,0.0,10.0,0.0,0.0,0.0,10.0,0.00186421276306,0.0202400242846,0.00732369299772,1.0,0.0,0.0,0.0,1.0,0.0,0.0,0.0,1.0,-0.0419128417969,0.0742456054688,10.0495019531,0.1,0.0,0.0,0.0,0.1,0.0,0.0,0.0,0.1
1446040354173733482,179,1446040354170665025,robocape,11.2547242062,2.28678367348,5.87344094377,0.0,10.0,0.0,0.0,0.0,10.0,0.0,0.0,0.0,10.0,-0.0105194863058,0.0191747598486,0.00692421883421,1.0,0.0,0.0,0.0,1.0,0.0,0.0,0.0,1.0,-0.0395178222656,0.01916015625,10.0830322266,0.1,0.0,0.0,0.0,0.1,0.0,0.0,0.0,0.1
1446040354207736523,180,1446040354204102039,robocape,11.2525141144,2.3229533166,5.90140157857,0.0,10.0,0.0,0.0,0.0,10.0,0.0,0.0,0.0,10.0,-0.0109189604693,0.0190416017941,0.00599211245268,1.0,0.0,0.0,0.0,1.0,0.0,0.0,0.0,1.0,-0.0323327636719,-0.101788330078,10.0495019531,0.1,0.0,0.0,0.0,0.1,0.0,0.0,0.0,0.1
1446040354240435315,181,1446040354237355947,robocape,11.2695909168,2.36014224478,5.93210913765,0.0,10.0,0.0,0.0,0.0,10.0,0.0,0.0,0.0,10.0,-0.000798948327024,0.0198405501211,0.00732369299772,1.0,0.0,0.0,0.0,1.0,0.0,0.0,0.0,1.0,-0.0359252929688,-0.186811523438,10.0315393066,0.1,0.0,0.0,0.0,0.1,0.0,0.0,0.0,0.1
1446040354273845898,182,1446040354270567893,robocape,11.3116503207,2.40067957979,5.96161346979,0.0,10.0,0.0,0.0,0.0,10.0,0.0,0.0,0.0,10.0,0.0123836990689,0.0214384467751,0.00639158661619,1.0,0.0,0.0,0.0,1.0,0.0,0.0,0.0,1.0,-0.0263452148438,-0.152083740234,10.0495019531,0.1,0.0,0.0,0.0,0.1,0.0,0.0,0.0,0.1
1446040354307117565,183,1446040354304069995,robocape,11.3699650551,2.44142892135,5.99142744074,0.0,10.0,0.0,0.0,0.0,10.0,0.0,0.0,0.0,10.0,0.0209058145571,0.0215716048296,0.00652474467069,1.0,0.0,0.0,0.0,1.0,0.0,0.0,0.0,1.0,-0.0335302734375,-0.0706530761719,10.0566870117,0.1,0.0,0.0,0.0,0.1,0.0,0.0,0.0,0.1
1446040354340376357,184,1446040354337387084,robocape,11.4206025712,2.48217778748,6.02163444441,0.0,10.0,0.0,0.0,0.0,10.0,0.0,0.0,0.0,10.0,0.0167779148675,0.0215716048296,0.0066579027252,1.0,0.0,0.0,0.0,1.0,0.0,0.0,0.0,1.0,-0.0407153320313,-0.00718505859375,10.0471069336,0.1,0.0,0.0,0.0,0.1,0.0,0.0,0.0,0.1
1446040354373682148,185,1446040354370687007,robocape,11.4478978323,2.52021442675,6.05175703135,0.0,10.0,0.0,0.0,0.0,10.0,0.0,0.0,0.0,10.0,0.00439421579863,0.0201068662301,0.0067910607797,1.0,0.0,0.0,0.0,1.0,0.0,0.0,0.0,1.0,-0.0490979003906,0.0383203125,10.0387243652,0.1,0.0,0.0,0.0,0.1,0.0,0.0,0.0,0.1
1446040354407163065,186,1446040354404155969,robocape,11.4561058254,2.55728405883,6.0821050143,0.0,10.0,0.0,0.0,0.0,10.0,0.0,0.0,0.0,10.0,-0.00572579634367,0.0195742340121,0.00692421883421,1.0,0.0,0.0,0.0,1.0,0.0,0.0,0.0,1.0,-0.0538879394531,-0.0383203125,10.024354248,0.1,0.0,0.0,0.0,0.1,0.0,0.0,0.0,0.1
1446040354440444732,187,1446040354437428951,robocape,11.4608206062,2.59416226502,6.11248500306,0.0,10.0,0.0,0.0,0.0,10.0,0.0,0.0,0.0,10.0,-0.00759000910673,0.0194410759576,0.00692421883421,1.0,0.0,0.0,0.0,1.0,0.0,0.0,0.0,1.0,-0.0383203125,-0.112565917969,10.0327368164,0.1,0.0,0.0,0.0,0.1,0.0,0.0,0.0,0.1
1446040354473720857,188,1446040354470693111,robocape,11.4799652294,2.63300908984,6.14350316798,0.0,10.0,0.0,0.0,0.0,10.0,0.0,0.0,0.0,10.0,0.0,0.0205063403936,0.00705737688871,1.0,0.0,0.0,0.0,1.0,0.0,0.0,0.0,1.0,-0.0323327636719,-0.154478759766,10.0674645996,0.1,0.0,0.0,0.0,0.1,0.0,0.0,0.0,0.1
1446040354507013232,189,1446040354504039049,robocape,11.5200701459,2.67201531352,6.17373905817,0.0,10.0,0.0,0.0,0.0,10.0,0.0,0.0,0.0,10.0,0.0110521185238,0.0205063403936,0.0066579027252,1.0,0.0,0.0,0.0,1.0,0.0,0.0,0.0,1.0,-0.0323327636719,-0.135318603516,10.0423168945,0.1,0.0,0.0,0.0,0.1,0.0,0.0,0.0,0.1
1446040354540770898,190,1446040354537511110,robocape,11.5731461624,2.71278182045,6.20435164762,0.0,10.0,0.0,0.0,0.0,10.0,0.0,0.0,0.0,10.0,0.0178431793035,0.0214384467751,0.0066579027252,1.0,0.0,0.0,0.0,1.0,0.0,0.0,0.0,1.0,-0.0323327636719,-0.0850231933594,10.0387243652,0.1,0.0,0.0,0.0,0.1,0.0,0.0,0.0,0.1
1446040354573558148,191,1446040354570548057,robocape,11.6187730201,2.75365363797,6.23485838839,0.0,10.0,0.0,0.0,0.0,10.0,0.0,0.0,0.0,10.0,0.0138484376684,0.0214384467751,0.00652474467069,1.0,0.0,0.0,0.0,1.0,0.0,0.0,0.0,1.0,-0.0311352539063,-0.0167651367188,10.0471069336,0.1,0.0,0.0,0.0,0.1,0.0,0.0,0.0,0.1
1446040354607324023,192,1446040354604178905,robocape,11.6473509316,2.79365816106,6.26510132482,0.0,10.0,0.0,0.0,0.0,10.0,0.0,0.0,0.0,10.0,0.00479368996214,0.0209058145571,0.00639158661619,1.0,0.0,0.0,0.0,1.0,0.0,0.0,0.0,1.0,-0.0359252929688,-0.0107775878906,10.0435144043,0.1,0.0,0.0,0.0,0.1,0.0,0.0,0.0,0.1
1446040354640444232,193,1446040354637341022,robocape,11.6601285245,2.83089927295,6.29544881936,0.0,10.0,0.0,0.0,0.0,10.0,0.0,0.0,0.0,10.0,-0.00359526747161,0.0194410759576,0.0066579027252,1.0,0.0,0.0,0.0,1.0,0.0,0.0,0.0,1.0,-0.0203576660156,-0.0371228027344,10.055489502,0.1,0.0,0.0,0.0,0.1,0.0,0.0,0.0,0.1
1446040354673807482,194,1446040354670727014,robocape,11.6712122346,2.8680908249,6.32637257048,0.0,10.0,0.0,0.0,0.0,10.0,0.0,0.0,0.0,10.0,-0.00452737385313,0.0194410759576,0.00692421883421,1.0,0.0,0.0,0.0,1.0,0.0,0.0,0.0,1.0,-0.0335302734375,-0.105380859375,10.0447119141,0.1,0.0,0.0,0.0,0.1,0.0,0.0,0.0,0.1
1446040354707350232,195,1446040354704171895,robocape,11.694440202,2.90660396079,6.35730487705,0.0,10.0,0.0,0.0,0.0,10.0,0.0,0.0,0.0,10.0,0.00186421276306,0.0201068662301,0.0067910607797,1.0,0.0,0.0,0.0,1.0,0.0,0.0,0.0,1.0,-0.0347277832031,-0.135318603516,10.0435144043,0.1,0.0,0.0,0.0,0.1,0.0,0.0,0.0,0.1
1446040354740370023,196,1446040354737325906,robocape,11.7369258422,2.94756143582,6.38897184865,0.0,10.0,0.0,0.0,0.0,10.0,0.0,0.0,0.0,10.0,0.0119842249054,0.0214384467751,0.00692421883421,1.0,0.0,0.0,0.0,1.0,0.0,0.0,0.0,1.0,-0.0419128417969,-0.132923583984,10.0471069336,0.1,0.0,0.0,0.0,0.1,0.0,0.0,0.0,0.1
1446040354773725857,197,1446040354770677089,robocape,11.787336783,2.98749440011,6.42073539868,0.0,10.0,0.0,0.0,0.0,10.0,0.0,0.0,0.0,10.0,0.016112124595,0.0209058145571,0.00705737688871,1.0,0.0,0.0,0.0,1.0,0.0,0.0,0.0,1.0,-0.0383203125,-0.0730480957031,10.0518969727,0.1,0.0,0.0,0.0,0.1,0.0,0.0,0.0,0.1
1446040354807053732,198,1446040354804006099,robocape,11.8300244686,3.02788985845,6.4519513207,0.0,10.0,0.0,0.0,0.0,10.0,0.0,0.0,0.0,10.0,0.0119842249054,0.0210389726116,0.0066579027252,1.0,0.0,0.0,0.0,1.0,0.0,0.0,0.0,1.0,-0.0311352539063,-0.0167651367188,10.0471069336,0.1,0.0,0.0,0.0,0.1,0.0,0.0,0.0,0.1
1446040354840406690,199,1446040354837438106,robocape,11.8579716119,3.06621281622,6.483680195,0.0,10.0,0.0,0.0,0.0,10.0,0.0,0.0,0.0,10.0,0.00412789968962,0.0199737081756,0.00705737688871,1.0,0.0,0.0,0.0,1.0,0.0,0.0,0.0,1.0,-0.0490979003906,-0.00838256835938,10.0375268555,0.1,0.0,0.0,0.0,0.1,0.0,0.0,0.0,0.1
1446040354873651274,200,1446040354870634078,robocape,11.8738770573,3.10446681926,6.51501344959,0.0,10.0,0.0,0.0,0.0,10.0,0.0,0.0,0.0,10.0,-0.00226368692657,0.0198405501211,0.0067910607797,1.0,0.0,0.0,0.0,1.0,0.0,0.0,0.0,1.0,-0.0490979003906,-0.0514929199219,10.0495019531,0.1,0.0,0.0,0.0,0.1,0.0,0.0,0.0,0.1
1446040354907192690,201,1446040354904172897,robocape,11.8890956781,3.14272056614,6.5466741236,0.0,10.0,0.0,0.0,0.0,10.0,0.0,0.0,0.0,10.0,-0.00266316109008,0.0198405501211,0.00692421883421,1.0,0.0,0.0,0.0,1.0,0.0,0.0,0.0,1.0,-0.0502954101563,-0.100590820313,10.0363293457,0.1,0.0,0.0,0.0,0.1,0.0,0.0,0.0,0.1
1446040354947148899,202,1446040354937288045,robocape,11.9151977784,3.18154898389,6.57820132795,0.0,10.0,0.0,0.0,0.0,10.0,0.0,0.0,0.0,10.0,0.00306263525359,0.0201068662301,0.0067910607797,1.0,0.0,0.0,0.0,1.0,0.0,0.0,0.0,1.0,-0.0395178222656,-0.124541015625,10.0459094238,0.1,0.0,0.0,0.0,0.1,0.0,0.0,0.0,0.1
1446040354973680732,203,1446040354970670938,robocape,11.9550047741,3.22133331857,6.61018964237,0.0,10.0,0.0,0.0,0.0,10.0,0.0,0.0,0.0,10.0,0.0102531701968,0.0206394984481,0.00692421883421,1.0,0.0,0.0,0.0,1.0,0.0,0.0,0.0,1.0,-0.0335302734375,-0.113763427734,10.0518969727,0.1,0.0,0.0,0.0,0.1,0.0,0.0,0.0,0.1
1446040355010634607,204,1446040355007628917,robocape,11.9999682067,3.26264124531,6.64255869041,0.0,10.0,0.0,0.0,0.0,10.0,0.0,0.0,0.0,10.0,0.0129163312869,0.0214384467751,0.00692421883421,1.0,0.0,0.0,0.0,1.0,0.0,0.0,0.0,1.0,-0.0359252929688,-0.0694555664063,10.0495019531,0.1,0.0,0.0,0.0,0.1,0.0,0.0,0.0,0.1
1446040355040419649,205,1446040355037396907,robocape,12.0415539166,3.30179621546,6.67562520595,0.0,10.0,0.0,0.0,0.0,10.0,0.0,0.0,0.0,10.0,0.0110521185238,0.0203731823391,0.00745685105222,1.0,0.0,0.0,0.0,1.0,0.0,0.0,0.0,1.0,-0.0359252929688,-0.0347277832031,10.0483044434,0.1,0.0,0.0,0.0,0.1,0.0,0.0,0.0,0.1
1446040355073878565,206,1446040355070784091,robocape,12.0728425002,3.34134025949,6.70736127479,0.0,10.0,0.0,0.0,0.0,10.0,0.0,0.0,0.0,10.0,0.00559263828917,0.0203731823391,0.0066579027252,1.0,0.0,0.0,0.0,1.0,0.0,0.0,0.0,1.0,-0.0359252929688,-0.01916015625,10.0435144043,0.1,0.0,0.0,0.0,0.1,0.0,0.0,0.0,0.1
1446040355107394607,207,1446040355104166030,robocape,12.0936919819,3.3791980152,6.74017687565,0.0,10.0,0.0,0.0,0.0,10.0,0.0,0.0,0.0,10.0,0.0,0.0195742340121,0.00732369299772,1.0,0.0,0.0,0.0,1.0,0.0,0.0,0.0,1.0,-0.05748046875,-0.0562829589844,10.080637207,0.1,0.0,0.0,0.0,0.1,0.0,0.0,0.0,0.1
1446040355140360315,208,1446040355137284040,robocape,12.1135894514,3.41716020003,6.77283169841,0.0,10.0,0.0,0.0,0.0,10.0,0.0,0.0,0.0,10.0,-0.000532632218016,0.0195742340121,0.00719053494321,1.0,0.0,0.0,0.0,1.0,0.0,0.0,0.0,1.0,-0.0622705078125,-0.0993933105469,10.0387243652,0.1,0.0,0.0,0.0,0.1,0.0,0.0,0.0,0.1
1446040355173768982,209,1446040355170689105,robocape,12.1433396304,3.45555430264,6.80481384306,0.0,10.0,0.0,0.0,0.0,10.0,0.0,0.0,0.0,10.0,0.00466053190764,0.0197073920666,0.0067910607797,1.0,0.0,0.0,0.0,1.0,0.0,0.0,0.0,1.0,-0.0347277832031,-0.106578369141,10.0351318359,0.1,0.0,0.0,0.0,0.1,0.0,0.0,0.0,0.1
1446040355208053274,210,1446040355203941106,robocape,12.1810436932,3.49734714028,6.83807714462,0.0,10.0,0.0,0.0,0.0,10.0,0.0,0.0,0.0,10.0,0.00878843159726,0.0215716048296,0.00705737688871,1.0,0.0,0.0,0.0,1.0,0.0,0.0,0.0,1.0,-0.0490979003906,-0.0838256835938,10.0363293457,0.1,0.0,0.0,0.0,0.1,0.0,0.0,0.0,0.1
1446040355240403524,211,1446040355237340927,robocape,12.2218469555,3.53928654896,6.87092407944,0.0,10.0,0.0,0.0,0.0,10.0,0.0,0.0,0.0,10.0,0.0103863282513,0.0215716048296,0.0067910607797,1.0,0.0,0.0,0.0,1.0,0.0,0.0,0.0,1.0,-0.0514929199219,-0.0598754882813,10.0566870117,0.1,0.0,0.0,0.0,0.1,0.0,0.0,0.0,0.1
1446040355273935190,212,1446040355270625114,robocape,12.2594166897,3.58000688372,6.90257845252,0.0,10.0,0.0,0.0,0.0,10.0,0.0,0.0,0.0,10.0,0.00865527354276,0.0207726565026,0.00625842856169,1.0,0.0,0.0,0.0,1.0,0.0,0.0,0.0,1.0,-0.0383203125,-0.0455053710938,10.0578845215,0.1,0.0,0.0,0.0,0.1,0.0,0.0,0.0,0.1
1446040355307160982,213,1446040355304187059,robocape,12.2891644828,3.61950641824,6.9367042579,0.0,10.0,0.0,0.0,0.0,10.0,0.0,0.0,0.0,10.0,0.00439421579863,0.0203731823391,0.00759000910673,1.0,0.0,0.0,0.0,1.0,0.0,0.0,0.0,1.0,-0.0502954101563,-0.0407153320313,10.039921875,0.1,0.0,0.0,0.0,0.1,0.0,0.0,0.0,0.1
1446040355340380774,214,1446040355337384939,robocape,12.3116113912,3.65915340668,6.96942585583,0.0,10.0,0.0,0.0,0.0,10.0,0.0,0.0,0.0,10.0,0.000532632218016,0.0202400242846,0.0067910607797,1.0,0.0,0.0,0.0,1.0,0.0,0.0,0.0,1.0,-0.047900390625,-0.0610729980469,10.0303417969,0.1,0.0,0.0,0.0,0.1,0.0,0.0,0.0,0.1
1446040355373833899,215,1446040355370846033,robocape,12.3356957812,3.69813069851,7.00310882571,0.0,10.0,0.0,0.0,0.0,10.0,0.0,0.0,0.0,10.0,0.00133158054504,0.0199737081756,0.00732369299772,1.0,0.0,0.0,0.0,1.0,0.0,0.0,0.0,1.0,-0.0311352539063,-0.09580078125,10.0123791504,0.1,0.0,0.0,0.0,0.1,0.0,0.0,0.0,0.1
1446040355407412774,216,1446040355404377937,robocape,12.3673706117,3.73754700445,7.0361390868,0.0,10.0,0.0,0.0,0.0,10.0,0.0,0.0,0.0,10.0,0.00532632218016,0.0201068662301,0.00692421883421,1.0,0.0,0.0,0.0,1.0,0.0,0.0,0.0,1.0,-0.0371228027344,-0.106578369141,10.0315393066,0.1,0.0,0.0,0.0,0.1,0.0,0.0,0.0,0.1
1446040355441493274,217,1446040355438374996,robocape,12.4067309535,3.77787094672,7.0699263633,0.0,10.0,0.0,0.0,0.0,10.0,0.0,0.0,0.0,10.0,0.00932106381528,0.0206394984481,0.00719053494321,1.0,0.0,0.0,0.0,1.0,0.0,0.0,0.0,1.0,-0.0383203125,-0.09580078125,10.0578845215,0.1,0.0,0.0,0.0,0.1,0.0,0.0,0.0,0.1
1446040355473760316,218,1446040355470729112,robocape,12.4479775278,3.81817861282,7.10405239282,0.0,10.0,0.0,0.0,0.0,10.0,0.0,0.0,0.0,10.0,0.0102531701968,0.0206394984481,0.00732369299772,1.0,0.0,0.0,0.0,1.0,0.0,0.0,0.0,1.0,-0.0371228027344,-0.0586779785156,10.055489502,0.1,0.0,0.0,0.0,0.1,0.0,0.0,0.0,0.1
1446040355507173024,219,1446040355503880977,robocape,12.4863547226,3.85917381095,7.13896307318,0.0,10.0,0.0,0.0,0.0,10.0,0.0,0.0,0.0,10.0,0.00865527354276,0.0210389726116,0.00759000910673,1.0,0.0,0.0,0.0,1.0,0.0,0.0,0.0,1.0,-0.0395178222656,-0.0335302734375,10.0375268555,0.1,0.0,0.0,0.0,0.1,0.0,0.0,0.0,0.1
1446040355540678899,220,1446040355537384986,robocape,12.5154455284,3.89847916049,7.17261099951,0.0,10.0,0.0,0.0,0.0,10.0,0.0,0.0,0.0,10.0,0.00372842552611,0.0199737081756,0.00705737688871,1.0,0.0,0.0,0.0,1.0,0.0,0.0,0.0,1.0,-0.0371228027344,-0.0407153320313,10.0423168945,0.1,0.0,0.0,0.0,0.1,0.0,0.0,0.0,0.1
1446040355575105107,221,1446040355571888923,robocape,12.5400388247,3.93856644336,7.20549939235,0.0,10.0,0.0,0.0,0.0,10.0,0.0,0.0,0.0,10.0,0.00133158054504,0.0202400242846,0.00652474467069,1.0,0.0,0.0,0.0,1.0,0.0,0.0,0.0,1.0,-0.0383203125,-0.0610729980469,10.0590820312,0.1,0.0,0.0,0.0,0.1,0.0,0.0,0.0,0.1
1446040355607364941,222,1446040355603897094,robocape,12.5682542283,3.97888641825,7.23875560348,0.0,10.0,0.0,0.0,0.0,10.0,0.0,0.0,0.0,10.0,0.0031957933081,0.0203731823391,0.0066579027252,1.0,0.0,0.0,0.0,1.0,0.0,0.0,0.0,1.0,-0.0431103515625,-0.09580078125,10.060279541,0.1,0.0,0.0,0.0,0.1,0.0,0.0,0.0,0.1
1446040355640572691,223,1446040355637497901,robocape,12.600558688,4.01985194491,7.27169045142,0.0,10.0,0.0,0.0,0.0,10.0,0.0,0.0,0.0,10.0,0.00532632218016,0.0206394984481,0.00639158661619,1.0,0.0,0.0,0.0,1.0,0.0,0.0,0.0,1.0,-0.0443078613281,-0.0874182128906,10.0483044434,0.1,0.0,0.0,0.0,0.1,0.0,0.0,0.0,0.1
1446040355673912649,224,1446040355670866012,robocape,12.6385809866,4.06106519991,7.30603445365,0.0,10.0,0.0,0.0,0.0,10.0,0.0,0.0,0.0,10.0,0.00825579937925,0.0209058145571,0.00705737688871,1.0,0.0,0.0,0.0,1.0,0.0,0.0,0.0,1.0,-0.0514929199219,-0.0706530761719,10.0614770508,0.1,0.0,0.0,0.0,0.1,0.0,0.0,0.0,0.1
1446040355707325357,225,1446040355703857898,robocape,12.6782357208,4.10201598175,7.34066511738,0.0,10.0,0.0,0.0,0.0,10.0,0.0,0.0,0.0,10.0,0.00905474770627,0.0207726565026,0.00719053494321,1.0,0.0,0.0,0.0,1.0,0.0,0.0,0.0,1.0,-0.0502954101563,-0.0634680175781,10.0459094238,0.1,0.0,0.0,0.0,0.1,0.0,0.0,0.0,0.1
1446040355740469107,226,1446040355737391948,robocape,12.7129300511,4.14239832033,7.37477516917,0.0,10.0,0.0,0.0,0.0,10.0,0.0,0.0,0.0,10.0,0.00639158661619,0.0203731823391,0.00692421883421,1.0,0.0,0.0,0.0,1.0,0.0,0.0,0.0,1.0,-0.0526904296875,-0.0562829589844,10.0423168945,0.1,0.0,0.0,0.0,0.1,0.0,0.0,0.0,0.1
1446040355773662399,227,1446040355770620107,robocape,12.7421368879,4.18252111327,7.40817024954,0.0,10.0,0.0,0.0,0.0,10.0,0.0,0.0,0.0,10.0,0.0034621094171,0.0201068662301,0.00652474467069,1.0,0.0,0.0,0.0,1.0,0.0,0.0,0.0,1.0,-0.0586779785156,-0.0455053710938,10.0530944824,0.1,0.0,0.0,0.0,0.1,0.0,0.0,0.0,0.1
1446040355807208524,228,1446040355803908109,robocape,12.7694999941,4.22346699608,7.44288960266,0.0,10.0,0.0,0.0,0.0,10.0,0.0,0.0,0.0,10.0,0.00239684498107,0.0206394984481,0.00705737688871,1.0,0.0,0.0,0.0,1.0,0.0,0.0,0.0,1.0,-0.0455053710938,-0.0682580566406,10.039921875,0.1,0.0,0.0,0.0,0.1,0.0,0.0,0.0,0.1
1446040355840402607,229,1446040355837407112,robocape,12.799672916,4.26487333641,7.47699718565,0.0,10.0,0.0,0.0,0.0,10.0,0.0,0.0,0.0,10.0,0.00386158358061,0.0207726565026,0.0066579027252,1.0,0.0,0.0,0.0,1.0,0.0,0.0,0.0,1.0,-0.0419128417969,-0.0838256835938,10.039921875,0.1,0.0,0.0,0.0,0.1,0.0,0.0,0.0,0.1
1446040355873666066,230,1446040355870666980,robocape,12.8355365936,4.30558763327,7.51204321955,0.0,10.0,0.0,0.0,0.0,10.0,0.0,0.0,0.0,10.0,0.0067910607797,0.0205063403936,0.00719053494321,1.0,0.0,0.0,0.0,1.0,0.0,0.0,0.0,1.0,-0.0395178222656,-0.0898132324219,10.0471069336,0.1,0.0,0.0,0.0,0.1,0.0,0.0,0.0,0.1
1446040355907265524,231,1446040355903994083,robocape,12.8750073455,4.34744310754,7.54689636432,0.0,10.0,0.0,0.0,0.0,10.0,0.0,0.0,0.0,10.0,0.00865527354276,0.0210389726116,0.00692421883421,1.0,0.0,0.0,0.0,1.0,0.0,0.0,0.0,1.0,-0.0538879394531,-0.0778381347656,10.0830322266,0.1,0.0,0.0,0.0,0.1,0.0,0.0,0.0,0.1
1446040355946513941,232,1446040355937475919,robocape,12.9130654522,4.38786479534,7.58153216602,0.0,10.0,0.0,0.0,0.0,10.0,0.0,0.0,0.0,10.0,0.00785632521573,0.0202400242846,0.00692421883421,1.0,0.0,0.0,0.0,1.0,0.0,0.0,0.0,1.0,-0.0383203125,-0.0502954101563,10.039921875,0.1,0.0,0.0,0.0,0.1,0.0,0.0,0.0,0.1
1446040355973951607,233,1446040355970935106,robocape,12.9485834565,4.4274455754,7.61791734699,0.0,10.0,0.0,0.0,0.0,10.0,0.0,0.0,0.0,10.0,0.00639158661619,0.0199737081756,0.00785632521573,1.0,0.0,0.0,0.0,1.0,0.0,0.0,0.0,1.0,-0.0490979003906,-0.0490979003906,10.0303417969,0.1,0.0,0.0,0.0,0.1,0.0,0.0,0.0,0.1
1446040356007190899,234,1446040356003976106,robocape,12.9792593198,4.46791424144,7.65202284882,0.0,10.0,0.0,0.0,0.0,10.0,0.0,0.0,0.0,10.0,0.00386158358061,0.0201068662301,0.00652474467069,1.0,0.0,0.0,0.0,1.0,0.0,0.0,0.0,1.0,-0.0443078613281,-0.0490979003906,10.0518969727,0.1,0.0,0.0,0.0,0.1,0.0,0.0,0.0,0.1
1446040356040700482,235,1446040356037604093,robocape,13.008313265,4.50882067791,7.68685005376,0.0,10.0,0.0,0.0,0.0,10.0,0.0,0.0,0.0,10.0,0.00292947719909,0.0203731823391,0.0067910607797,1.0,0.0,0.0,0.0,1.0,0.0,0.0,0.0,1.0,-0.047900390625,-0.0718505859375,10.0411193848,0.1,0.0,0.0,0.0,0.1,0.0,0.0,0.0,0.1
1446040356073559857,236,1446040356070573091,robocape,13.0397574144,4.54940679412,7.72219875068,0.0,10.0,0.0,0.0,0.0,10.0,0.0,0.0,0.0,10.0,0.00412789968962,0.0202400242846,0.00705737688871,1.0,0.0,0.0,0.0,1.0,0.0,0.0,0.0,1.0,-0.0455053710938,-0.0814306640625,10.0542919922,0.1,0.0,0.0,0.0,0.1,0.0,0.0,0.0,0.1
1446040356107407107,237,1446040356103944063,robocape,13.077359426,4.5917539558,7.75800204959,0.0,10.0,0.0,0.0,0.0,10.0,0.0,0.0,0.0,10.0,0.00732369299772,0.0211721306661,0.00705737688871,1.0,0.0,0.0,0.0,1.0,0.0,0.0,0.0,1.0,-0.0550854492188,-0.086220703125,10.0590820312,0.1,0.0,0.0,0.0,0.1,0.0,0.0,0.0,0.1
1446040356140781191,238,1446040356137674093,robocape,13.1165314856,4.63302338875,7.79312373196,0.0,10.0,0.0,0.0,0.0,10.0,0.0,0.0,0.0,10.0,0.00812264132474,0.0205063403936,0.0067910607797,1.0,0.0,0.0,0.0,1.0,0.0,0.0,0.0,1.0,-0.0335302734375,-0.0778381347656,10.039921875,0.1,0.0,0.0,0.0,0.1,0.0,0.0,0.0,0.1
1446040356173668399,239,1446040356170574903,robocape,13.1551673972,4.67479532757,7.82977177819,0.0,10.0,0.0,0.0,0.0,10.0,0.0,0.0,0.0,10.0,0.00772316716123,0.0209058145571,0.00745685105222,1.0,0.0,0.0,0.0,1.0,0.0,0.0,0.0,1.0,-0.047900390625,-0.0646655273438,10.0423168945,0.1,0.0,0.0,0.0,0.1,0.0,0.0,0.0,0.1
1446040356207274524,240,1446040356203835010,robocape,13.189563072,4.71612457453,7.86540389555,0.0,10.0,0.0,0.0,0.0,10.0,0.0,0.0,0.0,10.0,0.00545948023466,0.0205063403936,0.00692421883421,1.0,0.0,0.0,0.0,1.0,0.0,0.0,0.0,1.0,-0.0526904296875,-0.067060546875,10.0387243652,0.1,0.0,0.0,0.0,0.1,0.0,0.0,0.0,0.1
1446040356240593983,241,1446040356237531900,robocape,13.2205522491,4.75646983126,7.90118925961,0.0,10.0,0.0,0.0,0.0,10.0,0.0,0.0,0.0,10.0,0.00359526747161,0.0199737081756,0.00705737688871,1.0,0.0,0.0,0.0,1.0,0.0,0.0,0.0,1.0,-0.0431103515625,-0.0814306640625,10.0734521484,0.1,0.0,0.0,0.0,0.1,0.0,0.0,0.0,0.1
1446040356273768483,242,1446040356270721912,robocape,13.250331031,4.79859165494,7.93644414013,0.0,10.0,0.0,0.0,0.0,10.0,0.0,0.0,0.0,10.0,0.00292947719909,0.0207726565026,0.00652474467069,1.0,0.0,0.0,0.0,1.0,0.0,0.0,0.0,1.0,-0.0431103515625,-0.0742456054688,10.0578845215,0.1,0.0,0.0,0.0,0.1,0.0,0.0,0.0,0.1
1446040356307590233,243,1446040356304351091,robocape,13.2827567881,4.84039213314,7.97222025572,0.0,10.0,0.0,0.0,0.0,10.0,0.0,0.0,0.0,10.0,0.00426105774413,0.0206394984481,0.0067910607797,1.0,0.0,0.0,0.0,1.0,0.0,0.0,0.0,1.0,-0.0395178222656,-0.0922082519531,10.0351318359,0.1,0.0,0.0,0.0,0.1,0.0,0.0,0.0,0.1
1446040356340512691,244,1446040356337491989,robocape,13.3187943143,4.88278470867,8.00794328398,0.0,10.0,0.0,0.0,0.0,10.0,0.0,0.0,0.0,10.0,0.00612527050718,0.0209058145571,0.0066579027252,1.0,0.0,0.0,0.0,1.0,0.0,0.0,0.0,1.0,-0.0407153320313,-0.0814306640625,10.039921875,0.1,0.0,0.0,0.0,0.1,0.0,0.0,0.0,0.1
1446040356373672024,245,1446040356370659112,robocape,13.3577251831,4.92491124326,8.04394443666,0.0,10.0,0.0,0.0,0.0,10.0,0.0,0.0,0.0,10.0,0.00759000910673,0.0207726565026,0.0067910607797,1.0,0.0,0.0,0.0,1.0,0.0,0.0,0.0,1.0,-0.0359252929688,-0.0706530761719,10.0447119141,0.1,0.0,0.0,0.0,0.1,0.0,0.0,0.0,0.1
1446040356407243441,246,1446040356404052972,robocape,13.3953140296,4.96747070984,8.08068373148,0.0,10.0,0.0,0.0,0.0,10.0,0.0,0.0,0.0,10.0,0.0067910607797,0.0210389726116,0.00705737688871,1.0,0.0,0.0,0.0,1.0,0.0,0.0,0.0,1.0,-0.0622705078125,-0.0562829589844,10.055489502,0.1,0.0,0.0,0.0,0.1,0.0,0.0,0.0,0.1
1446040356440579483,247,1446040356437542915,robocape,13.4294601969,5.00996911485,8.11701407368,0.0,10.0,0.0,0.0,0.0,10.0,0.0,0.0,0.0,10.0,0.00492684801665,0.0209058145571,0.0067910607797,1.0,0.0,0.0,0.0,1.0,0.0,0.0,0.0,1.0,-0.0323327636719,-0.0610729980469,10.039921875,0.1,0.0,0.0,0.0,0.1,0.0,0.0,0.0,0.1
1446040356473698649,248,1446040356470691919,robocape,13.4621638771,5.05085652468,8.15281180273,0.0,10.0,0.0,0.0,0.0,10.0,0.0,0.0,0.0,10.0,0.00412789968962,0.0199737081756,0.0066579027252,1.0,0.0,0.0,0.0,1.0,0.0,0.0,0.0,1.0,-0.0395178222656,-0.0754431152344,10.0495019531,0.1,0.0,0.0,0.0,0.1,0.0,0.0,0.0,0.1
1446040356507182149,249,1446040356503961086,robocape,13.4945003302,5.09093657171,8.18904097871,0.0,10.0,0.0,0.0,0.0,10.0,0.0,0.0,0.0,10.0,0.00386158358061,0.0195742340121,0.00692421883421,1.0,0.0,0.0,0.0,1.0,0.0,0.0,0.0,1.0,-0.0419128417969,-0.0826281738281,10.0327368164,0.1,0.0,0.0,0.0,0.1,0.0,0.0,0.0,0.1
1446040356541015774,250,1446040356537791967,robocape,13.5292190109,5.13204610063,8.2255941049,0.0,10.0,0.0,0.0,0.0,10.0,0.0,0.0,0.0,10.0,0.00506000607115,0.0201068662301,0.00692421883421,1.0,0.0,0.0,0.0,1.0,0.0,0.0,0.0,1.0,-0.0275427246094,-0.0922082519531,10.055489502,0.1,0.0,0.0,0.0,0.1,0.0,0.0,0.0,0.1
1446040356573876149,251,1446040356570794105,robocape,13.5670836185,5.17442921986,8.26252793261,0.0,10.0,0.0,0.0,0.0,10.0,0.0,0.0,0.0,10.0,0.0066579027252,0.0207726565026,0.00692421883421,1.0,0.0,0.0,0.0,1.0,0.0,0.0,0.0,1.0,-0.0455053710938,-0.076640625,10.0435144043,0.1,0.0,0.0,0.0,0.1,0.0,0.0,0.0,0.1
1446040356606973774,252,1446040356603847026,robocape,13.6071764348,5.2163058081,8.30073905475,0.0,10.0,0.0,0.0,0.0,10.0,0.0,0.0,0.0,10.0,0.00772316716123,0.0206394984481,0.00759000910673,1.0,0.0,0.0,0.0,1.0,0.0,0.0,0.0,1.0,-0.0371228027344,-0.0598754882813,10.0207617188,0.1,0.0,0.0,0.0,0.1,0.0,0.0,0.0,0.1
1446040356640609691,253,1446040356637378931,robocape,13.6460778451,5.25841950721,8.33834041464,0.0,10.0,0.0,0.0,0.0,10.0,0.0,0.0,0.0,10.0,0.00705737688871,0.0206394984481,0.00719053494321,1.0,0.0,0.0,0.0,1.0,0.0,0.0,0.0,1.0,-0.0443078613281,-0.0562829589844,10.0291442871,0.1,0.0,0.0,0.0,0.1,0.0,0.0,0.0,0.1
1446040356673638983,254,1446040356670527935,robocape,13.6804912171,5.30035453863,8.37499316711,0.0,10.0,0.0,0.0,0.0,10.0,0.0,0.0,0.0,10.0,0.00466053190764,0.0203731823391,0.0066579027252,1.0,0.0,0.0,0.0,1.0,0.0,0.0,0.0,1.0,-0.0467028808594,-0.0586779785156,10.060279541,0.1,0.0,0.0,0.0,0.1,0.0,0.0,0.0,0.1
1446040356707008441,255,1446040356703790903,robocape,13.712581542,5.34291305982,8.41270215214,0.0,10.0,0.0,0.0,0.0,10.0,0.0,0.0,0.0,10.0,0.0033289513626,0.0207726565026,0.00705737688871,1.0,0.0,0.0,0.0,1.0,0.0,0.0,0.0,1.0,-0.0431103515625,-0.0634680175781,10.0638720703,0.1,0.0,0.0,0.0,0.1,0.0,0.0,0.0,0.1
1446040356740480733,256,1446040356737385988,robocape,13.7447238503,5.38466118954,8.44979280052,0.0,10.0,0.0,0.0,0.0,10.0,0.0,0.0,0.0,10.0,0.0033289513626,0.0202400242846,0.0067910607797,1.0,0.0,0.0,0.0,1.0,0.0,0.0,0.0,1.0,-0.0443078613281,-0.0694555664063,10.039921875,0.1,0.0,0.0,0.0,0.1,0.0,0.0,0.0,0.1
1446040356773694858,257,1446040356770629882,robocape,13.7820566508,5.42730464546,8.48768495923,0.0,10.0,0.0,0.0,0.0,10.0,0.0,0.0,0.0,10.0,0.00599211245268,0.0207726565026,0.00705737688871,1.0,0.0,0.0,0.0,1.0,0.0,0.0,0.0,1.0,-0.0395178222656,-0.0658630371094,10.0578845215,0.1,0.0,0.0,0.0,0.1,0.0,0.0,0.0,0.1
1446040356807264191,258,1446040356804311037,robocape,13.8210999141,5.4695014447,8.52661254411,0.0,10.0,0.0,0.0,0.0,10.0,0.0,0.0,0.0,10.0,0.0067910607797,0.0206394984481,0.00759000910673,1.0,0.0,0.0,0.0,1.0,0.0,0.0,0.0,1.0,-0.0622705078125,-0.0682580566406,10.0423168945,0.1,0.0,0.0,0.0,0.1,0.0,0.0,0.0,0.1
1446040356840498608,259,1446040356837490081,robocape,13.8604174304,5.51230295761,8.56448620647,0.0,10.0,0.0,0.0,0.0,10.0,0.0,0.0,0.0,10.0,0.00692421883421,0.0207726565026,0.00692421883421,1.0,0.0,0.0,0.0,1.0,0.0,0.0,0.0,1.0,-0.0431103515625,-0.0586779785156,10.0363293457,0.1,0.0,0.0,0.0,0.1,0.0,0.0,0.0,0.1
1446040356873893108,260,1446040356870887041,robocape,13.8981049952,5.55516623988,8.60249894161,0.0,10.0,0.0,0.0,0.0,10.0,0.0,0.0,0.0,10.0,0.00599211245268,0.0207726565026,0.00692421883421,1.0,0.0,0.0,0.0,1.0,0.0,0.0,0.0,1.0,-0.047900390625,-0.0598754882813,10.0614770508,0.1,0.0,0.0,0.0,0.1,0.0,0.0,0.0,0.1
1446040356906911483,261,1446040356903954982,robocape,13.93392223,5.59753821546,8.64077858458,0.0,10.0,0.0,0.0,0.0,10.0,0.0,0.0,0.0,10.0,0.00492684801665,0.0205063403936,0.00705737688871,1.0,0.0,0.0,0.0,1.0,0.0,0.0,0.0,1.0,-0.0538879394531,-0.0514929199219,10.0423168945,0.1,0.0,0.0,0.0,0.1,0.0,0.0,0.0,0.1
1446040356947189858,262,1446040356937340974,robocape,13.9685124137,5.63997234216,8.67814212933,0.0,10.0,0.0,0.0,0.0,10.0,0.0,0.0,0.0,10.0,0.00426105774413,0.0203731823391,0.00652474467069,1.0,0.0,0.0,0.0,1.0,0.0,0.0,0.0,1.0,-0.0586779785156,-0.0622705078125,10.060279541,0.1,0.0,0.0,0.0,0.1,0.0,0.0,0.0,0.1
1446040356973813858,263,1446040356970818042,robocape,14.0047396264,5.68189891939,8.7157354745,0.0,10.0,0.0,0.0,0.0,10.0,0.0,0.0,0.0,10.0,0.00506000607115,0.0201068662301,0.0066579027252,1.0,0.0,0.0,0.0,1.0,0.0,0.0,0.0,1.0,-0.0514929199219,-0.0694555664063,10.0351318359,0.1,0.0,0.0,0.0,0.1,0.0,0.0,0.0,0.1
1446040357006981025,264,1446040357003885984,robocape,14.0421680021,5.72418018179,8.75430186439,0.0,10.0,0.0,0.0,0.0,10.0,0.0,0.0,0.0,10.0,0.00559263828917,0.0203731823391,0.00705737688871,1.0,0.0,0.0,0.0,1.0,0.0,0.0,0.0,1.0,-0.0395178222656,-0.0826281738281,10.0578845215,0.1,0.0,0.0,0.0,0.1,0.0,0.0,0.0,0.1
1446040357040579816,265,1446040357037472963,robocape,14.081003535,5.76669241342,8.79328786807,0.0,10.0,0.0,0.0,0.0,10.0,0.0,0.0,0.0,10.0,0.00625842856169,0.0205063403936,0.00719053494321,1.0,0.0,0.0,0.0,1.0,0.0,0.0,0.0,1.0,-0.0562829589844,-0.0790356445313,10.0638720703,0.1,0.0,0.0,0.0,0.1,0.0,0.0,0.0,0.1
1446040357073895650,266,1446040357070785045,robocape,14.1200501347,5.80980885114,8.83332419354,0.0,10.0,0.0,0.0,0.0,10.0,0.0,0.0,0.0,10.0,0.00625842856169,0.0209058145571,0.00759000910673,1.0,0.0,0.0,0.0,1.0,0.0,0.0,0.0,1.0,-0.0550854492188,-0.0455053710938,10.024354248,0.1,0.0,0.0,0.0,0.1,0.0,0.0,0.0,0.1
1446040357107159775,267,1446040357103836059,robocape,14.1560938608,5.85281673935,8.87216228643,0.0,10.0,0.0,0.0,0.0,10.0,0.0,0.0,0.0,10.0,0.00466053190764,0.0206394984481,0.00692421883421,1.0,0.0,0.0,0.0,1.0,0.0,0.0,0.0,1.0,-0.0395178222656,-0.0634680175781,10.0590820312,0.1,0.0,0.0,0.0,0.1,0.0,0.0,0.0,0.1
1446040357140464941,268,1446040357137348890,robocape,14.191528067,5.89428014179,8.91125727694,0.0,10.0,0.0,0.0,0.0,10.0,0.0,0.0,0.0,10.0,0.00426105774413,0.0198405501211,0.00719053494321,1.0,0.0,0.0,0.0,1.0,0.0,0.0,0.0,1.0,-0.0526904296875,-0.0802331542969,10.0459094238,0.1,0.0,0.0,0.0,0.1,0.0,0.0,0.0,0.1
1446040357173752941,269,1446040357170651912,robocape,14.2278137678,5.93715115164,8.95028267706,0.0,10.0,0.0,0.0,0.0,10.0,0.0,0.0,0.0,10.0,0.00466053190764,0.0205063403936,0.00692421883421,1.0,0.0,0.0,0.0,1.0,0.0,0.0,0.0,1.0,-0.0598754882813,-0.0778381347656,10.039921875,0.1,0.0,0.0,0.0,0.1,0.0,0.0,0.0,0.1
1446040357207068566,270,1446040357203821897,robocape,14.2664827104,5.98006578156,8.98941154558,0.0,10.0,0.0,0.0,0.0,10.0,0.0,0.0,0.0,10.0,0.00585895439817,0.0205063403936,0.00692421883421,1.0,0.0,0.0,0.0,1.0,0.0,0.0,0.0,1.0,-0.0395178222656,-0.0814306640625,10.0387243652,0.1,0.0,0.0,0.0,0.1,0.0,0.0,0.0,0.1
1446040357240511733,271,1446040357237446069,robocape,14.3080514356,6.02351277915,9.02876534941,0.0,10.0,0.0,0.0,0.0,10.0,0.0,0.0,0.0,10.0,0.00732369299772,0.0207726565026,0.00692421883421,1.0,0.0,0.0,0.0,1.0,0.0,0.0,0.0,1.0,-0.0419128417969,-0.0886157226563,10.0542919922,0.1,0.0,0.0,0.0,0.1,0.0,0.0,0.0,0.1
1446040357273864191,272,1446040357270827054,robocape,14.3509843135,6.0668252853,9.06793050874,0.0,10.0,0.0,0.0,0.0,10.0,0.0,0.0,0.0,10.0,0.00798948327024,0.0206394984481,0.0067910607797,1.0,0.0,0.0,0.0,1.0,0.0,0.0,0.0,1.0,-0.0431103515625,-0.0694555664063,10.0495019531,0.1,0.0,0.0,0.0,0.1,0.0,0.0,0.0,0.1
1446040357307095400,273,1446040357303953886,robocape,14.3924728321,6.10990040217,9.10638031461,0.0,10.0,0.0,0.0,0.0,10.0,0.0,0.0,0.0,10.0,0.00719053494321,0.0203731823391,0.00639158661619,1.0,0.0,0.0,0.0,1.0,0.0,0.0,0.0,1.0,-0.0395178222656,-0.0622705078125,10.0291442871,0.1,0.0,0.0,0.0,0.1,0.0,0.0,0.0,0.1
1446040357340548066,274,1446040357337414026,robocape,14.4306802654,6.1525478401,9.14592088443,0.0,10.0,0.0,0.0,0.0,10.0,0.0,0.0,0.0,10.0,0.00532632218016,0.0202400242846,0.00692421883421,1.0,0.0,0.0,0.0,1.0,0.0,0.0,0.0,1.0,-0.0455053710938,-0.0550854492188,10.055489502,0.1,0.0,0.0,0.0,0.1,0.0,0.0,0.0,0.1
1446040357373771525,275,1446040357370768070,robocape,14.4680265177,6.19574836991,9.18572695375,0.0,10.0,0.0,0.0,0.0,10.0,0.0,0.0,0.0,10.0,0.00479368996214,0.0205063403936,0.00692421883421,1.0,0.0,0.0,0.0,1.0,0.0,0.0,0.0,1.0,-0.0323327636719,-0.0754431152344,10.055489502,0.1,0.0,0.0,0.0,0.1,0.0,0.0,0.0,0.1
1446040357407393775,276,1446040357404306888,robocape,14.5044422668,6.23735437259,9.22498864533,0.0,10.0,0.0,0.0,0.0,10.0,0.0,0.0,0.0,10.0,0.00426105774413,0.0195742340121,0.0067910607797,1.0,0.0,0.0,0.0,1.0,0.0,0.0,0.0,1.0,-0.0371228027344,-0.0874182128906,10.0423168945,0.1,0.0,0.0,0.0,0.1,0.0,0.0,0.0,0.1
1446040357440566775,277,1446040357437381982,robocape,14.544058521,6.28090051804,9.26509595686,0.0,10.0,0.0,0.0,0.0,10.0,0.0,0.0,0.0,10.0,0.00585895439817,0.0206394984481,0.00692421883421,1.0,0.0,0.0,0.0,1.0,0.0,0.0,0.0,1.0,-0.0443078613281,-0.0778381347656,10.0542919922,0.1,0.0,0.0,0.0,0.1,0.0,0.0,0.0,0.1
1446040357473766150,278,1446040357470743894,robocape,14.5859794733,6.3252414029,9.30445453116,0.0,10.0,0.0,0.0,0.0,10.0,0.0,0.0,0.0,10.0,0.00705737688871,0.0209058145571,0.00639158661619,1.0,0.0,0.0,0.0,1.0,0.0,0.0,0.0,1.0,-0.0395178222656,-0.0706530761719,10.0423168945,0.1,0.0,0.0,0.0,0.1,0.0,0.0,0.0,0.1
1446040357507148650,279,1446040357503990888,robocape,14.6281430556,6.36937987102,9.34493522852,0.0,10.0,0.0,0.0,0.0,10.0,0.0,0.0,0.0,10.0,0.00705737688871,0.0209058145571,0.00692421883421,1.0,0.0,0.0,0.0,1.0,0.0,0.0,0.0,1.0,-0.0323327636719,-0.0778381347656,10.0518969727,0.1,0.0,0.0,0.0,0.1,0.0,0.0,0.0,0.1
1446040357541008066,280,1446040357537695884,robocape,14.6691681747,6.41340206351,9.38525866633,0.0,10.0,0.0,0.0,0.0,10.0,0.0,0.0,0.0,10.0,0.00639158661619,0.0207726565026,0.0067910607797,1.0,0.0,0.0,0.0,1.0,0.0,0.0,0.0,1.0,-0.0407153320313,-0.067060546875,10.0471069336,0.1,0.0,0.0,0.0,0.1,0.0,0.0,0.0,0.1
1446040357574021317,281,1446040357570898056,robocape,14.7079055191,6.45730032207,9.42648589367,0.0,10.0,0.0,0.0,0.0,10.0,0.0,0.0,0.0,10.0,0.00506000607115,0.0207726565026,0.00719053494321,1.0,0.0,0.0,0.0,1.0,0.0,0.0,0.0,1.0,-0.0347277832031,-0.0502954101563,10.0315393066,0.1,0.0,0.0,0.0,0.1,0.0,0.0,0.0,0.1
1446040357607159317,282,1446040357603856086,robocape,14.7446895709,6.49968035998,9.46693425723,0.0,10.0,0.0,0.0,0.0,10.0,0.0,0.0,0.0,10.0,0.00399474163512,0.0198405501211,0.00692421883421,1.0,0.0,0.0,0.0,1.0,0.0,0.0,0.0,1.0,-0.0359252929688,-0.0586779785156,10.039921875,0.1,0.0,0.0,0.0,0.1,0.0,0.0,0.0,0.1
1446040357640705567,283,1446040357637474060,robocape,14.7828651154,6.54364876254,9.50763898758,0.0,10.0,0.0,0.0,0.0,10.0,0.0,0.0,0.0,10.0,0.00466053190764,0.0206394984481,0.0067910607797,1.0,0.0,0.0,0.0,1.0,0.0,0.0,0.0,1.0,-0.0347277832031,-0.0742456054688,10.0423168945,0.1,0.0,0.0,0.0,0.1,0.0,0.0,0.0,0.1
1446040357674151983,284,1446040357671094894,robocape,14.8230142366,6.58641951412,9.54919053128,0.0,10.0,0.0,0.0,0.0,10.0,0.0,0.0,0.0,10.0,0.00559263828917,0.0201068662301,0.00732369299772,1.0,0.0,0.0,0.0,1.0,0.0,0.0,0.0,1.0,-0.0383203125,-0.067060546875,10.0578845215,0.1,0.0,0.0,0.0,0.1,0.0,0.0,0.0,0.1
1446040357707233233,285,1446040357703931093,robocape,14.8664278793,6.62931109238,9.58955097306,0.0,10.0,0.0,0.0,0.0,10.0,0.0,0.0,0.0,10.0,0.00732369299772,0.0199737081756,0.0066579027252,1.0,0.0,0.0,0.0,1.0,0.0,0.0,0.0,1.0,-0.0502954101563,-0.0718505859375,10.0506994629,0.1,0.0,0.0,0.0,0.1,0.0,0.0,0.0,0.1
1446040357740730525,286,1446040357737394094,robocape,14.9103419542,6.67433265889,9.63112101086,0.0,10.0,0.0,0.0,0.0,10.0,0.0,0.0,0.0,10.0,0.00745685105222,0.0211721306661,0.00692421883421,1.0,0.0,0.0,0.0,1.0,0.0,0.0,0.0,1.0,-0.0467028808594,-0.0706530761719,10.0315393066,0.1,0.0,0.0,0.0,0.1,0.0,0.0,0.0,0.1
1446040357773907817,287,1446040357770850896,robocape,14.9521893922,6.71841917119,9.67075065033,0.0,10.0,0.0,0.0,0.0,10.0,0.0,0.0,0.0,10.0,0.00639158661619,0.0203731823391,0.00599211245268,1.0,0.0,0.0,0.0,1.0,0.0,0.0,0.0,1.0,-0.0443078613281,-0.0514929199219,10.0578845215,0.1,0.0,0.0,0.0,0.1,0.0,0.0,0.0,0.1
1446040357807059942,288,1446040357803925991,robocape,14.9923539667,6.76162038619,9.7121361889,0.0,10.0,0.0,0.0,0.0,10.0,0.0,0.0,0.0,10.0,0.00532632218016,0.0201068662301,0.00692421883421,1.0,0.0,0.0,0.0,1.0,0.0,0.0,0.0,1.0,-0.0395178222656,-0.0598754882813,10.0506994629,0.1,0.0,0.0,0.0,0.1,0.0,0.0,0.0,0.1
1446040357840743692,289,1446040357837409973,robocape,15.0304934054,6.80364507641,9.7544136845,0.0,10.0,0.0,0.0,0.0,10.0,0.0,0.0,0.0,10.0,0.00412789968962,0.0195742340121,0.00745685105222,1.0,0.0,0.0,0.0,1.0,0.0,0.0,0.0,1.0,-0.0395178222656,-0.0742456054688,10.0459094238,0.1,0.0,0.0,0.0,0.1,0.0,0.0,0.0,0.1
1446040357873777192,290,1446040357870770931,robocape,15.0699461846,6.84721178599,9.79615850195,0.0,10.0,0.0,0.0,0.0,10.0,0.0,0.0,0.0,10.0,0.00479368996214,0.0202400242846,0.00692421883421,1.0,0.0,0.0,0.0,1.0,0.0,0.0,0.0,1.0,-0.0395178222656,-0.0694555664063,10.0530944824,0.1,0.0,0.0,0.0,0.1,0.0,0.0,0.0,0.1
1446040357907012067,291,1446040357903990983,robocape,15.1123259645,6.89204489591,9.83834020938,0.0,10.0,0.0,0.0,0.0,10.0,0.0,0.0,0.0,10.0,0.00625842856169,0.0209058145571,0.00692421883421,1.0,0.0,0.0,0.0,1.0,0.0,0.0,0.0,1.0,-0.0419128417969,-0.0706530761719,10.0279467773,0.1,0.0,0.0,0.0,0.1,0.0,0.0,0.0,0.1
1446040357946457817,292,1446040357937326908,robocape,15.1560722417,6.93650681179,9.88027932414,0.0,10.0,0.0,0.0,0.0,10.0,0.0,0.0,0.0,10.0,0.00692421883421,0.0206394984481,0.0067910607797,1.0,0.0,0.0,0.0,1.0,0.0,0.0,0.0,1.0,-0.0431103515625,-0.0754431152344,10.0471069336,0.1,0.0,0.0,0.0,0.1,0.0,0.0,0.0,0.1
1446040357973869817,293,1446040357970701932,robocape,15.1980106355,6.98146319421,9.92276806244,0.0,10.0,0.0,0.0,0.0,10.0,0.0,0.0,0.0,10.0,0.00585895439817,0.0209058145571,0.00692421883421,1.0,0.0,0.0,0.0,1.0,0.0,0.0,0.0,1.0,-0.0538879394531,-0.05748046875,10.0255517578,0.1,0.0,0.0,0.0,0.1,0.0,0.0,0.0,0.1
1446040358006993692,294,1446040358003863096,robocape,15.2388725471,7.02617551937,9.96560136109,0.0,10.0,0.0,0.0,0.0,10.0,0.0,0.0,0.0,10.0,0.00519316412565,0.0207726565026,0.00705737688871,1.0,0.0,0.0,0.0,1.0,0.0,0.0,0.0,1.0,-0.0550854492188,-0.0658630371094,10.0566870117,0.1,0.0,0.0,0.0,0.1,0.0,0.0,0.0,0.1
1446040358040576108,295,1446040358037350893,robocape,15.2781716966,7.07008935091,10.0088989808,0.0,10.0,0.0,0.0,0.0,10.0,0.0,0.0,0.0,10.0,0.00426105774413,0.0203731823391,0.00732369299772,1.0,0.0,0.0,0.0,1.0,0.0,0.0,0.0,1.0,-0.0311352539063,-0.0718505859375,10.0471069336,0.1,0.0,0.0,0.0,0.1,0.0,0.0,0.0,0.1
1446040358074083900,296,1446040358070842027,robocape,15.3187432315,7.11427269769,10.0534479529,0.0,10.0,0.0,0.0,0.0,10.0,0.0,0.0,0.0,10.0,0.00479368996214,0.0206394984481,0.00785632521573,1.0,0.0,0.0,0.0,1.0,0.0,0.0,0.0,1.0,-0.0455053710938,-0.0634680175781,10.0279467773,0.1,0.0,0.0,0.0,0.1,0.0,0.0,0.0,0.1
1446040358107316067,297,1446040358104055881,robocape,15.3604280494,7.15870064551,10.0955456199,0.0,10.0,0.0,0.0,0.0,10.0,0.0,0.0,0.0,10.0,0.00545948023466,0.0203731823391,0.00652474467069,1.0,0.0,0.0,0.0,1.0,0.0,0.0,0.0,1.0,-0.0419128417969,-0.0610729980469,10.0423168945,0.1,0.0,0.0,0.0,0.1,0.0,0.0,0.0,0.1
1446040358140460942,298,1446040358137307882,robocape,15.4027653794,7.20189415037,10.1377011096,0.0,10.0,0.0,0.0,0.0,10.0,0.0,0.0,0.0,10.0,0.00572579634367,0.0197073920666,0.0066579027252,1.0,0.0,0.0,0.0,1.0,0.0,0.0,0.0,1.0,-0.0359252929688,-0.0658630371094,10.039921875,0.1,0.0,0.0,0.0,0.1,0.0,0.0,0.0,0.1
1446040358174071942,299,1446040358170994043,robocape,15.4453040535,7.24581159363,10.1804513248,0.0,10.0,0.0,0.0,0.0,10.0,0.0,0.0,0.0,10.0,0.00572579634367,0.0201068662301,0.0067910607797,1.0,0.0,0.0,0.0,1.0,0.0,0.0,0.0,1.0,-0.0431103515625,-0.0634680175781,10.039921875,0.1,0.0,0.0,0.0,0.1,0.0,0.0,0.0,0.1
1446040358207028650,300,1446040358203845024,robocape,15.4858111807,7.28991120987,10.2239393973,0.0,10.0,0.0,0.0,0.0,10.0,0.0,0.0,0.0,10.0,0.00452737385313,0.0202400242846,0.00705737688871,1.0,0.0,0.0,0.0,1.0,0.0,0.0,0.0,1.0,-0.0502954101563,-0.0598754882813,10.0650695801,0.1,0.0,0.0,0.0,0.1,0.0,0.0,0.0,0.1
1446040358240561317,301,1446040358237498998,robocape,15.5264865673,7.33585222105,10.2678021767,0.0,10.0,0.0,0.0,0.0,10.0,0.0,0.0,0.0,10.0,0.00452737385313,0.0211721306661,0.00692421883421,1.0,0.0,0.0,0.0,1.0,0.0,0.0,0.0,1.0,-0.028740234375,-0.0658630371094,10.0351318359,0.1,0.0,0.0,0.0,0.1,0.0,0.0,0.0,0.1
1446040358273832442,302,1446040358270628929,robocape,15.5670188756,7.37990321911,10.3112882004,0.0,10.0,0.0,0.0,0.0,10.0,0.0,0.0,0.0,10.0,0.00439421579863,0.0201068662301,0.00692421883421,1.0,0.0,0.0,0.0,1.0,0.0,0.0,0.0,1.0,-0.0514929199219,-0.0658630371094,10.0638720703,0.1,0.0,0.0,0.0,0.1,0.0,0.0,0.0,0.1
1446040358306968109,303,1446040358303915023,robocape,15.6096779584,7.42407054127,10.354657015,0.0,10.0,0.0,0.0,0.0,10.0,0.0,0.0,0.0,10.0,0.00545948023466,0.0201068662301,0.0067910607797,1.0,0.0,0.0,0.0,1.0,0.0,0.0,0.0,1.0,-0.047900390625,-0.0706530761719,10.0614770508,0.1,0.0,0.0,0.0,0.1,0.0,0.0,0.0,0.1
1446040358340448359,304,1446040358337435960,robocape,15.6523394099,7.47067411197,10.3991035033,0.0,10.0,0.0,0.0,0.0,10.0,0.0,0.0,0.0,10.0,0.00532632218016,0.0214384467751,0.00692421883421,1.0,0.0,0.0,0.0,1.0,0.0,0.0,0.0,1.0,-0.0419128417969,-0.0790356445313,10.0578845215,0.1,0.0,0.0,0.0,0.1,0.0,0.0,0.0,0.1
1446040358373890734,305,1446040358370688915,robocape,15.6952953181,7.51632884361,10.4426347437,0.0,10.0,0.0,0.0,0.0,10.0,0.0,0.0,0.0,10.0,0.00545948023466,0.0207726565026,0.00652474467069,1.0,0.0,0.0,0.0,1.0,0.0,0.0,0.0,1.0,-0.047900390625,-0.0694555664063,10.0483044434,0.1,0.0,0.0,0.0,0.1,0.0,0.0,0.0,0.1
1446040358406880567,306,1446040358403923034,robocape,15.7390095826,7.56207767913,10.4871224638,0.0,10.0,0.0,0.0,0.0,10.0,0.0,0.0,0.0,10.0,0.00572579634367,0.0209058145571,0.00692421883421,1.0,0.0,0.0,0.0,1.0,0.0,0.0,0.0,1.0,-0.0335302734375,-0.067060546875,10.0315393066,0.1,0.0,0.0,0.0,0.1,0.0,0.0,0.0,0.1
1446040358440783609,307,1446040358437745094,robocape,15.7828288036,7.60673929507,10.5311883793,0.0,10.0,0.0,0.0,0.0,10.0,0.0,0.0,0.0,10.0,0.00572579634367,0.0202400242846,0.0067910607797,1.0,0.0,0.0,0.0,1.0,0.0,0.0,0.0,1.0,-0.0455053710938,-0.0598754882813,10.0423168945,0.1,0.0,0.0,0.0,0.1,0.0,0.0,0.0,0.1
1446040358473897984,308,1446040358470686912,robocape,15.8273310692,7.65090039301,10.5755180787,0.0,10.0,0.0,0.0,0.0,10.0,0.0,0.0,0.0,10.0,0.00599211245268,0.0199737081756,0.00692421883421,1.0,0.0,0.0,0.0,1.0,0.0,0.0,0.0,1.0,-0.0467028808594,-0.0658630371094,10.0542919922,0.1,0.0,0.0,0.0,0.1,0.0,0.0,0.0,0.1
1446040358507413817,309,1446040358504359960,robocape,15.8730943875,7.69619334411,10.6208282559,0.0,10.0,0.0,0.0,0.0,10.0,0.0,0.0,0.0,10.0,0.00652474467069,0.0206394984481,0.00719053494321,1.0,0.0,0.0,0.0,1.0,0.0,0.0,0.0,1.0,-0.0371228027344,-0.067060546875,10.0375268555,0.1,0.0,0.0,0.0,0.1,0.0,0.0,0.0,0.1
1446040358540861775,310,1446040358537587881,robocape,15.9208983122,7.74229767461,10.6672917639,0.0,10.0,0.0,0.0,0.0,10.0,0.0,0.0,0.0,10.0,0.00745685105222,0.0211721306661,0.00759000910673,1.0,0.0,0.0,0.0,1.0,0.0,0.0,0.0,1.0,-0.0502954101563,-0.0886157226563,10.0255517578,0.1,0.0,0.0,0.0,0.1,0.0,0.0,0.0,0.1
1446040358573970650,311,1446040358570704936,robocape,15.9687054667,7.78784360027,10.7124291682,0.0,10.0,0.0,0.0,0.0,10.0,0.0,0.0,0.0,10.0,0.00745685105222,0.0206394984481,0.00692421883421,1.0,0.0,0.0,0.0,1.0,0.0,0.0,0.0,1.0,-0.0586779785156,-0.0706530761719,10.0542919922,0.1,0.0,0.0,0.0,0.1,0.0,0.0,0.0,0.1
1446040358607486484,312,1446040358604317903,robocape,16.0158313827,7.8329399952,10.7568059155,0.0,10.0,0.0,0.0,0.0,10.0,0.0,0.0,0.0,10.0,0.00705737688871,0.0202400242846,0.00652474467069,1.0,0.0,0.0,0.0,1.0,0.0,0.0,0.0,1.0,-0.0359252929688,-0.0598754882813,10.0447119141,0.1,0.0,0.0,0.0,0.1,0.0,0.0,0.0,0.1
1446040358640658150,313,1446040358637589931,robocape,16.0620049849,7.87886894768,10.8023787163,0.0,10.0,0.0,0.0,0.0,10.0,0.0,0.0,0.0,10.0,0.00639158661619,0.0207726565026,0.00692421883421,1.0,0.0,0.0,0.0,1.0,0.0,0.0,0.0,1.0,-0.0455053710938,-0.0526904296875,10.0626745605,0.1,0.0,0.0,0.0,0.1,0.0,0.0,0.0,0.1
1446040358673941734,314,1446040358670680999,robocape,16.1067549788,7.92355490285,10.8472387222,0.0,10.0,0.0,0.0,0.0,10.0,0.0,0.0,0.0,10.0,0.00559263828917,0.0199737081756,0.0066579027252,1.0,0.0,0.0,0.0,1.0,0.0,0.0,0.0,1.0,-0.0443078613281,-0.047900390625,10.0782421875,0.1,0.0,0.0,0.0,0.1,0.0,0.0,0.0,0.1
1446040358707204734,315,1446040358703958988,robocape,16.1510255137,7.96938391225,10.8931128758,0.0,10.0,0.0,0.0,0.0,10.0,0.0,0.0,0.0,10.0,0.00519316412565,0.0206394984481,0.00692421883421,1.0,0.0,0.0,0.0,1.0,0.0,0.0,0.0,1.0,-0.047900390625,-0.0490979003906,10.0327368164,0.1,0.0,0.0,0.0,0.1,0.0,0.0,0.0,0.1
1446040358740536484,316,1446040358737498998,robocape,16.1938681611,8.01397274046,10.9382721993,0.0,10.0,0.0,0.0,0.0,10.0,0.0,0.0,0.0,10.0,0.00439421579863,0.0198405501211,0.0066579027252,1.0,0.0,0.0,0.0,1.0,0.0,0.0,0.0,1.0,-0.0371228027344,-0.0586779785156,10.0578845215,0.1,0.0,0.0,0.0,0.1,0.0,0.0,0.0,0.1
1446040358774003400,317,1446040358770711898,robocape,16.2385226066,8.06010090932,10.9847998015,0.0,10.0,0.0,0.0,0.0,10.0,0.0,0.0,0.0,10.0,0.00519316412565,0.0207726565026,0.00705737688871,1.0,0.0,0.0,0.0,1.0,0.0,0.0,0.0,1.0,-0.0586779785156,-0.0850231933594,10.0495019531,0.1,0.0,0.0,0.0,0.1,0.0,0.0,0.0,0.1
1446040358807768817,318,1446040358804778099,robocape,16.28604537,8.10432504504,11.0309044904,0.0,10.0,0.0,0.0,0.0,10.0,0.0,0.0,0.0,10.0,0.0066579027252,0.0197073920666,0.00705737688871,1.0,0.0,0.0,0.0,1.0,0.0,0.0,0.0,1.0,-0.0490979003906,-0.0778381347656,10.0614770508,0.1,0.0,0.0,0.0,0.1,0.0,0.0,0.0,0.1
1446040358840730484,319,1446040358837713956,robocape,16.3361152693,8.14910377767,11.0780962698,0.0,10.0,0.0,0.0,0.0,10.0,0.0,0.0,0.0,10.0,0.00785632521573,0.0201068662301,0.00745685105222,1.0,0.0,0.0,0.0,1.0,0.0,0.0,0.0,1.0,-0.0419128417969,-0.0658630371094,10.0303417969,0.1,0.0,0.0,0.0,0.1,0.0,0.0,0.0,0.1
1446040358873842900,320,1446040358870660066,robocape,16.3839784146,8.19456950686,11.1243479479,0.0,10.0,0.0,0.0,0.0,10.0,0.0,0.0,0.0,10.0,0.0066579027252,0.0202400242846,0.0067910607797,1.0,0.0,0.0,0.0,1.0,0.0,0.0,0.0,1.0,-0.0323327636719,-0.05748046875,10.0411193848,0.1,0.0,0.0,0.0,0.1,0.0,0.0,0.0,0.1
1446040358907070525,321,1446040358903984069,robocape,16.4287511289,8.24019909303,11.1705796684,0.0,10.0,0.0,0.0,0.0,10.0,0.0,0.0,0.0,10.0,0.00492684801665,0.0202400242846,0.0066579027252,1.0,0.0,0.0,0.0,1.0,0.0,0.0,0.0,1.0,-0.0455053710938,-0.0610729980469,10.0339343262,0.1,0.0,0.0,0.0,0.1,0.0,0.0,0.0,0.1
1446040358949062859,322,1446040358937923908,robocape,16.471563906,8.28489025754,11.2177858587,0.0,10.0,0.0,0.0,0.0,10.0,0.0,0.0,0.0,10.0,0.00372842552611,0.0198405501211,0.00719053494321,1.0,0.0,0.0,0.0,1.0,0.0,0.0,0.0,1.0,-0.0443078613281,-0.0598754882813,10.0578845215,0.1,0.0,0.0,0.0,0.1,0.0,0.0,0.0,0.1
1446040358973928651,323,1446040358970736980,robocape,16.5167166715,8.3303340734,11.264542321,0.0,10.0,0.0,0.0,0.0,10.0,0.0,0.0,0.0,10.0,0.00492684801665,0.0201068662301,0.0067910607797,1.0,0.0,0.0,0.0,1.0,0.0,0.0,0.0,1.0,-0.0371228027344,-0.0790356445313,10.0423168945,0.1,0.0,0.0,0.0,0.1,0.0,0.0,0.0,0.1
1446040359007157734,324,1446040359003978013,robocape,16.5646273823,8.37616086946,11.3120710671,0.0,10.0,0.0,0.0,0.0,10.0,0.0,0.0,0.0,10.0,0.00625842856169,0.0203731823391,0.00705737688871,1.0,0.0,0.0,0.0,1.0,0.0,0.0,0.0,1.0,-0.0455053710938,-0.0754431152344,10.0650695801,0.1,0.0,0.0,0.0,0.1,0.0,0.0,0.0,0.1
1446040359041072567,325,1446040359037868976,robocape,16.6153729428,8.42117528162,11.3608264869,0.0,10.0,0.0,0.0,0.0,10.0,0.0,0.0,0.0,10.0,0.00759000910673,0.0201068662301,0.00772316716123,1.0,0.0,0.0,0.0,1.0,0.0,0.0,0.0,1.0,-0.0443078613281,-0.0730480957031,10.0566870117,0.1,0.0,0.0,0.0,0.1,0.0,0.0,0.0,0.1
1446040359073935817,326,1446040359070672035,robocape,16.6663379947,8.4667685098,11.408056683,0.0,10.0,0.0,0.0,0.0,10.0,0.0,0.0,0.0,10.0,0.00772316716123,0.0201068662301,0.0067910607797,1.0,0.0,0.0,0.0,1.0,0.0,0.0,0.0,1.0,-0.0490979003906,-0.0514929199219,10.0363293457,0.1,0.0,0.0,0.0,0.1,0.0,0.0,0.0,0.1
1446040359107121859,327,1446040359103912115,robocape,16.7125108865,8.5135141268,11.4555908782,0.0,10.0,0.0,0.0,0.0,10.0,0.0,0.0,0.0,10.0,0.00506000607115,0.0206394984481,0.0066579027252,1.0,0.0,0.0,0.0,1.0,0.0,0.0,0.0,1.0,-0.0359252929688,-0.0562829589844,10.0722546387,0.1,0.0,0.0,0.0,0.1,0.0,0.0,0.0,0.1
1446040359142206359,328,1446040359139097929,robocape,16.7540880186,8.55891309527,11.5029511933,0.0,10.0,0.0,0.0,0.0,10.0,0.0,0.0,0.0,10.0,0.00253000303558,0.0198405501211,0.0066579027252,1.0,0.0,0.0,0.0,1.0,0.0,0.0,0.0,1.0,-0.0371228027344,-0.0610729980469,10.0327368164,0.1,0.0,0.0,0.0,0.1,0.0,0.0,0.0,0.1
1446040359174410317,329,1446040359170991897,robocape,16.7962250174,8.60407870264,11.5514630188,0.0,10.0,0.0,0.0,0.0,10.0,0.0,0.0,0.0,10.0,0.00266316109008,0.0198405501211,0.00719053494321,1.0,0.0,0.0,0.0,1.0,0.0,0.0,0.0,1.0,-0.0431103515625,-0.0610729980469,10.0506994629,0.1,0.0,0.0,0.0,0.1,0.0,0.0,0.0,0.1
1446040359207289026,330,1446040359204091072,robocape,16.8417509352,8.64935786891,11.5998629371,0.0,10.0,0.0,0.0,0.0,10.0,0.0,0.0,0.0,10.0,0.00439421579863,0.0198405501211,0.00705737688871,1.0,0.0,0.0,0.0,1.0,0.0,0.0,0.0,1.0,-0.0443078613281,-0.067060546875,10.0471069336,0.1,0.0,0.0,0.0,0.1,0.0,0.0,0.0,0.1
1446040359240815651,331,1446040359237596988,robocape,16.8908562638,8.69590346989,11.6495647924,0.0,10.0,0.0,0.0,0.0,10.0,0.0,0.0,0.0,10.0,0.00612527050718,0.0206394984481,0.00745685105222,1.0,0.0,0.0,0.0,1.0,0.0,0.0,0.0,1.0,-0.0395178222656,-0.0838256835938,10.0447119141,0.1,0.0,0.0,0.0,0.1,0.0,0.0,0.0,0.1
1446040359273923942,332,1446040359270721912,robocape,16.9436385472,8.74199922486,11.6992627917,0.0,10.0,0.0,0.0,0.0,10.0,0.0,0.0,0.0,10.0,0.00798948327024,0.0203731823391,0.00745685105222,1.0,0.0,0.0,0.0,1.0,0.0,0.0,0.0,1.0,-0.0443078613281,-0.0658630371094,10.0686621094,0.1,0.0,0.0,0.0,0.1,0.0,0.0,0.0,0.1
1446040359307036692,333,1446040359304019927,robocape,16.9947616237,8.7876748335,11.7482374149,0.0,10.0,0.0,0.0,0.0,10.0,0.0,0.0,0.0,10.0,0.00705737688871,0.0199737081756,0.00705737688871,1.0,0.0,0.0,0.0,1.0,0.0,0.0,0.0,1.0,-0.0502954101563,-0.0622705078125,10.0447119141,0.1,0.0,0.0,0.0,0.1,0.0,0.0,0.0,0.1
1446040359340792109,334,1446040359337546110,robocape,17.0438463649,8.8344805985,11.7974908572,0.0,10.0,0.0,0.0,0.0,10.0,0.0,0.0,0.0,10.0,0.00585895439817,0.0205063403936,0.00692421883421,1.0,0.0,0.0,0.0,1.0,0.0,0.0,0.0,1.0,-0.0395178222656,-0.0383203125,10.0483044434,0.1,0.0,0.0,0.0,0.1,0.0,0.0,0.0,0.1
1446040359374155942,335,1446040359370979070,robocape,17.0885901282,8.88074508655,11.8465490901,0.0,10.0,0.0,0.0,0.0,10.0,0.0,0.0,0.0,10.0,0.0034621094171,0.0201068662301,0.0067910607797,1.0,0.0,0.0,0.0,1.0,0.0,0.0,0.0,1.0,-0.0550854492188,-0.0658630371094,10.0303417969,0.1,0.0,0.0,0.0,0.1,0.0,0.0,0.0,0.1
1446040359407610192,336,1446040359404597043,robocape,17.1329327637,8.92755504116,11.8951482279,0.0,10.0,0.0,0.0,0.0,10.0,0.0,0.0,0.0,10.0,0.0031957933081,0.0202400242846,0.00639158661619,1.0,0.0,0.0,0.0,1.0,0.0,0.0,0.0,1.0,-0.0419128417969,-0.076640625,10.0471069336,0.1,0.0,0.0,0.0,0.1,0.0,0.0,0.0,0.1
1446040359440741776,337,1446040359437526941,robocape,17.1806375881,8.97531283542,11.9452325695,0.0,10.0,0.0,0.0,0.0,10.0,0.0,0.0,0.0,10.0,0.00479368996214,0.0209058145571,0.00692421883421,1.0,0.0,0.0,0.0,1.0,0.0,0.0,0.0,1.0,-0.0443078613281,-0.0730480957031,10.0506994629,0.1,0.0,0.0,0.0,0.1,0.0,0.0,0.0,0.1
1446040359473744651,338,1446040359470693111,robocape,17.2322160167,9.02221604737,11.9949184868,0.0,10.0,0.0,0.0,0.0,10.0,0.0,0.0,0.0,10.0,0.0067910607797,0.0203731823391,0.0067910607797,1.0,0.0,0.0,0.0,1.0,0.0,0.0,0.0,1.0,-0.0455053710938,-0.0778381347656,10.0566870117,0.1,0.0,0.0,0.0,0.1,0.0,0.0,0.0,0.1
1446040359506953567,339,1446040359503901004,robocape,17.2854861935,9.06869006117,12.0446356065,0.0,10.0,0.0,0.0,0.0,10.0,0.0,0.0,0.0,10.0,0.00759000910673,0.0201068662301,0.0067910607797,1.0,0.0,0.0,0.0,1.0,0.0,0.0,0.0,1.0,-0.0443078613281,-0.0814306640625,10.0566870117,0.1,0.0,0.0,0.0,0.1,0.0,0.0,0.0,0.1
1446040359541143484,340,1446040359537750959,robocape,17.3370596146,9.11638162952,12.0952044812,0.0,10.0,0.0,0.0,0.0,10.0,0.0,0.0,0.0,10.0,0.00652474467069,0.0207726565026,0.00692421883421,1.0,0.0,0.0,0.0,1.0,0.0,0.0,0.0,1.0,-0.0610729980469,-0.0502954101563,10.0327368164,0.1,0.0,0.0,0.0,0.1,0.0,0.0,0.0,0.1
1446040359573851026,341,1446040359570755958,robocape,17.3851698472,9.16408036467,12.1446726918,0.0,10.0,0.0,0.0,0.0,10.0,0.0,0.0,0.0,10.0,0.00466053190764,0.0205063403936,0.00625842856169,1.0,0.0,0.0,0.0,1.0,0.0,0.0,0.0,1.0,-0.047900390625,-0.0622705078125,10.0483044434,0.1,0.0,0.0,0.0,0.1,0.0,0.0,0.0,0.1
1446040359607232651,342,1446040359603977918,robocape,17.4311308164,9.21132337648,12.1952842008,0.0,10.0,0.0,0.0,0.0,10.0,0.0,0.0,0.0,10.0,0.0033289513626,0.0203731823391,0.0067910607797,1.0,0.0,0.0,0.0,1.0,0.0,0.0,0.0,1.0,-0.0407153320313,-0.0658630371094,10.0626745605,0.1,0.0,0.0,0.0,0.1,0.0,0.0,0.0,0.1
1446040359640977151,343,1446040359637712001,robocape,17.4781038746,9.25927819802,12.2465526574,0.0,10.0,0.0,0.0,0.0,10.0,0.0,0.0,0.0,10.0,0.00372842552611,0.0207726565026,0.00692421883421,1.0,0.0,0.0,0.0,1.0,0.0,0.0,0.0,1.0,-0.0323327636719,-0.0742456054688,10.0506994629,0.1,0.0,0.0,0.0,0.1,0.0,0.0,0.0,0.1
1446040359673947859,344,1446040359670893907,robocape,17.5275706645,9.30744767156,12.2983080572,0.0,10.0,0.0,0.0,0.0,10.0,0.0,0.0,0.0,10.0,0.00492684801665,0.0209058145571,0.00705737688871,1.0,0.0,0.0,0.0,1.0,0.0,0.0,0.0,1.0,-0.0371228027344,-0.0814306640625,10.0375268555,0.1,0.0,0.0,0.0,0.1,0.0,0.0,0.0,0.1
1446040359707059401,345,1446040359703850984,robocape,17.5794506894,9.35446071857,12.3498621795,0.0,10.0,0.0,0.0,0.0,10.0,0.0,0.0,0.0,10.0,0.00612527050718,0.0202400242846,0.00705737688871,1.0,0.0,0.0,0.0,1.0,0.0,0.0,0.0,1.0,-0.0395178222656,-0.0826281738281,10.0459094238,0.1,0.0,0.0,0.0,0.1,0.0,0.0,0.0,0.1
1446040359740834109,346,1446040359737638950,robocape,17.6324842492,9.40297579571,12.4012583007,0.0,10.0,0.0,0.0,0.0,10.0,0.0,0.0,0.0,10.0,0.0066579027252,0.0209058145571,0.0066579027252,1.0,0.0,0.0,0.0,1.0,0.0,0.0,0.0,1.0,-0.0371228027344,-0.0514929199219,10.039921875,0.1,0.0,0.0,0.0,0.1,0.0,0.0,0.0,0.1
1446040359773702193,347,1446040359770657062,robocape,17.6836422397,9.45102902091,12.4538078205,0.0,10.0,0.0,0.0,0.0,10.0,0.0,0.0,0.0,10.0,0.00545948023466,0.0207726565026,0.00719053494321,1.0,0.0,0.0,0.0,1.0,0.0,0.0,0.0,1.0,-0.0359252929688,-0.0610729980469,10.055489502,0.1,0.0,0.0,0.0,0.1,0.0,0.0,0.0,0.1
1446040359806981734,348,1446040359803935050,robocape,17.732113807,9.49981771049,12.5054824202,0.0,10.0,0.0,0.0,0.0,10.0,0.0,0.0,0.0,10.0,0.00399474163512,0.0209058145571,0.00652474467069,1.0,0.0,0.0,0.0,1.0,0.0,0.0,0.0,1.0,-0.0490979003906,-0.0598754882813,10.0447119141,0.1,0.0,0.0,0.0,0.1,0.0,0.0,0.0,0.1
1446040359840797109,349,1446040359837635040,robocape,17.7802969098,9.54740269215,12.5572443874,0.0,10.0,0.0,0.0,0.0,10.0,0.0,0.0,0.0,10.0,0.00372842552611,0.0202400242846,0.0066579027252,1.0,0.0,0.0,0.0,1.0,0.0,0.0,0.0,1.0,-0.0395178222656,-0.0658630371094,10.0207617188,0.1,0.0,0.0,0.0,0.1,0.0,0.0,0.0,0.1
1446040359873709026,350,1446040359870702981,robocape,17.8300964939,9.5960152645,12.610306585,0.0,10.0,0.0,0.0,0.0,10.0,0.0,0.0,0.0,10.0,0.00439421579863,0.0209058145571,0.00705737688871,1.0,0.0,0.0,0.0,1.0,0.0,0.0,0.0,1.0,-0.0443078613281,-0.0898132324219,10.0435144043,0.1,0.0,0.0,0.0,0.1,0.0,0.0,0.0,0.1
1446040359906950276,351,1446040359903908014,robocape,17.8821382732,9.64436130773,12.6637206878,0.0,10.0,0.0,0.0,0.0,10.0,0.0,0.0,0.0,10.0,0.00545948023466,0.0207726565026,0.00719053494321,1.0,0.0,0.0,0.0,1.0,0.0,0.0,0.0,1.0,-0.0335302734375,-0.086220703125,10.0638720703,0.1,0.0,0.0,0.0,0.1,0.0,0.0,0.0,0.1
1446040359947674026,352,1446040359937602996,robocape,17.9382605364,9.69249784273,12.7164062156,0.0,10.0,0.0,0.0,0.0,10.0,0.0,0.0,0.0,10.0,0.00759000910673,0.0205063403936,0.0067910607797,1.0,0.0,0.0,0.0,1.0,0.0,0.0,0.0,1.0,-0.0323327636719,-0.0778381347656,10.0483044434,0.1,0.0,0.0,0.0,0.1,0.0,0.0,0.0,0.1
1446040359973815984,353,1446040359970799922,robocape,17.9923681467,9.74129080299,12.7692703981,0.0,10.0,0.0,0.0,0.0,10.0,0.0,0.0,0.0,10.0,0.00639158661619,0.0207726565026,0.0066579027252,1.0,0.0,0.0,0.0,1.0,0.0,0.0,0.0,1.0,-0.0526904296875,-0.0526904296875,10.0435144043,0.1,0.0,0.0,0.0,0.1,0.0,0.0,0.0,0.1
1446040360007189109,354,1446040360004024028,robocape,18.0447439911,9.78961699621,12.8224878518,0.0,10.0,0.0,0.0,0.0,10.0,0.0,0.0,0.0,10.0,0.00532632218016,0.0205063403936,0.0067910607797,1.0,0.0,0.0,0.0,1.0,0.0,0.0,0.0,1.0,-0.0359252929688,-0.0526904296875,10.0566870117,0.1,0.0,0.0,0.0,0.1,0.0,0.0,0.0,0.1
1446040360040738026,355,1446040360037646055,robocape,18.0940059719,9.83620711952,12.8767476974,0.0,10.0,0.0,0.0,0.0,10.0,0.0,0.0,0.0,10.0,0.0034621094171,0.0197073920666,0.00745685105222,1.0,0.0,0.0,0.0,1.0,0.0,0.0,0.0,1.0,-0.0538879394531,-0.0622705078125,10.0291442871,0.1,0.0,0.0,0.0,0.1,0.0,0.0,0.0,0.1
1446040360073954484,356,1446040360070758104,robocape,18.1432575309,9.88415640746,12.9297639571,0.0,10.0,0.0,0.0,0.0,10.0,0.0,0.0,0.0,10.0,0.0034621094171,0.0201068662301,0.00652474467069,1.0,0.0,0.0,0.0,1.0,0.0,0.0,0.0,1.0,-0.0431103515625,-0.0814306640625,10.0854272461,0.1,0.0,0.0,0.0,0.1,0.0,0.0,0.0,0.1
1446040360107130609,357,1446040360103893995,robocape,18.1947338482,9.93240104779,12.9830442226,0.0,10.0,0.0,0.0,0.0,10.0,0.0,0.0,0.0,10.0,0.00452737385313,0.0202400242846,0.00652474467069,1.0,0.0,0.0,0.0,1.0,0.0,0.0,0.0,1.0,-0.0502954101563,-0.0910107421875,10.0363293457,0.1,0.0,0.0,0.0,0.1,0.0,0.0,0.0,0.1
1446040360140705359,358,1446040360137622117,robocape,18.2494076225,9.98020419003,13.0379569282,0.0,10.0,0.0,0.0,0.0,10.0,0.0,0.0,0.0,10.0,0.00599211245268,0.0202400242846,0.00732369299772,1.0,0.0,0.0,0.0,1.0,0.0,0.0,0.0,1.0,-0.0371228027344,-0.0754431152344,10.039921875,0.1,0.0,0.0,0.0,0.1,0.0,0.0,0.0,0.1
1446040360173833943,359,1446040360170649051,robocape,18.3054744889,10.0298336431,13.0925790652,0.0,10.0,0.0,0.0,0.0,10.0,0.0,0.0,0.0,10.0,0.0066579027252,0.0210389726116,0.0067910607797,1.0,0.0,0.0,0.0,1.0,0.0,0.0,0.0,1.0,-0.0443078613281,-0.0754431152344,10.075847168,0.1,0.0,0.0,0.0,0.1,0.0,0.0,0.0,0.1
1446040360207168276,360,1446040360203998088,robocape,18.3617650086,10.0798610511,13.1472776614,0.0,10.0,0.0,0.0,0.0,10.0,0.0,0.0,0.0,10.0,0.0066579027252,0.0211721306661,0.0066579027252,1.0,0.0,0.0,0.0,1.0,0.0,0.0,0.0,1.0,-0.0455053710938,-0.0610729980469,10.0447119141,0.1,0.0,0.0,0.0,0.1,0.0,0.0,0.0,0.1
1446040360240615026,361,1446040360237555980,robocape,18.4148804763,10.1291191231,13.2025357314,0.0,10.0,0.0,0.0,0.0,10.0,0.0,0.0,0.0,10.0,0.00479368996214,0.0207726565026,0.00692421883421,1.0,0.0,0.0,0.0,1.0,0.0,0.0,0.0,1.0,-0.0490979003906,-0.0550854492188,10.0650695801,0.1,0.0,0.0,0.0,0.1,0.0,0.0,0.0,0.1
1446040360273855484,362,1446040360270698070,robocape,18.4657769632,10.1768771293,13.2580956977,0.0,10.0,0.0,0.0,0.0,10.0,0.0,0.0,0.0,10.0,0.0034621094171,0.0199737081756,0.00719053494321,1.0,0.0,0.0,0.0,1.0,0.0,0.0,0.0,1.0,-0.0419128417969,-0.0718505859375,10.0435144043,0.1,0.0,0.0,0.0,0.1,0.0,0.0,0.0,0.1
1446040360307077068,363,1446040360303910970,robocape,18.5170934393,10.2251123583,13.3134815969,0.0,10.0,0.0,0.0,0.0,10.0,0.0,0.0,0.0,10.0,0.00359526747161,0.0201068662301,0.00692421883421,1.0,0.0,0.0,0.0,1.0,0.0,0.0,0.0,1.0,-0.0467028808594,-0.0694555664063,10.0207617188,0.1,0.0,0.0,0.0,0.1,0.0,0.0,0.0,0.1
1446040360340534609,364,1446040360337518930,robocape,18.5696362871,10.2742150254,13.3690807374,0.0,10.0,0.0,0.0,0.0,10.0,0.0,0.0,0.0,10.0,0.00412789968962,0.0205063403936,0.0067910607797,1.0,0.0,0.0,0.0,1.0,0.0,0.0,0.0,1.0,-0.0407153320313,-0.0874182128906,10.0387243652,0.1,0.0,0.0,0.0,0.1,0.0,0.0,0.0,0.1
1446040360373838610,365,1446040360370693922,robocape,18.6266267851,10.3228694574,13.424681221,0.0,10.0,0.0,0.0,0.0,10.0,0.0,0.0,0.0,10.0,0.00639158661619,0.0202400242846,0.0067910607797,1.0,0.0,0.0,0.0,1.0,0.0,0.0,0.0,1.0,-0.0335302734375,-0.0706530761719,10.0506994629,0.1,0.0,0.0,0.0,0.1,0.0,0.0,0.0,0.1
1446040360406963443,366,1446040360403978109,robocape,18.6858944474,10.3722957354,13.4807283963,0.0,10.0,0.0,0.0,0.0,10.0,0.0,0.0,0.0,10.0,0.00745685105222,0.0206394984481,0.0067910607797,1.0,0.0,0.0,0.0,1.0,0.0,0.0,0.0,1.0,-0.0359252929688,-0.0790356445313,10.0506994629,0.1,0.0,0.0,0.0,0.1,0.0,0.0,0.0,0.1
1446040360443442568,367,1446040360439239978,robocape,18.7453212282,10.4212469284,13.5363074539,0.0,10.0,0.0,0.0,0.0,10.0,0.0,0.0,0.0,10.0,0.00745685105222,0.0202400242846,0.00652474467069,1.0,0.0,0.0,0.0,1.0,0.0,0.0,0.0,1.0,-0.0455053710938,-0.0610729980469,10.024354248,0.1,0.0,0.0,0.0,0.1,0.0,0.0,0.0,0.1
1446040360473957985,368,1446040360470750093,robocape,18.8037409534,10.4711523289,13.5935365066,0.0,10.0,0.0,0.0,0.0,10.0,0.0,0.0,0.0,10.0,0.0066579027252,0.0209058145571,0.00705737688871,1.0,0.0,0.0,0.0,1.0,0.0,0.0,0.0,1.0,-0.0335302734375,-0.0742456054688,10.0291442871,0.1,0.0,0.0,0.0,0.1,0.0,0.0,0.0,0.1
1446040360507051901,369,1446040360503911018,robocape,18.8609418726,10.5201107923,13.6509768032,0.0,10.0,0.0,0.0,0.0,10.0,0.0,0.0,0.0,10.0,0.00585895439817,0.0203731823391,0.00719053494321,1.0,0.0,0.0,0.0,1.0,0.0,0.0,0.0,1.0,-0.0455053710938,-0.067060546875,10.0722546387,0.1,0.0,0.0,0.0,0.1,0.0,0.0,0.0,0.1
1446040360540978318,370,1446040360537276983,robocape,18.9152522628,10.5690385427,13.7076080496,0.0,10.0,0.0,0.0,0.0,10.0,0.0,0.0,0.0,10.0,0.00426105774413,0.0201068662301,0.0066579027252,1.0,0.0,0.0,0.0,1.0,0.0,0.0,0.0,1.0,-0.0550854492188,-0.0706530761719,10.0770446777,0.1,0.0,0.0,0.0,0.1,0.0,0.0,0.0,0.1
1446040360573780985,371,1446040360570524930,robocape,18.9711242381,10.6184241306,13.7648690896,0.0,10.0,0.0,0.0,0.0,10.0,0.0,0.0,0.0,10.0,0.00492684801665,0.0203731823391,0.0067910607797,1.0,0.0,0.0,0.0,1.0,0.0,0.0,0.0,1.0,-0.0335302734375,-0.0838256835938,10.0518969727,0.1,0.0,0.0,0.0,0.1,0.0,0.0,0.0,0.1
1446040360607116485,372,1446040360603894948,robocape,19.0289903274,10.6686699221,13.8223524767,0.0,10.0,0.0,0.0,0.0,10.0,0.0,0.0,0.0,10.0,0.00585895439817,0.0207726565026,0.0066579027252,1.0,0.0,0.0,0.0,1.0,0.0,0.0,0.0,1.0,-0.0538879394531,-0.076640625,10.0291442871,0.1,0.0,0.0,0.0,0.1,0.0,0.0,0.0,0.1
1446040360640916401,373,1446040360637427091,robocape,19.0872236227,10.719064245,13.8806634712,0.0,10.0,0.0,0.0,0.0,10.0,0.0,0.0,0.0,10.0,0.00585895439817,0.0209058145571,0.00692421883421,1.0,0.0,0.0,0.0,1.0,0.0,0.0,0.0,1.0,-0.0371228027344,-0.0634680175781,10.0315393066,0.1,0.0,0.0,0.0,0.1,0.0,0.0,0.0,0.1
1446040360674574151,374,1446040360670960903,robocape,19.144100689,10.768294024,13.9383038385,0.0,10.0,0.0,0.0,0.0,10.0,0.0,0.0,0.0,10.0,0.00506000607115,0.0201068662301,0.0066579027252,1.0,0.0,0.0,0.0,1.0,0.0,0.0,0.0,1.0,-0.0395178222656,-0.0634680175781,10.0375268555,0.1,0.0,0.0,0.0,0.1,0.0,0.0,0.0,0.1
1446040360707196985,375,1446040360703983068,robocape,19.2015068238,10.8167984743,13.9961995533,0.0,10.0,0.0,0.0,0.0,10.0,0.0,0.0,0.0,10.0,0.00519316412565,0.0197073920666,0.0067910607797,1.0,0.0,0.0,0.0,1.0,0.0,0.0,0.0,1.0,-0.0359252929688,-0.0658630371094,10.0674645996,0.1,0.0,0.0,0.0,0.1,0.0,0.0,0.0,0.1
1446040360740911860,376,1446040360737394094,robocape,19.2585822768,10.8664102905,14.0552656428,0.0,10.0,0.0,0.0,0.0,10.0,0.0,0.0,0.0,10.0,0.00479368996214,0.0203731823391,0.00705737688871,1.0,0.0,0.0,0.0,1.0,0.0,0.0,0.0,1.0,-0.05748046875,-0.0550854492188,10.0423168945,0.1,0.0,0.0,0.0,0.1,0.0,0.0,0.0,0.1
1446040360773764485,377,1446040360770524978,robocape,19.3163486099,10.9162676443,14.1141082776,0.0,10.0,0.0,0.0,0.0,10.0,0.0,0.0,0.0,10.0,0.00506000607115,0.0203731823391,0.0067910607797,1.0,0.0,0.0,0.0,1.0,0.0,0.0,0.0,1.0,-0.0395178222656,-0.0706530761719,10.0435144043,0.1,0.0,0.0,0.0,0.1,0.0,0.0,0.0,0.1
1446040360807035235,378,1446040360803854942,robocape,19.3760583375,10.9665954254,14.1727844408,0.0,10.0,0.0,0.0,0.0,10.0,0.0,0.0,0.0,10.0,0.00599211245268,0.0205063403936,0.00652474467069,1.0,0.0,0.0,0.0,1.0,0.0,0.0,0.0,1.0,-0.0514929199219,-0.0718505859375,10.0530944824,0.1,0.0,0.0,0.0,0.1,0.0,0.0,0.0,0.1
1446040360848440860,379,1446040360845238924,robocape,19.4374281493,11.0159280158,14.2324268323,0.0,10.0,0.0,0.0,0.0,10.0,0.0,0.0,0.0,10.0,0.0066579027252,0.0201068662301,0.00705737688871,1.0,0.0,0.0,0.0,1.0,0.0,0.0,0.0,1.0,-0.0419128417969,-0.067060546875,10.0255517578,0.1,0.0,0.0,0.0,0.1,0.0,0.0,0.0,0.1
1446040360875914193,380,1446040360872750043,robocape,19.4986085418,11.0655823596,14.2924419866,0.0,10.0,0.0,0.0,0.0,10.0,0.0,0.0,0.0,10.0,0.00639158661619,0.0202400242846,0.00705737688871,1.0,0.0,0.0,0.0,1.0,0.0,0.0,0.0,1.0,-0.0371228027344,-0.0706530761719,10.0614770508,0.1,0.0,0.0,0.0,0.1,0.0,0.0,0.0,0.1
1446040360907118110,381,1446040360903948068,robocape,19.5576844413,11.1146521283,14.3517348518,0.0,10.0,0.0,0.0,0.0,10.0,0.0,0.0,0.0,10.0,0.00519316412565,0.0197073920666,0.0066579027252,1.0,0.0,0.0,0.0,1.0,0.0,0.0,0.0,1.0,-0.0443078613281,-0.0526904296875,10.0459094238,0.1,0.0,0.0,0.0,0.1,0.0,0.0,0.0,0.1
1446040360955032860,382,1446040360951725006,robocape,19.6154432697,11.1635606389,14.4120663884,0.0,10.0,0.0,0.0,0.0,10.0,0.0,0.0,0.0,10.0,0.00426105774413,0.0197073920666,0.00705737688871,1.0,0.0,0.0,0.0,1.0,0.0,0.0,0.0,1.0,-0.0550854492188,-0.0658630371094,10.0267492676,0.1,0.0,0.0,0.0,0.1,0.0,0.0,0.0,0.1
1446040360978381110,383,1446040360975081920,robocape,19.6734164848,11.2129615921,14.4722786603,0.0,10.0,0.0,0.0,0.0,10.0,0.0,0.0,0.0,10.0,0.00426105774413,0.0198405501211,0.0067910607797,1.0,0.0,0.0,0.0,1.0,0.0,0.0,0.0,1.0,-0.0275427246094,-0.0730480957031,10.0447119141,0.1,0.0,0.0,0.0,0.1,0.0,0.0,0.0,0.1
1446040361006987360,384,1446040361003876924,robocape,19.7333426103,11.2638741623,14.5324274452,0.0,10.0,0.0,0.0,0.0,10.0,0.0,0.0,0.0,10.0,0.00519316412565,0.0205063403936,0.00639158661619,1.0,0.0,0.0,0.0,1.0,0.0,0.0,0.0,1.0,-0.0395178222656,-0.0838256835938,10.0315393066,0.1,0.0,0.0,0.0,0.1,0.0,0.0,0.0,0.1
1446040361040612360,385,1446040361037342071,robocape,19.7952039057,11.3150624405,14.5937188003,0.0,10.0,0.0,0.0,0.0,10.0,0.0,0.0,0.0,10.0,0.00599211245268,0.0207726565026,0.0067910607797,1.0,0.0,0.0,0.0,1.0,0.0,0.0,0.0,1.0,-0.0347277832031,-0.0826281738281,10.0710571289,0.1,0.0,0.0,0.0,0.1,0.0,0.0,0.0,0.1
1446040361074003568,386,1446040361070518970,robocape,19.8575848016,11.365617946,14.6550475852,0.0,10.0,0.0,0.0,0.0,10.0,0.0,0.0,0.0,10.0,0.00612527050718,0.0203731823391,0.0067910607797,1.0,0.0,0.0,0.0,1.0,0.0,0.0,0.0,1.0,-0.0431103515625,-0.0622705078125,10.039921875,0.1,0.0,0.0,0.0,0.1,0.0,0.0,0.0,0.1
1446040361107121443,387,1446040361103940010,robocape,19.9215792042,11.4166253411,14.7170517491,0.0,10.0,0.0,0.0,0.0,10.0,0.0,0.0,0.0,10.0,0.0067910607797,0.0206394984481,0.00692421883421,1.0,0.0,0.0,0.0,1.0,0.0,0.0,0.0,1.0,-0.0514929199219,-0.0694555664063,10.0578845215,0.1,0.0,0.0,0.0,0.1,0.0,0.0,0.0,0.1
1446040361140669068,388,1446040361137430906,robocape,19.9843279073,11.467110779,14.7788986228,0.0,10.0,0.0,0.0,0.0,10.0,0.0,0.0,0.0,10.0,0.00599211245268,0.0202400242846,0.0067910607797,1.0,0.0,0.0,0.0,1.0,0.0,0.0,0.0,1.0,-0.0502954101563,-0.0646655273438,10.039921875,0.1,0.0,0.0,0.0,0.1,0.0,0.0,0.0,0.1
1446040361174167652,389,1446040361170452117,robocape,20.046673091,11.5181620261,14.8412316743,0.0,10.0,0.0,0.0,0.0,10.0,0.0,0.0,0.0,10.0,0.00559263828917,0.0205063403936,0.0067910607797,1.0,0.0,0.0,0.0,1.0,0.0,0.0,0.0,1.0,-0.0383203125,-0.0658630371094,10.0447119141,0.1,0.0,0.0,0.0,0.1,0.0,0.0,0.0,0.1
