%time,field.header.seq,field.header.stamp,field.header.frame_id,field.orientation.x,field.orientation.y,field.orientation.z,field.orientation.w,field.orientation_covariance0,field.orientation_covariance1,field.orientation_covariance2,field.orientation_covariance3,field.orientation_covariance4,field.orientation_covariance5,field.orientation_covariance6,field.orientation_covariance7,field.orientation_covariance8,field.angular_velocity.x,field.angular_velocity.y,field.angular_velocity.z,field.angular_velocity_covariance0,field.angular_velocity_covariance1,field.angular_velocity_covariance2,field.angular_velocity_covariance3,field.angular_velocity_covariance4,field.angular_velocity_covariance5,field.angular_velocity_covariance6,field.angular_velocity_covariance7,field.angular_velocity_covariance8,field.linear_acceleration.x,field.linear_acceleration.y,field.linear_acceleration.z,field.linear_acceleration_covariance0,field.linear_acceleration_covariance1,field.linear_acceleration_covariance2,field.linear_acceleration_covariance3,field.linear_acceleration_covariance4,field.linear_acceleration_covariance5,field.linear_acceleration_covariance6,field.linear_acceleration_covariance7,field.linear_acceleration_covariance8
1446038486997064367,1,1446038486993773937,robocape,0.407946842116,8.2545835718,-29.1630579903,0.0,10.0,0.0,0.0,0.0,10.0,0.0,0.0,0.0,10.0,-0.0482032157304,0.0149137021044,0.00466053190764,1.0,0.0,0.0,0.0,1.0,0.0,0.0,0.0,1.0,0.0431103515625,0.128133544922,10.0542919922,0.1,0.0,0.0,0.0,0.1,0.0,0.0,0.0,0.1
1446038487031117033,2,1446038487027781963,robocape,0.390319299559,8.26635511288,-29.0787306436,0.0,10.0,0.0,0.0,0.0,10.0,0.0,0.0,0.0,10.0,-0.0123836990689,0.0167779148675,0.00612527050718,1.0,0.0,0.0,0.0,1.0,0.0,0.0,0.0,1.0,0.0467028808594,-0.183218994141,10.039921875,0.1,0.0,0.0,0.0,0.1,0.0,0.0,0.0,0.1
1446038487068541658,3,1446038487065344095,robocape,0.482035057158,8.28198149217,-28.991192241,0.0,10.0,0.0,0.0,0.0,10.0,0.0,0.0,0.0,10.0,0.0447411063133,0.0189084437396,0.00772316716123,1.0,0.0,0.0,0.0,1.0,0.0,0.0,0.0,1.0,0.0562829589844,-0.253872070313,10.0411193848,0.1,0.0,0.0,0.0,0.1,0.0,0.0,0.0,0.1
1446038487097149992,4,1446038487093907117,robocape,0.630304507414,8.29864936965,-28.9040793804,0.0,10.0,0.0,0.0,0.0,10.0,0.0,0.0,0.0,10.0,0.0745685105222,0.0195742340121,0.00745685105222,1.0,0.0,0.0,0.0,1.0,0.0,0.0,0.0,1.0,0.0311352539063,0.247884521484,10.0794396973,0.1,0.0,0.0,0.0,0.1,0.0,0.0,0.0,0.1
1446038487136309700,5,1446038487133356094,robocape,0.695477948866,8.31207840592,-28.8194743472,0.0,10.0,0.0,0.0,0.0,10.0,0.0,0.0,0.0,10.0,0.0312921428084,0.0178431793035,0.00652474467069,1.0,0.0,0.0,0.0,1.0,0.0,0.0,0.0,1.0,0.0550854492188,0.631087646484,10.0435144043,0.1,0.0,0.0,0.0,0.1,0.0,0.0,0.0,0.1
1446038487168667408,6,1446038487165435075,robocape,0.654692670791,8.32445560157,-28.7356249759,0.0,10.0,0.0,0.0,0.0,10.0,0.0,0.0,0.0,10.0,-0.0242347659197,0.017177389031,0.0066579027252,1.0,0.0,0.0,0.0,1.0,0.0,0.0,0.0,1.0,0.0562829589844,0.556842041016,10.0506994629,0.1,0.0,0.0,0.0,0.1,0.0,0.0,0.0,0.1
1446038487198255742,7,1446038487195045948,robocape,0.568300627895,8.3352103868,-28.6541564863,0.0,10.0,0.0,0.0,0.0,10.0,0.0,0.0,0.0,10.0,-0.0480700576759,0.0162452826495,0.00572579634367,1.0,0.0,0.0,0.0,1.0,0.0,0.0,0.0,1.0,0.0622705078125,0.234711914063,10.055489502,0.1,0.0,0.0,0.0,0.1,0.0,0.0,0.0,0.1
1446038487231358492,8,1446038487228290081,robocape,0.508630912953,8.34497091631,-28.5736587311,0.0,10.0,0.0,0.0,0.0,10.0,0.0,0.0,0.0,10.0,-0.034088461953,0.0157126504315,0.00532632218016,1.0,0.0,0.0,0.0,1.0,0.0,0.0,0.0,1.0,0.0646655273438,-0.0586779785156,10.0518969727,0.1,0.0,0.0,0.0,0.1,0.0,0.0,0.0,0.1
1446038487264843575,9,1446038487261457920,robocape,0.527916079229,8.35815884011,-28.4920264577,0.0,10.0,0.0,0.0,0.0,10.0,0.0,0.0,0.0,10.0,0.00719053494321,0.0175768631945,0.00585895439817,1.0,0.0,0.0,0.0,1.0,0.0,0.0,0.0,1.0,0.0550854492188,-0.156873779297,10.0662670898,0.1,0.0,0.0,0.0,0.1,0.0,0.0,0.0,0.1
1446038487298583325,10,1446038487294848918,robocape,0.628472463006,8.37268577723,-28.4078171252,0.0,10.0,0.0,0.0,0.0,10.0,0.0,0.0,0.0,10.0,0.04966795433,0.0183758115215,0.00719053494321,1.0,0.0,0.0,0.0,1.0,0.0,0.0,0.0,1.0,0.0419128417969,-0.0514929199219,10.0542919922,0.1,0.0,0.0,0.0,0.1,0.0,0.0,0.0,0.1
1446038487330317700,11,1446038487327320098,robocape,0.765265312809,8.38830619272,-28.3224261872,0.0,10.0,0.0,0.0,0.0,10.0,0.0,0.0,0.0,10.0,0.068709556124,0.0190416017941,0.00785632521573,1.0,0.0,0.0,0.0,1.0,0.0,0.0,0.0,1.0,0.0419128417969,0.207169189453,10.0530944824,0.1,0.0,0.0,0.0,0.1,0.0,0.0,0.0,0.1
1446038487363835658,12,1446038487360671997,robocape,0.874136117018,8.40284383792,-28.2403618407,0.0,10.0,0.0,0.0,0.0,10.0,0.0,0.0,0.0,10.0,0.0544616442921,0.0185089695761,0.00625842856169,1.0,0.0,0.0,0.0,1.0,0.0,0.0,0.0,1.0,0.0490979003906,0.447868652344,10.0483044434,0.1,0.0,0.0,0.0,0.1,0.0,0.0,0.0,0.1
1446038487396948033,13,1446038487393870115,robocape,0.90950238101,8.4149476092,-28.1600588229,0.0,10.0,0.0,0.0,0.0,10.0,0.0,0.0,0.0,10.0,0.016112124595,0.017177389031,0.00572579634367,1.0,0.0,0.0,0.0,1.0,0.0,0.0,0.0,1.0,0.0490979003906,0.573607177734,10.0530944824,0.1,0.0,0.0,0.0,0.1,0.0,0.0,0.0,0.1
1446038487429779117,14,1446038487426889896,robocape,0.905253747691,8.4253688829,-28.0798940872,0.0,10.0,0.0,0.0,0.0,10.0,0.0,0.0,0.0,10.0,-0.00466053190764,0.0162452826495,0.00599211245268,1.0,0.0,0.0,0.0,1.0,0.0,0.0,0.0,1.0,0.0455053710938,0.465831298828,10.0662670898,0.1,0.0,0.0,0.0,0.1,0.0,0.0,0.0,0.1
1446038487463650617,15,1446038487460514068,robocape,0.812452626063,8.43350757738,-28.0021501724,0.0,10.0,0.0,0.0,0.0,10.0,0.0,0.0,0.0,10.0,-0.050999534875,0.0149137021044,0.00519316412565,1.0,0.0,0.0,0.0,1.0,0.0,0.0,0.0,1.0,0.0431103515625,0.164058837891,10.0686621094,0.1,0.0,0.0,0.0,0.1,0.0,0.0,0.0,0.1
1446038487496755908,16,1446038487493748903,robocape,0.774895941246,8.44312174215,-27.9229270599,0.0,10.0,0.0,0.0,0.0,10.0,0.0,0.0,0.0,10.0,-0.0222373951022,0.0157126504315,0.00599211245268,1.0,0.0,0.0,0.0,1.0,0.0,0.0,0.0,1.0,0.047900390625,-0.183218994141,10.0423168945,0.1,0.0,0.0,0.0,0.1,0.0,0.0,0.0,0.1
1446038487529703033,17,1446038487526859998,robocape,0.816362251148,8.45563307052,-27.8401006578,0.0,10.0,0.0,0.0,0.0,10.0,0.0,0.0,0.0,10.0,0.0189084437396,0.0173105470855,0.00785632521573,1.0,0.0,0.0,0.0,1.0,0.0,0.0,0.0,1.0,0.0407153320313,-0.0550854492188,10.0315393066,0.1,0.0,0.0,0.0,0.1,0.0,0.0,0.0,0.1
1446038487563920825,18,1446038487560858011,robocape,0.902763248473,8.47002643588,-27.7565237466,0.0,10.0,0.0,0.0,0.0,10.0,0.0,0.0,0.0,10.0,0.0424774193868,0.0183758115215,0.00825579937925,1.0,0.0,0.0,0.0,1.0,0.0,0.0,0.0,1.0,0.0526904296875,0.138911132813,10.024354248,0.1,0.0,0.0,0.0,0.1,0.0,0.0,0.0,0.1
1446038487596819075,19,1446038487593955039,robocape,0.998201346325,8.48431950149,-27.6741289205,0.0,10.0,0.0,0.0,0.0,10.0,0.0,0.0,0.0,10.0,0.0474042674034,0.0183758115215,0.00772316716123,1.0,0.0,0.0,0.0,1.0,0.0,0.0,0.0,1.0,0.0514929199219,0.240699462891,10.0626745605,0.1,0.0,0.0,0.0,0.1,0.0,0.0,0.0,0.1
1446038487629700409,20,1446038487626817941,robocape,1.06784657753,8.49758801981,-27.5933999474,0.0,10.0,0.0,0.0,0.0,10.0,0.0,0.0,0.0,10.0,0.034088461953,0.0178431793035,0.00705737688871,1.0,0.0,0.0,0.0,1.0,0.0,0.0,0.0,1.0,0.0395178222656,0.32572265625,10.039921875,0.1,0.0,0.0,0.0,0.1,0.0,0.0,0.0,0.1
1446038487663950784,21,1446038487660830974,robocape,1.10920233059,8.50987364067,-27.5177601718,0.0,10.0,0.0,0.0,0.0,10.0,0.0,0.0,0.0,10.0,0.0197073920666,0.0173105470855,0.00452737385313,1.0,0.0,0.0,0.0,1.0,0.0,0.0,0.0,1.0,0.0502954101563,0.342487792969,10.0698596191,0.1,0.0,0.0,0.0,0.1,0.0,0.0,0.0,0.1
1446038487696852492,22,1446038487693885087,robocape,1.11032170152,8.52047406874,-27.441275567,0.0,10.0,0.0,0.0,0.0,10.0,0.0,0.0,0.0,10.0,-0.00146473859954,0.016378440704,0.00532632218016,1.0,0.0,0.0,0.0,1.0,0.0,0.0,0.0,1.0,0.0490979003906,0.408350830078,10.0423168945,0.1,0.0,0.0,0.0,0.1,0.0,0.0,0.0,0.1
1446038487729716742,23,1446038487726861000,robocape,1.06839353284,8.53246616724,-27.3663017743,0.0,10.0,0.0,0.0,0.0,10.0,0.0,0.0,0.0,10.0,-0.0239684498107,0.0170442309765,0.00479368996214,1.0,0.0,0.0,0.0,1.0,0.0,0.0,0.0,1.0,0.0514929199219,0.317340087891,10.0578845215,0.1,0.0,0.0,0.0,0.1,0.0,0.0,0.0,0.1
1446038487764096200,24,1446038487760984897,robocape,1.01857604778,8.5437641245,-27.2907579878,0.0,10.0,0.0,0.0,0.0,10.0,0.0,0.0,0.0,10.0,-0.0282295075548,0.016644756813,0.00532632218016,1.0,0.0,0.0,0.0,1.0,0.0,0.0,0.0,1.0,0.0550854492188,0.0981958007813,10.0530944824,0.1,0.0,0.0,0.0,0.1,0.0,0.0,0.0,0.1
1446038487796668034,25,1446038487793651103,robocape,1.00483009594,8.55426228669,-27.2141271938,0.0,10.0,0.0,0.0,0.0,10.0,0.0,0.0,0.0,10.0,-0.00945422186978,0.0162452826495,0.00599211245268,1.0,0.0,0.0,0.0,1.0,0.0,0.0,0.0,1.0,0.0383203125,0.0155676269531,10.0518969727,0.1,0.0,0.0,0.0,0.1,0.0,0.0,0.0,0.1
1446038487829842867,26,1446038487826893091,robocape,1.04038157392,8.56566757193,-27.1372241926,0.0,10.0,0.0,0.0,0.0,10.0,0.0,0.0,0.0,10.0,0.016378440704,0.0167779148675,0.00612527050718,1.0,0.0,0.0,0.0,1.0,0.0,0.0,0.0,1.0,0.0347277832031,0.0946032714844,10.055489502,0.1,0.0,0.0,0.0,0.1,0.0,0.0,0.0,0.1
1446038487866769867,27,1446038487863145112,robocape,1.07893428568,8.57881380603,-27.0602804132,0.0,10.0,0.0,0.0,0.0,10.0,0.0,0.0,0.0,10.0,0.017976337358,0.017710021249,0.00625842856169,1.0,0.0,0.0,0.0,1.0,0.0,0.0,0.0,1.0,0.0538879394531,0.217946777344,10.0159716797,0.1,0.0,0.0,0.0,0.1,0.0,0.0,0.0,0.1
1446038487896901325,28,1446038487893780946,robocape,1.10839492465,8.59145601021,-26.9844175118,0.0,10.0,0.0,0.0,0.0,10.0,0.0,0.0,0.0,10.0,0.0133158054504,0.01744370514,0.00585895439817,1.0,0.0,0.0,0.0,1.0,0.0,0.0,0.0,1.0,0.0514929199219,0.228724365234,10.0506994629,0.1,0.0,0.0,0.0,0.1,0.0,0.0,0.0,0.1
1446038487929974034,29,1446038487927119970,robocape,1.11745211063,8.6041350424,-26.9075097195,0.0,10.0,0.0,0.0,0.0,10.0,0.0,0.0,0.0,10.0,0.00253000303558,0.01744370514,0.0066579027252,1.0,0.0,0.0,0.0,1.0,0.0,0.0,0.0,1.0,0.0443078613281,0.233514404297,10.0459094238,0.1,0.0,0.0,0.0,0.1,0.0,0.0,0.0,0.1
1446038487963817284,30,1446038487960621118,robocape,1.12307881716,8.61657137052,-26.8299582459,0.0,10.0,0.0,0.0,0.0,10.0,0.0,0.0,0.0,10.0,0.00066579027252,0.0173105470855,0.00719053494321,1.0,0.0,0.0,0.0,1.0,0.0,0.0,0.0,1.0,0.0407153320313,0.128133544922,10.0447119141,0.1,0.0,0.0,0.0,0.1,0.0,0.0,0.0,0.1
1446038487996815367,31,1446038487993690967,robocape,1.14107481943,8.62999349389,-26.7545310054,0.0,10.0,0.0,0.0,0.0,10.0,0.0,0.0,0.0,10.0,0.00732369299772,0.0178431793035,0.00612527050718,1.0,0.0,0.0,0.0,1.0,0.0,0.0,0.0,1.0,0.0526904296875,0.13412109375,10.0411193848,0.1,0.0,0.0,0.0,0.1,0.0,0.0,0.0,0.1
1446038488029744200,32,1446038488026909112,robocape,1.16475845343,8.64313791464,-26.6783872368,0.0,10.0,0.0,0.0,0.0,10.0,0.0,0.0,0.0,10.0,0.0102531701968,0.017710021249,0.0066579027252,1.0,0.0,0.0,0.0,1.0,0.0,0.0,0.0,1.0,0.0455053710938,0.227526855469,10.0459094238,0.1,0.0,0.0,0.0,0.1,0.0,0.0,0.0,0.1
1446038488063865742,33,1446038488060621976,robocape,1.17260501899,8.65530500449,-26.6029050672,0.0,10.0,0.0,0.0,0.0,10.0,0.0,0.0,0.0,10.0,0.00199737081756,0.017177389031,0.00652474467069,1.0,0.0,0.0,0.0,1.0,0.0,0.0,0.0,1.0,0.0467028808594,0.276624755859,10.0387243652,0.1,0.0,0.0,0.0,0.1,0.0,0.0,0.0,0.1
1446038488096745200,34,1446038488093849897,robocape,1.17253864679,8.66598842414,-26.5295174013,0.0,10.0,0.0,0.0,0.0,10.0,0.0,0.0,0.0,10.0,-0.00199737081756,0.016378440704,0.00559263828917,1.0,0.0,0.0,0.0,1.0,0.0,0.0,0.0,1.0,0.0502954101563,0.180823974609,10.0267492676,0.1,0.0,0.0,0.0,0.1,0.0,0.0,0.0,0.1
1446038488129641117,35,1446038488126817941,robocape,1.1826324249,8.67740948223,-26.454619806,0.0,10.0,0.0,0.0,0.0,10.0,0.0,0.0,0.0,10.0,0.0031957933081,0.0167779148675,0.00652474467069,1.0,0.0,0.0,0.0,1.0,0.0,0.0,0.0,1.0,0.0514929199219,0.125738525391,10.0363293457,0.1,0.0,0.0,0.0,0.1,0.0,0.0,0.0,0.1
1446038488163786242,36,1446038488160535097,robocape,1.20771105575,8.6895495078,-26.3796372572,0.0,10.0,0.0,0.0,0.0,10.0,0.0,0.0,0.0,10.0,0.0110521185238,0.017177389031,0.0066579027252,1.0,0.0,0.0,0.0,1.0,0.0,0.0,0.0,1.0,0.0467028808594,0.136516113281,10.0363293457,0.1,0.0,0.0,0.0,0.1,0.0,0.0,0.0,0.1
1446038488197188659,37,1446038488194175958,robocape,1.23917088947,8.70141259586,-26.3058673333,0.0,10.0,0.0,0.0,0.0,10.0,0.0,0.0,0.0,10.0,0.0145142279409,0.0170442309765,0.00612527050718,1.0,0.0,0.0,0.0,1.0,0.0,0.0,0.0,1.0,0.0467028808594,0.201181640625,10.0590820312,0.1,0.0,0.0,0.0,0.1,0.0,0.0,0.0,0.1
1446038488229703159,38,1446038488226855993,robocape,1.26276578326,8.71378427811,-26.2319039502,0.0,10.0,0.0,0.0,0.0,10.0,0.0,0.0,0.0,10.0,0.0103863282513,0.0173105470855,0.00639158661619,1.0,0.0,0.0,0.0,1.0,0.0,0.0,0.0,1.0,0.0359252929688,0.235909423828,10.0674645996,0.1,0.0,0.0,0.0,0.1,0.0,0.0,0.0,0.1
1446038488264018242,39,1446038488260797977,robocape,1.27570277967,8.72592863204,-26.1595019471,0.0,10.0,0.0,0.0,0.0,10.0,0.0,0.0,0.0,10.0,0.00492684801665,0.017177389031,0.00572579634367,1.0,0.0,0.0,0.0,1.0,0.0,0.0,0.0,1.0,0.0455053710938,0.250279541016,10.060279541,0.1,0.0,0.0,0.0,0.1,0.0,0.0,0.0,0.1
1446038488297360659,40,1446038488294238090,robocape,1.27819778681,8.73784842676,-26.0874439098,0.0,10.0,0.0,0.0,0.0,10.0,0.0,0.0,0.0,10.0,-0.000532632218016,0.0170442309765,0.00572579634367,1.0,0.0,0.0,0.0,1.0,0.0,0.0,0.0,1.0,0.0634680175781,0.217946777344,10.0483044434,0.1,0.0,0.0,0.0,0.1,0.0,0.0,0.0,0.1
1446038488329944992,41,1446038488326981067,robocape,1.2762687382,8.75028790168,-26.0146916635,0.0,10.0,0.0,0.0,0.0,10.0,0.0,0.0,0.0,10.0,-0.00292947719909,0.0173105470855,0.00625842856169,1.0,0.0,0.0,0.0,1.0,0.0,0.0,0.0,1.0,0.0526904296875,0.189206542969,10.0375268555,0.1,0.0,0.0,0.0,0.1,0.0,0.0,0.0,0.1
1446038488363907951,42,1446038488360759019,robocape,1.27689086973,8.76147603124,-25.9437079148,0.0,10.0,0.0,0.0,0.0,10.0,0.0,0.0,0.0,10.0,-0.00146473859954,0.016644756813,0.00545948023466,1.0,0.0,0.0,0.0,1.0,0.0,0.0,0.0,1.0,0.0467028808594,0.171243896484,10.0423168945,0.1,0.0,0.0,0.0,0.1,0.0,0.0,0.0,0.1
1446038488396946867,43,1446038488393866062,robocape,1.28486743723,8.77341090337,-25.872914217,0.0,10.0,0.0,0.0,0.0,10.0,0.0,0.0,0.0,10.0,0.00239684498107,0.0170442309765,0.00545948023466,1.0,0.0,0.0,0.0,1.0,0.0,0.0,0.0,1.0,0.0431103515625,0.140108642578,10.0459094238,0.1,0.0,0.0,0.0,0.1,0.0,0.0,0.0,0.1
1446038488429888742,44,1446038488426945924,robocape,1.31238781283,8.78705115616,-25.8004805,0.0,10.0,0.0,0.0,0.0,10.0,0.0,0.0,0.0,10.0,0.0125168571234,0.017976337358,0.00639158661619,1.0,0.0,0.0,0.0,1.0,0.0,0.0,0.0,1.0,0.0407153320313,0.123343505859,10.024354248,0.1,0.0,0.0,0.0,0.1,0.0,0.0,0.0,0.1
1446038488465211576,45,1446038488461837053,robocape,1.34575692621,8.80040278437,-25.727782485,0.0,10.0,0.0,0.0,0.0,10.0,0.0,0.0,0.0,10.0,0.015579492377,0.0178431793035,0.0066579027252,1.0,0.0,0.0,0.0,1.0,0.0,0.0,0.0,1.0,0.0562829589844,0.205971679688,10.0016015625,0.1,0.0,0.0,0.0,0.1,0.0,0.0,0.0,0.1
1446038488496781951,46,1446038488493689060,robocape,1.36576607499,8.81226040211,-25.6559667074,0.0,10.0,0.0,0.0,0.0,10.0,0.0,0.0,0.0,10.0,0.00865527354276,0.0170442309765,0.00639158661619,1.0,0.0,0.0,0.0,1.0,0.0,0.0,0.0,1.0,0.0526904296875,0.280217285156,10.0279467773,0.1,0.0,0.0,0.0,0.1,0.0,0.0,0.0,0.1
1446038488529895909,47,1446038488527056932,robocape,1.3621765425,8.82317729548,-25.5858178912,0.0,10.0,0.0,0.0,0.0,10.0,0.0,0.0,0.0,10.0,-0.00359526747161,0.0165115987585,0.00572579634367,1.0,0.0,0.0,0.0,1.0,0.0,0.0,0.0,1.0,0.05748046875,0.259859619141,10.0483044434,0.1,0.0,0.0,0.0,0.1,0.0,0.0,0.0,0.1
1446038488563695451,48,1446038488560544013,robocape,1.3465407085,8.83389442356,-25.5167503445,0.0,10.0,0.0,0.0,0.0,10.0,0.0,0.0,0.0,10.0,-0.00985369603329,0.016378440704,0.00532632218016,1.0,0.0,0.0,0.0,1.0,0.0,0.0,0.0,1.0,0.0658630371094,0.171243896484,10.055489502,0.1,0.0,0.0,0.0,0.1,0.0,0.0,0.0,0.1
1446038488596862492,49,1446038488593935966,robocape,1.34210523411,8.84611631315,-25.4478136681,0.0,10.0,0.0,0.0,0.0,10.0,0.0,0.0,0.0,10.0,-0.00399474163512,0.017177389031,0.00532632218016,1.0,0.0,0.0,0.0,1.0,0.0,0.0,0.0,1.0,0.0395178222656,0.086220703125,10.0303417969,0.1,0.0,0.0,0.0,0.1,0.0,0.0,0.0,0.1
1446038488629889076,50,1446038488627012014,robocape,1.3754526555,8.8590011094,-25.379105105,0.0,10.0,0.0,0.0,0.0,10.0,0.0,0.0,0.0,10.0,0.015845808486,0.0175768631945,0.00519316412565,1.0,0.0,0.0,0.0,1.0,0.0,0.0,0.0,1.0,0.0359252929688,0.0598754882813,10.0387243652,0.1,0.0,0.0,0.0,0.1,0.0,0.0,0.0,0.1
1446038488663797284,51,1446038488660562992,robocape,1.4296725785,8.87178888551,-25.308049676,0.0,10.0,0.0,0.0,0.0,10.0,0.0,0.0,0.0,10.0,0.0266316109008,0.0175768631945,0.00652474467069,1.0,0.0,0.0,0.0,1.0,0.0,0.0,0.0,1.0,0.0311352539063,0.140108642578,10.0495019531,0.1,0.0,0.0,0.0,0.1,0.0,0.0,0.0,0.1
1446038488696676159,52,1446038488693713903,robocape,1.47031868365,8.88432552762,-25.2373140168,0.0,10.0,0.0,0.0,0.0,10.0,0.0,0.0,0.0,10.0,0.0195742340121,0.01744370514,0.00652474467069,1.0,0.0,0.0,0.0,1.0,0.0,0.0,0.0,1.0,0.0431103515625,0.301772460938,10.0674645996,0.1,0.0,0.0,0.0,0.1,0.0,0.0,0.0,0.1
1446038488729840451,53,1446038488726847887,robocape,1.47434261151,8.89670327708,-25.1685244096,0.0,10.0,0.0,0.0,0.0,10.0,0.0,0.0,0.0,10.0,0.000532632218016,0.0173105470855,0.00572579634367,1.0,0.0,0.0,0.0,1.0,0.0,0.0,0.0,1.0,0.0514929199219,0.332907714844,10.0435144043,0.1,0.0,0.0,0.0,0.1,0.0,0.0,0.0,0.1
1446038488763926117,54,1446038488760767936,robocape,1.44628552459,8.9071642441,-25.100764274,0.0,10.0,0.0,0.0,0.0,10.0,0.0,0.0,0.0,10.0,-0.0162452826495,0.0162452826495,0.00545948023466,1.0,0.0,0.0,0.0,1.0,0.0,0.0,0.0,1.0,0.0443078613281,0.238304443359,10.0375268555,0.1,0.0,0.0,0.0,0.1,0.0,0.0,0.0,0.1
1446038488796685409,55,1446038488793742895,robocape,1.4165441664,8.91765976585,-25.0330298079,0.0,10.0,0.0,0.0,0.0,10.0,0.0,0.0,0.0,10.0,-0.017177389031,0.0162452826495,0.00559263828917,1.0,0.0,0.0,0.0,1.0,0.0,0.0,0.0,1.0,0.0562829589844,0.0850231933594,10.0327368164,0.1,0.0,0.0,0.0,0.1,0.0,0.0,0.0,0.1
1446038488829821242,56,1446038488826837062,robocape,1.43110495397,8.92931888477,-24.9647311591,0.0,10.0,0.0,0.0,0.0,10.0,0.0,0.0,0.0,10.0,0.00599211245268,0.016911072922,0.00585895439817,1.0,0.0,0.0,0.0,1.0,0.0,0.0,0.0,1.0,0.0538879394531,0.00598754882813,10.0315393066,0.1,0.0,0.0,0.0,0.1,0.0,0.0,0.0,0.1
1446038488866662076,57,1446038488863194942,robocape,1.48843936112,8.94387052928,-24.8952905532,0.0,10.0,0.0,0.0,0.0,10.0,0.0,0.0,0.0,10.0,0.0283626656093,0.0185089695761,0.00639158661619,1.0,0.0,0.0,0.0,1.0,0.0,0.0,0.0,1.0,0.0490979003906,0.05748046875,10.0530944824,0.1,0.0,0.0,0.0,0.1,0.0,0.0,0.0,0.1
1446038488896782784,58,1446038488893719911,robocape,1.5637825509,8.95756071279,-24.8252366304,0.0,10.0,0.0,0.0,0.0,10.0,0.0,0.0,0.0,10.0,0.0378168874791,0.0181094954125,0.0067910607797,1.0,0.0,0.0,0.0,1.0,0.0,0.0,0.0,1.0,0.0538879394531,0.220341796875,10.0387243652,0.1,0.0,0.0,0.0,0.1,0.0,0.0,0.0,0.1
1446038488929983534,59,1446038488926985025,robocape,1.61400716736,8.9705152514,-24.756063666,0.0,10.0,0.0,0.0,0.0,10.0,0.0,0.0,0.0,10.0,0.0247673981377,0.017710021249,0.00652474467069,1.0,0.0,0.0,0.0,1.0,0.0,0.0,0.0,1.0,0.0514929199219,0.366437988281,10.055489502,0.1,0.0,0.0,0.0,0.1,0.0,0.0,0.0,0.1
1446038488964034659,60,1446038488960949897,robocape,1.61628430383,8.98257862389,-24.6881997718,0.0,10.0,0.0,0.0,0.0,10.0,0.0,0.0,0.0,10.0,-0.000266316109008,0.017177389031,0.00612527050718,1.0,0.0,0.0,0.0,1.0,0.0,0.0,0.0,1.0,0.0490979003906,0.366437988281,10.0387243652,0.1,0.0,0.0,0.0,0.1,0.0,0.0,0.0,0.1
1446038488997691742,61,1446038488994431972,robocape,1.58189620805,8.99402535407,-24.6230554878,0.0,10.0,0.0,0.0,0.0,10.0,0.0,0.0,0.0,10.0,-0.0193079179031,0.0167779148675,0.00492684801665,1.0,0.0,0.0,0.0,1.0,0.0,0.0,0.0,1.0,0.0550854492188,0.234711914063,10.0542919922,0.1,0.0,0.0,0.0,0.1,0.0,0.0,0.0,0.1
1446038489029790868,62,1446038489026842117,robocape,1.55902047215,9.00519968966,-24.5563796567,0.0,10.0,0.0,0.0,0.0,10.0,0.0,0.0,0.0,10.0,-0.0134489635049,0.016644756813,0.00585895439817,1.0,0.0,0.0,0.0,1.0,0.0,0.0,0.0,1.0,0.0550854492188,0.0778381347656,10.0614770508,0.1,0.0,0.0,0.0,0.1,0.0,0.0,0.0,0.1
1446038489063467118,63,1446038489060477018,robocape,1.57586418197,9.01728587329,-24.4891590871,0.0,10.0,0.0,0.0,0.0,10.0,0.0,0.0,0.0,10.0,0.00732369299772,0.017177389031,0.00612527050718,1.0,0.0,0.0,0.0,1.0,0.0,0.0,0.0,1.0,0.0467028808594,0.0167651367188,10.0423168945,0.1,0.0,0.0,0.0,0.1,0.0,0.0,0.0,0.1
1446038489097026826,64,1446038489093934059,robocape,1.62604486392,9.03127589593,-24.4211226131,0.0,10.0,0.0,0.0,0.0,10.0,0.0,0.0,0.0,10.0,0.0247673981377,0.018242653467,0.00652474467069,1.0,0.0,0.0,0.0,1.0,0.0,0.0,0.0,1.0,0.0502954101563,0.111368408203,10.0590820312,0.1,0.0,0.0,0.0,0.1,0.0,0.0,0.0,0.1
1446038489129778284,65,1446038489126810073,robocape,1.68262786173,9.04395367699,-24.3537926189,0.0,10.0,0.0,0.0,0.0,10.0,0.0,0.0,0.0,10.0,0.0282295075548,0.0175768631945,0.00625842856169,1.0,0.0,0.0,0.0,1.0,0.0,0.0,0.0,1.0,0.0502954101563,0.221539306641,10.0530944824,0.1,0.0,0.0,0.0,0.1,0.0,0.0,0.0,0.1
1446038489163631284,66,1446038489160665988,robocape,1.71705587995,9.05791696249,-24.2865015391,0.0,10.0,0.0,0.0,0.0,10.0,0.0,0.0,0.0,10.0,0.016644756813,0.018242653467,0.00639158661619,1.0,0.0,0.0,0.0,1.0,0.0,0.0,0.0,1.0,0.047900390625,0.310155029297,10.0423168945,0.1,0.0,0.0,0.0,0.1,0.0,0.0,0.0,0.1
1446038489203302409,67,1446038489199970006,robocape,1.71380743227,9.06972494345,-24.2214939487,0.0,10.0,0.0,0.0,0.0,10.0,0.0,0.0,0.0,10.0,-0.00292947719909,0.0170442309765,0.00545948023466,1.0,0.0,0.0,0.0,1.0,0.0,0.0,0.0,1.0,0.0514929199219,0.295784912109,10.0566870117,0.1,0.0,0.0,0.0,0.1,0.0,0.0,0.0,0.1
1446038489229880409,68,1446038489226866006,robocape,1.69672410608,9.08157499392,-24.1560692906,0.0,10.0,0.0,0.0,0.0,10.0,0.0,0.0,0.0,10.0,-0.0102531701968,0.0170442309765,0.00585895439817,1.0,0.0,0.0,0.0,1.0,0.0,0.0,0.0,1.0,0.047900390625,0.211959228516,10.060279541,0.1,0.0,0.0,0.0,0.1,0.0,0.0,0.0,0.1
1446038489263401451,69,1446038489260433912,robocape,1.69333599595,9.0934056234,-24.0910348718,0.0,10.0,0.0,0.0,0.0,10.0,0.0,0.0,0.0,10.0,-0.00306263525359,0.0170442309765,0.00572579634367,1.0,0.0,0.0,0.0,1.0,0.0,0.0,0.0,1.0,0.047900390625,0.113763427734,10.0459094238,0.1,0.0,0.0,0.0,0.1,0.0,0.0,0.0,0.1
1446038489296750618,70,1446038489293643951,robocape,1.72031318655,9.10513985455,-24.0250446109,0.0,10.0,0.0,0.0,0.0,10.0,0.0,0.0,0.0,10.0,0.0127831732324,0.0170442309765,0.00625842856169,1.0,0.0,0.0,0.0,1.0,0.0,0.0,0.0,1.0,0.0395178222656,0.0778381347656,10.0483044434,0.1,0.0,0.0,0.0,0.1,0.0,0.0,0.0,0.1
1446038489329891284,71,1446038489326888084,robocape,1.76432426488,9.11856604436,-23.9585781945,0.0,10.0,0.0,0.0,0.0,10.0,0.0,0.0,0.0,10.0,0.0217047628841,0.017976337358,0.00652474467069,1.0,0.0,0.0,0.0,1.0,0.0,0.0,0.0,1.0,0.0562829589844,0.178428955078,10.0542919922,0.1,0.0,0.0,0.0,0.1,0.0,0.0,0.0,0.1
1446038489363598201,72,1446038489360693931,robocape,1.80108691162,9.13072622442,-23.8926616298,0.0,10.0,0.0,0.0,0.0,10.0,0.0,0.0,0.0,10.0,0.017976337358,0.0173105470855,0.00639158661619,1.0,0.0,0.0,0.0,1.0,0.0,0.0,0.0,1.0,0.0407153320313,0.267044677734,10.0662670898,0.1,0.0,0.0,0.0,0.1,0.0,0.0,0.0,0.1
1446038489396875993,73,1446038489393770933,robocape,1.81536588377,9.14321570922,-23.8290500127,0.0,10.0,0.0,0.0,0.0,10.0,0.0,0.0,0.0,10.0,0.00639158661619,0.01744370514,0.00532632218016,1.0,0.0,0.0,0.0,1.0,0.0,0.0,0.0,1.0,0.0490979003906,0.281414794922,10.0411193848,0.1,0.0,0.0,0.0,0.1,0.0,0.0,0.0,0.1
1446038489430294909,74,1446038489427000045,robocape,1.79746744914,9.15505834141,-23.7668805274,0.0,10.0,0.0,0.0,0.0,10.0,0.0,0.0,0.0,10.0,-0.0103863282513,0.0170442309765,0.00479368996214,1.0,0.0,0.0,0.0,1.0,0.0,0.0,0.0,1.0,0.0395178222656,0.263452148438,10.0614770508,0.1,0.0,0.0,0.0,0.1,0.0,0.0,0.0,0.1
1446038489463886909,75,1446038489460830926,robocape,1.77446631997,9.16664346885,-23.7022732123,0.0,10.0,0.0,0.0,0.0,10.0,0.0,0.0,0.0,10.0,-0.0133158054504,0.016911072922,0.00625842856169,1.0,0.0,0.0,0.0,1.0,0.0,0.0,0.0,1.0,0.0431103515625,0.155676269531,10.0518969727,0.1,0.0,0.0,0.0,0.1,0.0,0.0,0.0,0.1
1446038489496963243,76,1446038489493860006,robocape,1.77837335958,9.1789283204,-23.6379296081,0.0,10.0,0.0,0.0,0.0,10.0,0.0,0.0,0.0,10.0,0.000798948327024,0.0173105470855,0.00612527050718,1.0,0.0,0.0,0.0,1.0,0.0,0.0,0.0,1.0,0.0514929199219,0.0143701171875,10.055489502,0.1,0.0,0.0,0.0,0.1,0.0,0.0,0.0,0.1
1446038489529721284,77,1446038489526786088,robocape,1.82406186945,9.19258290153,-23.5724695874,0.0,10.0,0.0,0.0,0.0,10.0,0.0,0.0,0.0,10.0,0.0226368692657,0.0181094954125,0.0066579027252,1.0,0.0,0.0,0.0,1.0,0.0,0.0,0.0,1.0,0.0562829589844,0.0395178222656,10.0363293457,0.1,0.0,0.0,0.0,0.1,0.0,0.0,0.0,0.1
1446038489563680659,78,1446038489560559034,robocape,1.89257864032,9.20662756114,-23.5065285477,0.0,10.0,0.0,0.0,0.0,10.0,0.0,0.0,0.0,10.0,0.034621094171,0.0183758115215,0.00692421883421,1.0,0.0,0.0,0.0,1.0,0.0,0.0,0.0,1.0,0.0526904296875,0.182021484375,10.0447119141,0.1,0.0,0.0,0.0,0.1,0.0,0.0,0.0,0.1
1446038489596720784,79,1446038489593825101,robocape,1.94585267565,9.22017526247,-23.4416223009,0.0,10.0,0.0,0.0,0.0,10.0,0.0,0.0,0.0,10.0,0.0267647689553,0.0181094954125,0.00652474467069,1.0,0.0,0.0,0.0,1.0,0.0,0.0,0.0,1.0,0.0598754882813,0.343685302734,10.0339343262,0.1,0.0,0.0,0.0,0.1,0.0,0.0,0.0,0.1
1446038489630051534,80,1446038489626979112,robocape,2.00599039092,9.23168365176,-23.3791648534,0.0,10.0,0.0,0.0,0.0,10.0,0.0,0.0,0.0,10.0,0.0306263525359,0.0170442309765,0.00532632218016,1.0,0.0,0.0,0.0,1.0,0.0,0.0,0.0,1.0,0.0431103515625,0.378413085938,10.0219592285,0.1,0.0,0.0,0.0,0.1,0.0,0.0,0.0,0.1
1446038489663787659,81,1446038489660546064,robocape,1.96989239354,9.2416954065,-23.3171328028,0.0,10.0,0.0,0.0,0.0,10.0,0.0,0.0,0.0,10.0,-0.0198405501211,0.016112124595,0.00559263828917,1.0,0.0,0.0,0.0,1.0,0.0,0.0,0.0,1.0,0.076640625,0.255069580078,10.0674645996,0.1,0.0,0.0,0.0,0.1,0.0,0.0,0.0,0.1
1446038489696913243,82,1446038489693963050,robocape,1.94448731914,9.25271976545,-23.2554488021,0.0,10.0,0.0,0.0,0.0,10.0,0.0,0.0,0.0,10.0,-0.0142479118319,0.016644756813,0.00545948023466,1.0,0.0,0.0,0.0,1.0,0.0,0.0,0.0,1.0,0.0562829589844,0.0490979003906,10.0387243652,0.1,0.0,0.0,0.0,0.1,0.0,0.0,0.0,0.1
1446038489730188118,83,1446038489727077007,robocape,1.95707666889,9.26514536852,-23.192912856,0.0,10.0,0.0,0.0,0.0,10.0,0.0,0.0,0.0,10.0,0.00559263828917,0.01744370514,0.00585895439817,1.0,0.0,0.0,0.0,1.0,0.0,0.0,0.0,1.0,0.0395178222656,0.0203576660156,10.0303417969,0.1,0.0,0.0,0.0,0.1,0.0,0.0,0.0,0.1
1446038489763685743,84,1446038489760435104,robocape,2.00567443714,9.27843003961,-23.1288034271,0.0,10.0,0.0,0.0,0.0,10.0,0.0,0.0,0.0,10.0,0.0243679239742,0.017976337358,0.0066579027252,1.0,0.0,0.0,0.0,1.0,0.0,0.0,0.0,1.0,0.0443078613281,0.0981958007813,10.0495019531,0.1,0.0,0.0,0.0,0.1,0.0,0.0,0.0,0.1
1446038489796807868,85,1446038489793694019,robocape,2.06152984783,9.29165502596,-23.0648209787,0.0,10.0,0.0,0.0,0.0,10.0,0.0,0.0,0.0,10.0,0.0282295075548,0.017976337358,0.0066579027252,1.0,0.0,0.0,0.0,1.0,0.0,0.0,0.0,1.0,0.0538879394531,0.239501953125,10.0423168945,0.1,0.0,0.0,0.0,0.1,0.0,0.0,0.0,0.1
1446038489829921993,86,1446038489826945066,robocape,2.08596427743,9.30369340136,-23.0017825927,0.0,10.0,0.0,0.0,0.0,10.0,0.0,0.0,0.0,10.0,0.0118510668509,0.0173105470855,0.00639158661619,1.0,0.0,0.0,0.0,1.0,0.0,0.0,0.0,1.0,0.0455053710938,0.320932617188,10.0506994629,0.1,0.0,0.0,0.0,0.1,0.0,0.0,0.0,0.1
1446038489863655160,87,1446038489860394954,robocape,2.07579409254,9.31561705243,-22.9409119283,0.0,10.0,0.0,0.0,0.0,10.0,0.0,0.0,0.0,10.0,-0.00612527050718,0.017177389031,0.00545948023466,1.0,0.0,0.0,0.0,1.0,0.0,0.0,0.0,1.0,0.0359252929688,0.302969970703,10.0387243652,0.1,0.0,0.0,0.0,0.1,0.0,0.0,0.0,0.1
1446038489897259326,88,1446038489894046068,robocape,2.05489824107,9.32734596047,-22.8808253243,0.0,10.0,0.0,0.0,0.0,10.0,0.0,0.0,0.0,10.0,-0.0117179087963,0.0170442309765,0.00519316412565,1.0,0.0,0.0,0.0,1.0,0.0,0.0,0.0,1.0,0.0455053710938,0.173638916016,10.0387243652,0.1,0.0,0.0,0.0,0.1,0.0,0.0,0.0,0.1
1446038489930237868,89,1446038489927189111,robocape,2.05044220797,9.33823567549,-22.818406268,0.0,10.0,0.0,0.0,0.0,10.0,0.0,0.0,0.0,10.0,-0.0033289513626,0.016644756813,0.00652474467069,1.0,0.0,0.0,0.0,1.0,0.0,0.0,0.0,1.0,0.0431103515625,0.0682580566406,10.0459094238,0.1,0.0,0.0,0.0,0.1,0.0,0.0,0.0,0.1
1446038489963807701,90,1446038489960303068,robocape,2.07653946736,9.3507888834,-22.7554013822,0.0,10.0,0.0,0.0,0.0,10.0,0.0,0.0,0.0,10.0,0.0126500151779,0.0175768631945,0.0067910607797,1.0,0.0,0.0,0.0,1.0,0.0,0.0,0.0,1.0,0.0371228027344,0.0898132324219,10.0435144043,0.1,0.0,0.0,0.0,0.1,0.0,0.0,0.0,0.1
1446038489996758785,91,1446038489993693113,robocape,2.11938202387,9.36477667621,-22.6921430762,0.0,10.0,0.0,0.0,0.0,10.0,0.0,0.0,0.0,10.0,0.0214384467751,0.0183758115215,0.00692421883421,1.0,0.0,0.0,0.0,1.0,0.0,0.0,0.0,1.0,0.0514929199219,0.158071289063,10.0590820312,0.1,0.0,0.0,0.0,0.1,0.0,0.0,0.0,0.1
1446038490030695743,92,1446038490027570009,robocape,2.15294419671,9.37650034048,-22.6294883307,0.0,10.0,0.0,0.0,0.0,10.0,0.0,0.0,0.0,10.0,0.016644756813,0.017177389031,0.0067910607797,1.0,0.0,0.0,0.0,1.0,0.0,0.0,0.0,1.0,0.0526904296875,0.253872070313,10.0530944824,0.1,0.0,0.0,0.0,0.1,0.0,0.0,0.0,0.1
1446038490063828451,93,1446038490060218095,robocape,2.16021390483,9.38830438262,-22.567687341,0.0,10.0,0.0,0.0,0.0,10.0,0.0,0.0,0.0,10.0,0.00292947719909,0.017177389031,0.00652474467069,1.0,0.0,0.0,0.0,1.0,0.0,0.0,0.0,1.0,0.0407153320313,0.286204833984,10.0435144043,0.1,0.0,0.0,0.0,0.1,0.0,0.0,0.0,0.1
1446038490097235826,94,1446038490094082117,robocape,2.14970103344,9.39991726768,-22.5062150077,0.0,10.0,0.0,0.0,0.0,10.0,0.0,0.0,0.0,10.0,-0.00639158661619,0.0170442309765,0.00652474467069,1.0,0.0,0.0,0.0,1.0,0.0,0.0,0.0,1.0,0.0490979003906,0.220341796875,10.0423168945,0.1,0.0,0.0,0.0,0.1,0.0,0.0,0.0,0.1
1446038490129902951,95,1446038490127018928,robocape,2.13976074567,9.41207147708,-22.4461495957,0.0,10.0,0.0,0.0,0.0,10.0,0.0,0.0,0.0,10.0,-0.00599211245268,0.0173105470855,0.00585895439817,1.0,0.0,0.0,0.0,1.0,0.0,0.0,0.0,1.0,0.0467028808594,0.125738525391,10.0710571289,0.1,0.0,0.0,0.0,0.1,0.0,0.0,0.0,0.1
1446038490163803451,96,1446038490160176992,robocape,2.14882540031,9.42367307983,-22.3864264036,0.0,10.0,0.0,0.0,0.0,10.0,0.0,0.0,0.0,10.0,0.00399474163512,0.0170442309765,0.00572579634367,1.0,0.0,0.0,0.0,1.0,0.0,0.0,0.0,1.0,0.05748046875,0.09580078125,10.039921875,0.1,0.0,0.0,0.0,0.1,0.0,0.0,0.0,0.1
1446038490196832076,97,1446038490193782091,robocape,2.17880818497,9.43568975981,-22.3259778073,0.0,10.0,0.0,0.0,0.0,10.0,0.0,0.0,0.0,10.0,0.0149137021044,0.0173105470855,0.00612527050718,1.0,0.0,0.0,0.0,1.0,0.0,0.0,0.0,1.0,0.0467028808594,0.144898681641,10.0435144043,0.1,0.0,0.0,0.0,0.1,0.0,0.0,0.0,0.1
1446038490229827243,98,1446038490226902961,robocape,2.20991265855,9.44766261004,-22.2647047828,0.0,10.0,0.0,0.0,0.0,10.0,0.0,0.0,0.0,10.0,0.0154463343225,0.0173105470855,0.0066579027252,1.0,0.0,0.0,0.0,1.0,0.0,0.0,0.0,1.0,0.0431103515625,0.219144287109,10.0363293457,0.1,0.0,0.0,0.0,0.1,0.0,0.0,0.0,0.1
1446038490267473285,99,1446038490264132022,robocape,2.22509493279,9.46022520871,-22.2059119187,0.0,10.0,0.0,0.0,0.0,10.0,0.0,0.0,0.0,10.0,0.00732369299772,0.0175768631945,0.00545948023466,1.0,0.0,0.0,0.0,1.0,0.0,0.0,0.0,1.0,0.0407153320313,0.256267089844,10.0303417969,0.1,0.0,0.0,0.0,0.1,0.0,0.0,0.0,0.1
1446038490296939993,100,1446038490293848037,robocape,2.22387673047,9.47285245818,-22.1481482872,0.0,10.0,0.0,0.0,0.0,10.0,0.0,0.0,0.0,10.0,-0.00119842249054,0.0175768631945,0.00506000607115,1.0,0.0,0.0,0.0,1.0,0.0,0.0,0.0,1.0,0.0467028808594,0.227526855469,10.0542919922,0.1,0.0,0.0,0.0,0.1,0.0,0.0,0.0,0.1
1446038490329837160,101,1446038490326951026,robocape,2.22159936899,9.48495389473,-22.0893640009,0.0,10.0,0.0,0.0,0.0,10.0,0.0,0.0,0.0,10.0,-0.00186421276306,0.0173105470855,0.00572579634367,1.0,0.0,0.0,0.0,1.0,0.0,0.0,0.0,1.0,0.047900390625,0.150886230469,10.0590820312,0.1,0.0,0.0,0.0,0.1,0.0,0.0,0.0,0.1
1446038490363691118,102,1446038490360168933,robocape,2.23248105786,9.49723850797,-22.0294247213,0.0,10.0,0.0,0.0,0.0,10.0,0.0,0.0,0.0,10.0,0.00492684801665,0.01744370514,0.00639158661619,1.0,0.0,0.0,0.0,1.0,0.0,0.0,0.0,1.0,0.0514929199219,0.119750976563,10.0471069336,0.1,0.0,0.0,0.0,0.1,0.0,0.0,0.0,0.1
1446038490397104368,103,1446038490393995046,robocape,2.25412345843,9.50921198253,-21.9688640016,0.0,10.0,0.0,0.0,0.0,10.0,0.0,0.0,0.0,10.0,0.0105194863058,0.0173105470855,0.0067910607797,1.0,0.0,0.0,0.0,1.0,0.0,0.0,0.0,1.0,0.0514929199219,0.147293701172,10.0363293457,0.1,0.0,0.0,0.0,0.1,0.0,0.0,0.0,0.1
1446038490429816452,104,1446038490426934003,robocape,2.27880742042,9.52172999477,-21.9111532114,0.0,10.0,0.0,0.0,0.0,10.0,0.0,0.0,0.0,10.0,0.0123836990689,0.0175768631945,0.00532632218016,1.0,0.0,0.0,0.0,1.0,0.0,0.0,0.0,1.0,0.0598754882813,0.197589111328,10.0411193848,0.1,0.0,0.0,0.0,0.1,0.0,0.0,0.0,0.1
1446038490463745618,105,1446038490460218906,robocape,2.29400427452,9.53322833242,-21.8524878587,0.0,10.0,0.0,0.0,0.0,10.0,0.0,0.0,0.0,10.0,0.00732369299772,0.0170442309765,0.00599211245268,1.0,0.0,0.0,0.0,1.0,0.0,0.0,0.0,1.0,0.0550854492188,0.225131835938,10.0746496582,0.1,0.0,0.0,0.0,0.1,0.0,0.0,0.0,0.1
1446038490496761660,106,1446038490493655920,robocape,2.30075887004,9.5457634177,-21.7942439749,0.0,10.0,0.0,0.0,0.0,10.0,0.0,0.0,0.0,10.0,0.00292947719909,0.0175768631945,0.00585895439817,1.0,0.0,0.0,0.0,1.0,0.0,0.0,0.0,1.0,0.0419128417969,0.198786621094,10.0614770508,0.1,0.0,0.0,0.0,0.1,0.0,0.0,0.0,0.1
1446038490529872035,107,1446038490527000904,robocape,2.30677662158,9.55778838131,-21.7359608048,0.0,10.0,0.0,0.0,0.0,10.0,0.0,0.0,0.0,10.0,0.00253000303558,0.0173105470855,0.00599211245268,1.0,0.0,0.0,0.0,1.0,0.0,0.0,0.0,1.0,0.0490979003906,0.168848876953,10.0530944824,0.1,0.0,0.0,0.0,0.1,0.0,0.0,0.0,0.1
1446038490563094493,108,1446038490560211896,robocape,2.32047935287,9.56977292555,-21.6773056735,0.0,10.0,0.0,0.0,0.0,10.0,0.0,0.0,0.0,10.0,0.00652474467069,0.0173105470855,0.00625842856169,1.0,0.0,0.0,0.0,1.0,0.0,0.0,0.0,1.0,0.0395178222656,0.149688720703,10.0614770508,0.1,0.0,0.0,0.0,0.1,0.0,0.0,0.0,0.1
1446038490596863743,109,1446038490593957901,robocape,2.34096172011,9.581732793,-21.6190240945,0.0,10.0,0.0,0.0,0.0,10.0,0.0,0.0,0.0,10.0,0.0101200121423,0.0173105470855,0.00612527050718,1.0,0.0,0.0,0.0,1.0,0.0,0.0,0.0,1.0,0.0419128417969,0.179626464844,10.0447119141,0.1,0.0,0.0,0.0,0.1,0.0,0.0,0.0,0.1
1446038490629820285,110,1446038490626909971,robocape,2.36051771671,9.59391760297,-21.5601563921,0.0,10.0,0.0,0.0,0.0,10.0,0.0,0.0,0.0,10.0,0.00958737992429,0.01744370514,0.00652474467069,1.0,0.0,0.0,0.0,1.0,0.0,0.0,0.0,1.0,0.0550854492188,0.204774169922,10.0746496582,0.1,0.0,0.0,0.0,0.1,0.0,0.0,0.0,0.1
1446038490663026702,111,1446038490660182952,robocape,2.37034049884,9.60512454947,-21.5018274445,0.0,10.0,0.0,0.0,0.0,10.0,0.0,0.0,0.0,10.0,0.00452737385313,0.016911072922,0.00639158661619,1.0,0.0,0.0,0.0,1.0,0.0,0.0,0.0,1.0,0.0538879394531,0.216749267578,10.0411193848,0.1,0.0,0.0,0.0,0.1,0.0,0.0,0.0,0.1
1446038490696839660,112,1446038490693835020,robocape,2.37342740752,9.61813539162,-21.4443598479,0.0,10.0,0.0,0.0,0.0,10.0,0.0,0.0,0.0,10.0,0.00106526443603,0.0178431793035,0.00599211245268,1.0,0.0,0.0,0.0,1.0,0.0,0.0,0.0,1.0,0.0419128417969,0.1916015625,10.0483044434,0.1,0.0,0.0,0.0,0.1,0.0,0.0,0.0,0.1
1446038490729845368,113,1446038490726932048,robocape,2.37695527026,9.6288823028,-21.3874386348,0.0,10.0,0.0,0.0,0.0,10.0,0.0,0.0,0.0,10.0,0.00133158054504,0.016644756813,0.00585895439817,1.0,0.0,0.0,0.0,1.0,0.0,0.0,0.0,1.0,0.0419128417969,0.159268798828,10.0506994629,0.1,0.0,0.0,0.0,0.1,0.0,0.0,0.0,0.1
1446038490763051618,114,1446038490760153055,robocape,2.38867659908,9.6398797698,-21.3316114053,0.0,10.0,0.0,0.0,0.0,10.0,0.0,0.0,0.0,10.0,0.00572579634367,0.0167779148675,0.00532632218016,1.0,0.0,0.0,0.0,1.0,0.0,0.0,0.0,1.0,0.0455053710938,0.135318603516,10.0495019531,0.1,0.0,0.0,0.0,0.1,0.0,0.0,0.0,0.1
1446038490796706702,115,1446038490793752908,robocape,2.41235602059,9.65179288641,-21.2740705831,0.0,10.0,0.0,0.0,0.0,10.0,0.0,0.0,0.0,10.0,0.0118510668509,0.0173105470855,0.00625842856169,1.0,0.0,0.0,0.0,1.0,0.0,0.0,0.0,1.0,0.0419128417969,0.148491210938,10.0614770508,0.1,0.0,0.0,0.0,0.1,0.0,0.0,0.0,0.1
1446038490829848077,116,1446038490826951026,robocape,2.43924641698,9.6641901612,-21.2168855484,0.0,10.0,0.0,0.0,0.0,10.0,0.0,0.0,0.0,10.0,0.0135821215594,0.0175768631945,0.00612527050718,1.0,0.0,0.0,0.0,1.0,0.0,0.0,0.0,1.0,0.0443078613281,0.190404052734,10.0506994629,0.1,0.0,0.0,0.0,0.1,0.0,0.0,0.0,0.1
1446038490863066285,117,1446038490860157966,robocape,2.45858989366,9.67611319013,-21.160680251,0.0,10.0,0.0,0.0,0.0,10.0,0.0,0.0,0.0,10.0,0.00972053797879,0.0173105470855,0.00572579634367,1.0,0.0,0.0,0.0,1.0,0.0,0.0,0.0,1.0,0.0455053710938,0.227526855469,10.0518969727,0.1,0.0,0.0,0.0,0.1,0.0,0.0,0.0,0.1
1446038490897465535,118,1446038490894403934,robocape,2.46609454038,9.68754427053,-21.1039962477,0.0,10.0,0.0,0.0,0.0,10.0,0.0,0.0,0.0,10.0,0.0034621094171,0.0170442309765,0.00612527050718,1.0,0.0,0.0,0.0,1.0,0.0,0.0,0.0,1.0,0.0514929199219,0.219144287109,10.0411193848,0.1,0.0,0.0,0.0,0.1,0.0,0.0,0.0,0.1
1446038490929893702,119,1446038490927048921,robocape,2.46952643869,9.70053980147,-21.0489068612,0.0,10.0,0.0,0.0,0.0,10.0,0.0,0.0,0.0,10.0,0.00146473859954,0.0178431793035,0.00532632218016,1.0,0.0,0.0,0.0,1.0,0.0,0.0,0.0,1.0,0.0347277832031,0.165256347656,10.0471069336,0.1,0.0,0.0,0.0,0.1,0.0,0.0,0.0,0.1
1446038490963149202,120,1446038490960297107,robocape,2.47810377608,9.71224074085,-20.993521051,0.0,10.0,0.0,0.0,0.0,10.0,0.0,0.0,0.0,10.0,0.00412789968962,0.017177389031,0.00559263828917,1.0,0.0,0.0,0.0,1.0,0.0,0.0,0.0,1.0,0.0443078613281,0.15328125,10.0518969727,0.1,0.0,0.0,0.0,0.1,0.0,0.0,0.0,0.1
1446038490997438035,121,1446038490994260072,robocape,2.49623398492,9.72488295076,-20.9371769208,0.0,10.0,0.0,0.0,0.0,10.0,0.0,0.0,0.0,10.0,0.00905474770627,0.017710021249,0.00612527050718,1.0,0.0,0.0,0.0,1.0,0.0,0.0,0.0,1.0,0.0467028808594,0.162861328125,10.0614770508,0.1,0.0,0.0,0.0,0.1,0.0,0.0,0.0,0.1
1446038491029758702,122,1446038491026921033,robocape,2.52045597632,9.73672792072,-20.8807428594,0.0,10.0,0.0,0.0,0.0,10.0,0.0,0.0,0.0,10.0,0.0122505410144,0.0173105470855,0.00625842856169,1.0,0.0,0.0,0.0,1.0,0.0,0.0,0.0,1.0,0.0443078613281,0.195194091797,10.0459094238,0.1,0.0,0.0,0.0,0.1,0.0,0.0,0.0,0.1
1446038491063514285,123,1446038491060555934,robocape,2.5401496681,9.74856061566,-20.8239939779,0.0,10.0,0.0,0.0,0.0,10.0,0.0,0.0,0.0,10.0,0.00985369603329,0.0173105470855,0.00652474467069,1.0,0.0,0.0,0.0,1.0,0.0,0.0,0.0,1.0,0.0562829589844,0.204774169922,10.0471069336,0.1,0.0,0.0,0.0,0.1,0.0,0.0,0.0,0.1
1446038491097974327,124,1446038491094805002,robocape,2.55400009414,9.76018711144,-20.768698241,0.0,10.0,0.0,0.0,0.0,10.0,0.0,0.0,0.0,10.0,0.00692421883421,0.017177389031,0.00585895439817,1.0,0.0,0.0,0.0,1.0,0.0,0.0,0.0,1.0,0.0371228027344,0.202379150391,10.0614770508,0.1,0.0,0.0,0.0,0.1,0.0,0.0,0.0,0.1
1446038491129772577,125,1446038491126928091,robocape,2.56419578053,9.77229492839,-20.7125565971,0.0,10.0,0.0,0.0,0.0,10.0,0.0,0.0,0.0,10.0,0.00492684801665,0.01744370514,0.00639158661619,1.0,0.0,0.0,0.0,1.0,0.0,0.0,0.0,1.0,0.0407153320313,0.174836425781,10.039921875,0.1,0.0,0.0,0.0,0.1,0.0,0.0,0.0,0.1
1446038491163275952,126,1446038491160442113,robocape,2.57550166266,9.7836592703,-20.6573575007,0.0,10.0,0.0,0.0,0.0,10.0,0.0,0.0,0.0,10.0,0.00559263828917,0.0170442309765,0.00599211245268,1.0,0.0,0.0,0.0,1.0,0.0,0.0,0.0,1.0,0.0419128417969,0.150886230469,10.0327368164,0.1,0.0,0.0,0.0,0.1,0.0,0.0,0.0,0.1
1446038491197277327,127,1446038491194257974,robocape,2.5934755393,9.7957343254,-20.6017249116,0.0,10.0,0.0,0.0,0.0,10.0,0.0,0.0,0.0,10.0,0.00905474770627,0.01744370514,0.00625842856169,1.0,0.0,0.0,0.0,1.0,0.0,0.0,0.0,1.0,0.0443078613281,0.162861328125,10.0518969727,0.1,0.0,0.0,0.0,0.1,0.0,0.0,0.0,0.1
1446038491229842535,128,1446038491226933956,robocape,2.61623275858,9.80752819618,-20.5462262002,0.0,10.0,0.0,0.0,0.0,10.0,0.0,0.0,0.0,10.0,0.0115847507418,0.0173105470855,0.00625842856169,1.0,0.0,0.0,0.0,1.0,0.0,0.0,0.0,1.0,0.0502954101563,0.179626464844,10.0506994629,0.1,0.0,0.0,0.0,0.1,0.0,0.0,0.0,0.1
1446038491263145160,129,1446038491260214090,robocape,2.63653058262,9.81959127111,-20.4916228285,0.0,10.0,0.0,0.0,0.0,10.0,0.0,0.0,0.0,10.0,0.0103863282513,0.01744370514,0.00585895439817,1.0,0.0,0.0,0.0,1.0,0.0,0.0,0.0,1.0,0.0455053710938,0.215551757813,10.0435144043,0.1,0.0,0.0,0.0,0.1,0.0,0.0,0.0,0.1
1446038491297006619,130,1446038491293723106,robocape,2.65199173229,9.83069025675,-20.4385048254,0.0,10.0,0.0,0.0,0.0,10.0,0.0,0.0,0.0,10.0,0.00798948327024,0.016911072922,0.00519316412565,1.0,0.0,0.0,0.0,1.0,0.0,0.0,0.0,1.0,0.0502954101563,0.199984130859,10.0459094238,0.1,0.0,0.0,0.0,0.1,0.0,0.0,0.0,0.1
1446038491329858994,131,1446038491326968908,robocape,2.66328520825,9.8417667354,-20.384564249,0.0,10.0,0.0,0.0,0.0,10.0,0.0,0.0,0.0,10.0,0.00572579634367,0.016911072922,0.00572579634367,1.0,0.0,0.0,0.0,1.0,0.0,0.0,0.0,1.0,0.0502954101563,0.193996582031,10.060279541,0.1,0.0,0.0,0.0,0.1,0.0,0.0,0.0,0.1
1446038491363065619,132,1446038491360161066,robocape,2.67736710862,9.85378863789,-20.329197625,0.0,10.0,0.0,0.0,0.0,10.0,0.0,0.0,0.0,10.0,0.00705737688871,0.01744370514,0.00652474467069,1.0,0.0,0.0,0.0,1.0,0.0,0.0,0.0,1.0,0.0467028808594,0.167651367188,10.0435144043,0.1,0.0,0.0,0.0,0.1,0.0,0.0,0.0,0.1
1446038491396960619,133,1446038491393671035,robocape,2.69725238956,9.86683292552,-20.2753740502,0.0,10.0,0.0,0.0,0.0,10.0,0.0,0.0,0.0,10.0,0.0102531701968,0.017976337358,0.00572579634367,1.0,0.0,0.0,0.0,1.0,0.0,0.0,0.0,1.0,0.028740234375,0.167651367188,10.0255517578,0.1,0.0,0.0,0.0,0.1,0.0,0.0,0.0,0.1
1446038491429934077,134,1446038491427105903,robocape,2.71761778731,9.87956113985,-20.2202093,0.0,10.0,0.0,0.0,0.0,10.0,0.0,0.0,0.0,10.0,0.0103863282513,0.0178431793035,0.00652474467069,1.0,0.0,0.0,0.0,1.0,0.0,0.0,0.0,1.0,0.0359252929688,0.202379150391,10.060279541,0.1,0.0,0.0,0.0,0.1,0.0,0.0,0.0,0.1
1446038491463110202,135,1446038491460268974,robocape,2.7326072507,9.89128849536,-20.1652891309,0.0,10.0,0.0,0.0,0.0,10.0,0.0,0.0,0.0,10.0,0.00759000910673,0.0173105470855,0.00652474467069,1.0,0.0,0.0,0.0,1.0,0.0,0.0,0.0,1.0,0.0395178222656,0.190404052734,10.0411193848,0.1,0.0,0.0,0.0,0.1,0.0,0.0,0.0,0.1
1446038491496965327,136,1446038491493693113,robocape,2.74370476295,9.90332980595,-20.11227213,0.0,10.0,0.0,0.0,0.0,10.0,0.0,0.0,0.0,10.0,0.00572579634367,0.01744370514,0.00559263828917,1.0,0.0,0.0,0.0,1.0,0.0,0.0,0.0,1.0,0.0455053710938,0.171243896484,10.0578845215,0.1,0.0,0.0,0.0,0.1,0.0,0.0,0.0,0.1
1446038491529721660,137,1446038491526864051,robocape,2.76150714784,9.91481015873,-20.0586377837,0.0,10.0,0.0,0.0,0.0,10.0,0.0,0.0,0.0,10.0,0.00918790576077,0.017177389031,0.00599211245268,1.0,0.0,0.0,0.0,1.0,0.0,0.0,0.0,1.0,0.0455053710938,0.156873779297,10.0506994629,0.1,0.0,0.0,0.0,0.1,0.0,0.0,0.0,0.1
1446038491563118327,138,1446038491560269117,robocape,2.78558535583,9.92777354699,-20.0052556609,0.0,10.0,0.0,0.0,0.0,10.0,0.0,0.0,0.0,10.0,0.0125168571234,0.017976337358,0.00585895439817,1.0,0.0,0.0,0.0,1.0,0.0,0.0,0.0,1.0,0.0299377441406,0.164058837891,10.0447119141,0.1,0.0,0.0,0.0,0.1,0.0,0.0,0.0,0.1
1446038491597453077,139,1446038491594074964,robocape,2.8107242419,9.93913809142,-19.950103332,0.0,10.0,0.0,0.0,0.0,10.0,0.0,0.0,0.0,10.0,0.0129163312869,0.017177389031,0.00692421883421,1.0,0.0,0.0,0.0,1.0,0.0,0.0,0.0,1.0,0.0526904296875,0.201181640625,10.0411193848,0.1,0.0,0.0,0.0,0.1,0.0,0.0,0.0,0.1
1446038491629678369,140,1446038491626838922,robocape,2.8311847372,9.95031246694,-19.8968858828,0.0,10.0,0.0,0.0,0.0,10.0,0.0,0.0,0.0,10.0,0.0106526443603,0.0170442309765,0.00599211245268,1.0,0.0,0.0,0.0,1.0,0.0,0.0,0.0,1.0,0.0490979003906,0.217946777344,10.0495019531,0.1,0.0,0.0,0.0,0.1,0.0,0.0,0.0,0.1
1446038491663047494,141,1446038491660195112,robocape,2.84885267965,9.96072252785,-19.8436251873,0.0,10.0,0.0,0.0,0.0,10.0,0.0,0.0,0.0,10.0,0.00918790576077,0.016644756813,0.00612527050718,1.0,0.0,0.0,0.0,1.0,0.0,0.0,0.0,1.0,0.0407153320313,0.213156738281,10.0423168945,0.1,0.0,0.0,0.0,0.1,0.0,0.0,0.0,0.1
1446038491696957619,142,1446038491693675994,robocape,2.86518478374,9.97264805828,-19.7906651679,0.0,10.0,0.0,0.0,0.0,10.0,0.0,0.0,0.0,10.0,0.00852211548825,0.01744370514,0.00599211245268,1.0,0.0,0.0,0.0,1.0,0.0,0.0,0.0,1.0,0.0443078613281,0.196391601563,10.0506994629,0.1,0.0,0.0,0.0,0.1,0.0,0.0,0.0,0.1
1446038491729841160,143,1446038491726924896,robocape,2.8831426686,9.98453036215,-19.7370839465,0.0,10.0,0.0,0.0,0.0,10.0,0.0,0.0,0.0,10.0,0.00932106381528,0.01744370514,0.00639158661619,1.0,0.0,0.0,0.0,1.0,0.0,0.0,0.0,1.0,0.0562829589844,0.178428955078,10.0315393066,0.1,0.0,0.0,0.0,0.1,0.0,0.0,0.0,0.1
1446038491763154244,144,1446038491760217905,robocape,2.9060886331,9.99563449694,-19.6839066631,0.0,10.0,0.0,0.0,0.0,10.0,0.0,0.0,0.0,10.0,0.0119842249054,0.0170442309765,0.00625842856169,1.0,0.0,0.0,0.0,1.0,0.0,0.0,0.0,1.0,0.0455053710938,0.170046386719,10.0614770508,0.1,0.0,0.0,0.0,0.1,0.0,0.0,0.0,0.1
1446038491797005077,145,1446038491793664932,robocape,2.93152269589,10.0062114874,-19.6308805512,0.0,10.0,0.0,0.0,0.0,10.0,0.0,0.0,0.0,10.0,0.0133158054504,0.0167779148675,0.00625842856169,1.0,0.0,0.0,0.0,1.0,0.0,0.0,0.0,1.0,0.0538879394531,0.185614013672,10.0291442871,0.1,0.0,0.0,0.0,0.1,0.0,0.0,0.0,0.1
1446038491829836369,146,1446038491826941013,robocape,2.95978832835,10.0188110953,-19.5788326838,0.0,10.0,0.0,0.0,0.0,10.0,0.0,0.0,0.0,10.0,0.0149137021044,0.0178431793035,0.00572579634367,1.0,0.0,0.0,0.0,1.0,0.0,0.0,0.0,1.0,0.0514929199219,0.199984130859,10.019564209,0.1,0.0,0.0,0.0,0.1,0.0,0.0,0.0,0.1
1446038491863394119,147,1446038491860438108,robocape,2.98545407695,10.0303936773,-19.5269962718,0.0,10.0,0.0,0.0,0.0,10.0,0.0,0.0,0.0,10.0,0.0135821215594,0.0173105470855,0.00572579634367,1.0,0.0,0.0,0.0,1.0,0.0,0.0,0.0,1.0,0.0371228027344,0.211959228516,10.0375268555,0.1,0.0,0.0,0.0,0.1,0.0,0.0,0.0,0.1
1446038491897158869,148,1446038491893866062,robocape,3.00706761394,10.0432245919,-19.4749811303,0.0,10.0,0.0,0.0,0.0,10.0,0.0,0.0,0.0,10.0,0.0114515926873,0.017976337358,0.00585895439817,1.0,0.0,0.0,0.0,1.0,0.0,0.0,0.0,1.0,0.047900390625,0.21076171875,10.0542919922,0.1,0.0,0.0,0.0,0.1,0.0,0.0,0.0,0.1
1446038491929890994,149,1446038491927011966,robocape,3.02948323898,10.0550102444,-19.4226585665,0.0,10.0,0.0,0.0,0.0,10.0,0.0,0.0,0.0,10.0,0.0118510668509,0.01744370514,0.00612527050718,1.0,0.0,0.0,0.0,1.0,0.0,0.0,0.0,1.0,0.0538879394531,0.177231445313,10.0566870117,0.1,0.0,0.0,0.0,0.1,0.0,0.0,0.0,0.1
1446038491963307369,150,1446038491960453033,robocape,3.05803798499,10.0669879144,-19.3699069501,0.0,10.0,0.0,0.0,0.0,10.0,0.0,0.0,0.0,10.0,0.0150468601589,0.0175768631945,0.00639158661619,1.0,0.0,0.0,0.0,1.0,0.0,0.0,0.0,1.0,0.0383203125,0.183218994141,10.0566870117,0.1,0.0,0.0,0.0,0.1,0.0,0.0,0.0,0.1
1446038491997042452,151,1446038491993766069,robocape,3.08291932139,10.0787756368,-19.3190743711,0.0,10.0,0.0,0.0,0.0,10.0,0.0,0.0,0.0,10.0,0.0133158054504,0.01744370514,0.00545948023466,1.0,0.0,0.0,0.0,1.0,0.0,0.0,0.0,1.0,0.0419128417969,0.259859619141,10.0447119141,0.1,0.0,0.0,0.0,0.1,0.0,0.0,0.0,0.1
1446038492030059202,152,1446038492027188062,robocape,3.0892721021,10.0898594464,-19.2682972064,0.0,10.0,0.0,0.0,0.0,10.0,0.0,0.0,0.0,10.0,0.00359526747161,0.0170442309765,0.00559263828917,1.0,0.0,0.0,0.0,1.0,0.0,0.0,0.0,1.0,0.0538879394531,0.252674560547,10.0207617188,0.1,0.0,0.0,0.0,0.1,0.0,0.0,0.0,0.1
1446038492063328786,153,1446038492060446023,robocape,3.08675174515,10.1002708426,-19.2190197375,0.0,10.0,0.0,0.0,0.0,10.0,0.0,0.0,0.0,10.0,-0.000932106381528,0.016644756813,0.00492684801665,1.0,0.0,0.0,0.0,1.0,0.0,0.0,0.0,1.0,0.0347277832031,0.232316894531,10.0530944824,0.1,0.0,0.0,0.0,0.1,0.0,0.0,0.0,0.1
1446038492097119911,154,1446038492093779087,robocape,3.08207075583,10.1113730506,-19.1678421839,0.0,10.0,0.0,0.0,0.0,10.0,0.0,0.0,0.0,10.0,-0.00226368692657,0.0170442309765,0.00599211245268,1.0,0.0,0.0,0.0,1.0,0.0,0.0,0.0,1.0,0.0502954101563,0.209564208984,10.0483044434,0.1,0.0,0.0,0.0,0.1,0.0,0.0,0.0,0.1
1446038492129880702,155,1446038492127032041,robocape,3.07885436675,10.1229385771,-19.1157624001,0.0,10.0,0.0,0.0,0.0,10.0,0.0,0.0,0.0,10.0,-0.00159789665405,0.0173105470855,0.00652474467069,1.0,0.0,0.0,0.0,1.0,0.0,0.0,0.0,1.0,0.0443078613281,0.202379150391,10.0411193848,0.1,0.0,0.0,0.0,0.1,0.0,0.0,0.0,0.1
1446038492163877327,156,1446038492160845994,robocape,3.07921839874,10.1342884117,-19.0650697216,0.0,10.0,0.0,0.0,0.0,10.0,0.0,0.0,0.0,10.0,0.000399474163512,0.017177389031,0.00585895439817,1.0,0.0,0.0,0.0,1.0,0.0,0.0,0.0,1.0,0.0431103515625,0.209564208984,10.0530944824,0.1,0.0,0.0,0.0,0.1,0.0,0.0,0.0,0.1
1446038492196991619,157,1446038492193794965,robocape,3.08056953294,10.1453350538,-19.0132744942,0.0,10.0,0.0,0.0,0.0,10.0,0.0,0.0,0.0,10.0,0.000798948327024,0.0170442309765,0.00652474467069,1.0,0.0,0.0,0.0,1.0,0.0,0.0,0.0,1.0,0.0526904296875,0.158071289063,10.0578845215,0.1,0.0,0.0,0.0,0.1,0.0,0.0,0.0,0.1
1446038492230077036,158,1446038492227149009,robocape,3.10392404927,10.1567545249,-18.9604332475,0.0,10.0,0.0,0.0,0.0,10.0,0.0,0.0,0.0,10.0,0.0122505410144,0.0173105470855,0.00705737688871,1.0,0.0,0.0,0.0,1.0,0.0,0.0,0.0,1.0,0.0455053710938,0.0922082519531,10.0722546387,0.1,0.0,0.0,0.0,0.1,0.0,0.0,0.0,0.1
1446038492263323494,159,1446038492260220050,robocape,3.1413033025,10.1681282881,-18.908375236,0.0,10.0,0.0,0.0,0.0,10.0,0.0,0.0,0.0,10.0,0.0197073920666,0.0173105470855,0.0066579027252,1.0,0.0,0.0,0.0,1.0,0.0,0.0,0.0,1.0,0.0538879394531,0.17244140625,10.0375268555,0.1,0.0,0.0,0.0,0.1,0.0,0.0,0.0,0.1
1446038492297056911,160,1446038492293869972,robocape,3.16474965221,10.179373082,-18.8587999404,0.0,10.0,0.0,0.0,0.0,10.0,0.0,0.0,0.0,10.0,0.0126500151779,0.017177389031,0.00545948023466,1.0,0.0,0.0,0.0,1.0,0.0,0.0,0.0,1.0,0.0455053710938,0.269439697266,10.0530944824,0.1,0.0,0.0,0.0,0.1,0.0,0.0,0.0,0.1
1446038492329875036,161,1446038492326961040,robocape,3.16935754977,10.1908841795,-18.8082042406,0.0,10.0,0.0,0.0,0.0,10.0,0.0,0.0,0.0,10.0,0.00266316109008,0.0173105470855,0.00612527050718,1.0,0.0,0.0,0.0,1.0,0.0,0.0,0.0,1.0,0.0562829589844,0.262254638672,10.0387243652,0.1,0.0,0.0,0.0,0.1,0.0,0.0,0.0,0.1
1446038492363304119,162,1446038492360214948,robocape,3.16181879171,10.2016797702,-18.7576279085,0.0,10.0,0.0,0.0,0.0,10.0,0.0,0.0,0.0,10.0,-0.00372842552611,0.016911072922,0.00625842856169,1.0,0.0,0.0,0.0,1.0,0.0,0.0,0.0,1.0,0.0467028808594,0.205971679688,10.0279467773,0.1,0.0,0.0,0.0,0.1,0.0,0.0,0.0,0.1
1446038492397100369,163,1446038492393888950,robocape,3.16213745288,10.2127599137,-18.7086230673,0.0,10.0,0.0,0.0,0.0,10.0,0.0,0.0,0.0,10.0,0.000532632218016,0.0170442309765,0.00545948023466,1.0,0.0,0.0,0.0,1.0,0.0,0.0,0.0,1.0,0.0538879394531,0.110170898438,10.0530944824,0.1,0.0,0.0,0.0,0.1,0.0,0.0,0.0,0.1
1446038492431277952,164,1446038492428127050,robocape,3.19262394728,10.2239128248,-18.65827369,0.0,10.0,0.0,0.0,0.0,10.0,0.0,0.0,0.0,10.0,0.0162452826495,0.017177389031,0.00612527050718,1.0,0.0,0.0,0.0,1.0,0.0,0.0,0.0,1.0,0.0562829589844,0.116158447266,10.0363293457,0.1,0.0,0.0,0.0,0.1,0.0,0.0,0.0,0.1
1446038492463296702,165,1446038492460225105,robocape,3.23248998772,10.2354974717,-18.6076894175,0.0,10.0,0.0,0.0,0.0,10.0,0.0,0.0,0.0,10.0,0.0211721306661,0.01744370514,0.00625842856169,1.0,0.0,0.0,0.0,1.0,0.0,0.0,0.0,1.0,0.0347277832031,0.184416503906,10.024354248,0.1,0.0,0.0,0.0,0.1,0.0,0.0,0.0,0.1
1446038492497053078,166,1446038492493751049,robocape,3.26851713872,10.246556883,-18.5570258495,0.0,10.0,0.0,0.0,0.0,10.0,0.0,0.0,0.0,10.0,0.0191747598486,0.017177389031,0.00639158661619,1.0,0.0,0.0,0.0,1.0,0.0,0.0,0.0,1.0,0.0455053710938,0.227526855469,10.0423168945,0.1,0.0,0.0,0.0,0.1,0.0,0.0,0.0,0.1
1446038492529828828,167,1446038492526968955,robocape,3.30141217778,10.2581713414,-18.5079629496,0.0,10.0,0.0,0.0,0.0,10.0,0.0,0.0,0.0,10.0,0.017710021249,0.01744370514,0.00559263828917,1.0,0.0,0.0,0.0,1.0,0.0,0.0,0.0,1.0,0.0622705078125,0.216749267578,10.0375268555,0.1,0.0,0.0,0.0,0.1,0.0,0.0,0.0,0.1
1446038492563091619,168,1446038492560245037,robocape,3.32848501957,10.2699646685,-18.4572767225,0.0,10.0,0.0,0.0,0.0,10.0,0.0,0.0,0.0,10.0,0.0145142279409,0.0175768631945,0.00652474467069,1.0,0.0,0.0,0.0,1.0,0.0,0.0,0.0,1.0,0.0514929199219,0.217946777344,10.0411193848,0.1,0.0,0.0,0.0,0.1,0.0,0.0,0.0,0.1
1446038492597063828,169,1446038492593745946,robocape,3.35509565635,10.2819700888,-18.4061906548,0.0,10.0,0.0,0.0,0.0,10.0,0.0,0.0,0.0,10.0,0.0142479118319,0.017710021249,0.0067910607797,1.0,0.0,0.0,0.0,1.0,0.0,0.0,0.0,1.0,0.0443078613281,0.217946777344,10.0506994629,0.1,0.0,0.0,0.0,0.1,0.0,0.0,0.0,0.1
1446038492629786036,170,1446038492626925945,robocape,3.38150969686,10.2932348359,-18.3560310961,0.0,10.0,0.0,0.0,0.0,10.0,0.0,0.0,0.0,10.0,0.0142479118319,0.0173105470855,0.00639158661619,1.0,0.0,0.0,0.0,1.0,0.0,0.0,0.0,1.0,0.0550854492188,0.198786621094,10.0291442871,0.1,0.0,0.0,0.0,0.1,0.0,0.0,0.0,0.1
1446038492663013869,171,1446038492660161972,robocape,3.40862777076,10.3037239501,-18.306038231,0.0,10.0,0.0,0.0,0.0,10.0,0.0,0.0,0.0,10.0,0.0146473859954,0.016911072922,0.00639158661619,1.0,0.0,0.0,0.0,1.0,0.0,0.0,0.0,1.0,0.0502954101563,0.231119384766,10.0267492676,0.1,0.0,0.0,0.0,0.1,0.0,0.0,0.0,0.1
1446038492697077244,172,1446038492693840026,robocape,3.42090690984,10.3160446685,-18.2566343932,0.0,10.0,0.0,0.0,0.0,10.0,0.0,0.0,0.0,10.0,0.00692421883421,0.0178431793035,0.00612527050718,1.0,0.0,0.0,0.0,1.0,0.0,0.0,0.0,1.0,0.0550854492188,0.299377441406,10.0506994629,0.1,0.0,0.0,0.0,0.1,0.0,0.0,0.0,0.1
1446038492729860203,173,1446038492726948022,robocape,3.40833170219,10.3264443336,-18.207424364,0.0,10.0,0.0,0.0,0.0,10.0,0.0,0.0,0.0,10.0,-0.00612527050718,0.0167779148675,0.00625842856169,1.0,0.0,0.0,0.0,1.0,0.0,0.0,0.0,1.0,0.0502954101563,0.319735107422,10.0626745605,0.1,0.0,0.0,0.0,0.1,0.0,0.0,0.0,0.1
1446038492763090869,174,1446038492760155916,robocape,3.37727743097,10.3384457002,-18.1583668871,0.0,10.0,0.0,0.0,0.0,10.0,0.0,0.0,0.0,10.0,-0.015845808486,0.0175768631945,0.00625842856169,1.0,0.0,0.0,0.0,1.0,0.0,0.0,0.0,1.0,0.0455053710938,0.217946777344,10.0375268555,0.1,0.0,0.0,0.0,0.1,0.0,0.0,0.0,0.1
1446038492797073286,175,1446038492793776035,robocape,3.35527541203,10.3507092787,-18.1101265007,0.0,10.0,0.0,0.0,0.0,10.0,0.0,0.0,0.0,10.0,-0.0110521185238,0.017710021249,0.00585895439817,1.0,0.0,0.0,0.0,1.0,0.0,0.0,0.0,1.0,0.0514929199219,0.0898132324219,10.039921875,0.1,0.0,0.0,0.0,0.1,0.0,0.0,0.0,0.1
1446038492829871786,176,1446038492826961994,robocape,3.37053080652,10.3620208161,-18.0608212452,0.0,10.0,0.0,0.0,0.0,10.0,0.0,0.0,0.0,10.0,0.00838895743375,0.0173105470855,0.00639158661619,1.0,0.0,0.0,0.0,1.0,0.0,0.0,0.0,1.0,0.0443078613281,0.0562829589844,10.0303417969,0.1,0.0,0.0,0.0,0.1,0.0,0.0,0.0,0.1
1446038492863071744,177,1446038492860147953,robocape,3.4305014156,10.3736021569,-18.0107908852,0.0,10.0,0.0,0.0,0.0,10.0,0.0,0.0,0.0,10.0,0.0318247750264,0.0175768631945,0.0066579027252,1.0,0.0,0.0,0.0,1.0,0.0,0.0,0.0,1.0,0.0550854492188,0.0993933105469,10.0674645996,0.1,0.0,0.0,0.0,0.1,0.0,0.0,0.0,0.1
1446038492897169994,178,1446038492893876075,robocape,3.50864551689,10.3856157015,-17.9619419002,0.0,10.0,0.0,0.0,0.0,10.0,0.0,0.0,0.0,10.0,0.0415453130052,0.0178431793035,0.00599211245268,1.0,0.0,0.0,0.0,1.0,0.0,0.0,0.0,1.0,0.0514929199219,0.222736816406,10.0303417969,0.1,0.0,0.0,0.0,0.1,0.0,0.0,0.0,0.1
1446038492929930578,179,1446038492927077054,robocape,3.57024987711,10.3976220722,-17.9127764325,0.0,10.0,0.0,0.0,0.0,10.0,0.0,0.0,0.0,10.0,0.0328900394625,0.0178431793035,0.00625842856169,1.0,0.0,0.0,0.0,1.0,0.0,0.0,0.0,1.0,0.0538879394531,0.384400634766,10.0291442871,0.1,0.0,0.0,0.0,0.1,0.0,0.0,0.0,0.1
1446038492963458994,180,1446038492960323095,robocape,3.58205492831,10.4080418005,-17.8639292557,0.0,10.0,0.0,0.0,0.0,10.0,0.0,0.0,0.0,10.0,0.0067910607797,0.016911072922,0.00639158661619,1.0,0.0,0.0,0.0,1.0,0.0,0.0,0.0,1.0,0.0443078613281,0.40236328125,10.0339343262,0.1,0.0,0.0,0.0,0.1,0.0,0.0,0.0,0.1
1446038492997241161,181,1446038492993961095,robocape,3.55714238364,10.4190457169,-17.8136618133,0.0,10.0,0.0,0.0,0.0,10.0,0.0,0.0,0.0,10.0,-0.0126500151779,0.017177389031,0.00732369299772,1.0,0.0,0.0,0.0,1.0,0.0,0.0,0.0,1.0,0.0598754882813,0.289797363281,10.0339343262,0.1,0.0,0.0,0.0,0.1,0.0,0.0,0.0,0.1
1446038493029915703,182,1446038493027035951,robocape,3.5173798081,10.4289855133,-17.7659973216,0.0,10.0,0.0,0.0,0.0,10.0,0.0,0.0,0.0,10.0,-0.0202400242846,0.0165115987585,0.00612527050718,1.0,0.0,0.0,0.0,1.0,0.0,0.0,0.0,1.0,0.0514929199219,0.2682421875,10.0782421875,0.1,0.0,0.0,0.0,0.1,0.0,0.0,0.0,0.1
1446038493063256369,183,1446038493060369014,robocape,3.47787935853,10.4389053069,-17.7174696679,0.0,10.0,0.0,0.0,0.0,10.0,0.0,0.0,0.0,10.0,-0.0202400242846,0.0165115987585,0.0066579027252,1.0,0.0,0.0,0.0,1.0,0.0,0.0,0.0,1.0,0.0323327636719,0.180823974609,10.0566870117,0.1,0.0,0.0,0.0,0.1,0.0,0.0,0.0,0.1
1446038493096819619,184,1446038493093749046,robocape,3.45998323201,10.4505253513,-17.6690592592,0.0,10.0,0.0,0.0,0.0,10.0,0.0,0.0,0.0,10.0,-0.00892158965177,0.01744370514,0.00652474467069,1.0,0.0,0.0,0.0,1.0,0.0,0.0,0.0,1.0,0.0347277832031,0.107775878906,10.060279541,0.1,0.0,0.0,0.0,0.1,0.0,0.0,0.0,0.1
1446038493129667744,185,1446038493126794099,robocape,3.4708982164,10.4623101986,-17.6213227124,0.0,10.0,0.0,0.0,0.0,10.0,0.0,0.0,0.0,10.0,0.00625842856169,0.0175768631945,0.00612527050718,1.0,0.0,0.0,0.0,1.0,0.0,0.0,0.0,1.0,0.0538879394531,0.0802331542969,10.0483044434,0.1,0.0,0.0,0.0,0.1,0.0,0.0,0.0,0.1
1446038493163053911,186,1446038493160182952,robocape,3.50697425951,10.474519379,-17.5744983224,0.0,10.0,0.0,0.0,0.0,10.0,0.0,0.0,0.0,10.0,0.0195742340121,0.0178431793035,0.00559263828917,1.0,0.0,0.0,0.0,1.0,0.0,0.0,0.0,1.0,0.0455053710938,0.156873779297,10.0183666992,0.1,0.0,0.0,0.0,0.1,0.0,0.0,0.0,0.1
1446038493196878828,187,1446038493193696022,robocape,3.55243712118,10.4855702176,-17.5260223821,0.0,10.0,0.0,0.0,0.0,10.0,0.0,0.0,0.0,10.0,0.0243679239742,0.0173105470855,0.00652474467069,1.0,0.0,0.0,0.0,1.0,0.0,0.0,0.0,1.0,0.0371228027344,0.227526855469,10.0530944824,0.1,0.0,0.0,0.0,0.1,0.0,0.0,0.0,0.1
1446038493229733828,188,1446038493226886034,robocape,3.58555095262,10.497171745,-17.4781884478,0.0,10.0,0.0,0.0,0.0,10.0,0.0,0.0,0.0,10.0,0.017976337358,0.0175768631945,0.00625842856169,1.0,0.0,0.0,0.0,1.0,0.0,0.0,0.0,1.0,0.05748046875,0.308957519531,10.0471069336,0.1,0.0,0.0,0.0,0.1,0.0,0.0,0.0,0.1
1446038493263132036,189,1446038493260216951,robocape,3.5826744025,10.5081385224,-17.4302555867,0.0,10.0,0.0,0.0,0.0,10.0,0.0,0.0,0.0,10.0,-0.000932106381528,0.017177389031,0.00652474467069,1.0,0.0,0.0,0.0,1.0,0.0,0.0,0.0,1.0,0.0586779785156,0.318537597656,10.0435144043,0.1,0.0,0.0,0.0,0.1,0.0,0.0,0.0,0.1
1446038493297050328,190,1446038493293787002,robocape,3.55977832847,10.5190085614,-17.3838586699,0.0,10.0,0.0,0.0,0.0,10.0,0.0,0.0,0.0,10.0,-0.0113184346328,0.0170442309765,0.00585895439817,1.0,0.0,0.0,0.0,1.0,0.0,0.0,0.0,1.0,0.0550854492188,0.241896972656,10.0267492676,0.1,0.0,0.0,0.0,0.1,0.0,0.0,0.0,0.1
1446038493338115995,191,1446038493335135936,robocape,3.54230153348,10.5301067162,-17.3372841927,0.0,10.0,0.0,0.0,0.0,10.0,0.0,0.0,0.0,10.0,-0.00852211548825,0.017177389031,0.00599211245268,1.0,0.0,0.0,0.0,1.0,0.0,0.0,0.0,1.0,0.0467028808594,0.106578369141,10.055489502,0.1,0.0,0.0,0.0,0.1,0.0,0.0,0.0,0.1
1446038493363048078,192,1446038493360155105,robocape,3.5483813128,10.5408074766,-17.2896915872,0.0,10.0,0.0,0.0,0.0,10.0,0.0,0.0,0.0,10.0,0.00372842552611,0.0170442309765,0.00652474467069,1.0,0.0,0.0,0.0,1.0,0.0,0.0,0.0,1.0,0.0538879394531,0.0514929199219,10.0339343262,0.1,0.0,0.0,0.0,0.1,0.0,0.0,0.0,0.1
1446038493396629703,193,1446038493393666982,robocape,3.58578629238,10.5527101974,-17.2439218869,0.0,10.0,0.0,0.0,0.0,10.0,0.0,0.0,0.0,10.0,0.0203731823391,0.017710021249,0.00545948023466,1.0,0.0,0.0,0.0,1.0,0.0,0.0,0.0,1.0,0.0550854492188,0.135318603516,10.0471069336,0.1,0.0,0.0,0.0,0.1,0.0,0.0,0.0,0.1
1446038493429901411,194,1446038493426970005,robocape,3.62735265278,10.5639535917,-17.1959884932,0.0,10.0,0.0,0.0,0.0,10.0,0.0,0.0,0.0,10.0,0.0223705531567,0.01744370514,0.0066579027252,1.0,0.0,0.0,0.0,1.0,0.0,0.0,0.0,1.0,0.0443078613281,0.274229736328,10.0351318359,0.1,0.0,0.0,0.0,0.1,0.0,0.0,0.0,0.1
1446038493463113078,195,1446038493460222959,robocape,3.64785286922,10.5753143153,-17.1492972576,0.0,10.0,0.0,0.0,0.0,10.0,0.0,0.0,0.0,10.0,0.0114515926873,0.01744370514,0.00612527050718,1.0,0.0,0.0,0.0,1.0,0.0,0.0,0.0,1.0,0.0586779785156,0.288599853516,10.0387243652,0.1,0.0,0.0,0.0,0.1,0.0,0.0,0.0,0.1
1446038493496887245,196,1446038493493921995,robocape,3.64607861564,10.5866786393,-17.101098377,0.0,10.0,0.0,0.0,0.0,10.0,0.0,0.0,0.0,10.0,-0.000399474163512,0.01744370514,0.00705737688871,1.0,0.0,0.0,0.0,1.0,0.0,0.0,0.0,1.0,0.0682580566406,0.246687011719,10.0614770508,0.1,0.0,0.0,0.0,0.1,0.0,0.0,0.0,0.1
1446038493529815786,197,1446038493526968955,robocape,3.64380116007,10.5978002629,-17.0583499899,0.0,10.0,0.0,0.0,0.0,10.0,0.0,0.0,0.0,10.0,-0.000133158054504,0.017177389031,0.00426105774413,1.0,0.0,0.0,0.0,1.0,0.0,0.0,0.0,1.0,0.047900390625,0.223934326172,10.0483044434,0.1,0.0,0.0,0.0,0.1,0.0,0.0,0.0,0.1
1446038493574285870,198,1446038493571402072,robocape,3.62420599985,10.6076962635,-17.0149162949,0.0,10.0,0.0,0.0,0.0,10.0,0.0,0.0,0.0,10.0,-0.00932106381528,0.0165115987585,0.00479368996214,1.0,0.0,0.0,0.0,1.0,0.0,0.0,0.0,1.0,0.0455053710938,0.239501953125,10.0315393066,0.1,0.0,0.0,0.0,0.1,0.0,0.0,0.0,0.1
1446038493597095620,199,1446038493594013929,robocape,3.59752878475,10.6173250992,-16.9704090248,0.0,10.0,0.0,0.0,0.0,10.0,0.0,0.0,0.0,10.0,-0.0131826473959,0.016378440704,0.00545948023466,1.0,0.0,0.0,0.0,1.0,0.0,0.0,0.0,1.0,0.0419128417969,0.231119384766,10.039921875,0.1,0.0,0.0,0.0,0.1,0.0,0.0,0.0,0.1
1446038493629801120,200,1446038493626951932,robocape,3.56996139416,10.6273336221,-16.9229711149,0.0,10.0,0.0,0.0,0.0,10.0,0.0,0.0,0.0,10.0,-0.0139815957229,0.016644756813,0.00705737688871,1.0,0.0,0.0,0.0,1.0,0.0,0.0,0.0,1.0,0.0443078613281,0.141306152344,10.0255517578,0.1,0.0,0.0,0.0,0.1,0.0,0.0,0.0,0.1
1446038493663025745,201,1446038493660168886,robocape,3.58182563518,10.6377278504,-16.8763762655,0.0,10.0,0.0,0.0,0.0,10.0,0.0,0.0,0.0,10.0,0.0067910607797,0.016911072922,0.00652474467069,1.0,0.0,0.0,0.0,1.0,0.0,0.0,0.0,1.0,0.0634680175781,0.0143701171875,10.0423168945,0.1,0.0,0.0,0.0,0.1,0.0,0.0,0.0,0.1
1446038493696781703,202,1446038493693619012,robocape,3.62859423079,10.6487891561,-16.8313667503,0.0,10.0,0.0,0.0,0.0,10.0,0.0,0.0,0.0,10.0,0.0253000303558,0.0173105470855,0.00559263828917,1.0,0.0,0.0,0.0,1.0,0.0,0.0,0.0,1.0,0.0467028808594,0.156873779297,10.0447119141,0.1,0.0,0.0,0.0,0.1,0.0,0.0,0.0,0.1
1446038493729900370,203,1446038493726963996,robocape,3.67492429229,10.6617294492,-16.7842678377,0.0,10.0,0.0,0.0,0.0,10.0,0.0,0.0,0.0,10.0,0.0249005561922,0.0183758115215,0.0066579027252,1.0,0.0,0.0,0.0,1.0,0.0,0.0,0.0,1.0,0.0383203125,0.289797363281,10.0375268555,0.1,0.0,0.0,0.0,0.1,0.0,0.0,0.0,0.1
1446038493763084036,204,1446038493760159969,robocape,3.69233829223,10.6713520389,-16.7397375744,0.0,10.0,0.0,0.0,0.0,10.0,0.0,0.0,0.0,10.0,0.0099868540878,0.0165115987585,0.00559263828917,1.0,0.0,0.0,0.0,1.0,0.0,0.0,0.0,1.0,0.0443078613281,0.331710205078,10.039921875,0.1,0.0,0.0,0.0,0.1,0.0,0.0,0.0,0.1
1446038493797332203,205,1446038493793751955,robocape,3.67843518698,10.6818915985,-16.6959588735,0.0,10.0,0.0,0.0,0.0,10.0,0.0,0.0,0.0,10.0,-0.00639158661619,0.016911072922,0.00532632218016,1.0,0.0,0.0,0.0,1.0,0.0,0.0,0.0,1.0,0.0467028808594,0.277822265625,10.0435144043,0.1,0.0,0.0,0.0,0.1,0.0,0.0,0.0,0.1
1446038493831755453,206,1446038493828608036,robocape,3.65464352942,10.6914182673,-16.651178682,0.0,10.0,0.0,0.0,0.0,10.0,0.0,0.0,0.0,10.0,-0.0117179087963,0.016378440704,0.00599211245268,1.0,0.0,0.0,0.0,1.0,0.0,0.0,0.0,1.0,0.0502954101563,0.171243896484,10.0447119141,0.1,0.0,0.0,0.0,0.1,0.0,0.0,0.0,0.1
1446038493865299620,207,1446038493861876964,robocape,3.64881425158,10.701654111,-16.6068492308,0.0,10.0,0.0,0.0,0.0,10.0,0.0,0.0,0.0,10.0,-0.00226368692657,0.0167779148675,0.00572579634367,1.0,0.0,0.0,0.0,1.0,0.0,0.0,0.0,1.0,0.0407153320313,0.0910107421875,10.0387243652,0.1,0.0,0.0,0.0,0.1,0.0,0.0,0.0,0.1
1446038493898528037,208,1446038493895076990,robocape,3.66492185734,10.7132714701,-16.5618665395,0.0,10.0,0.0,0.0,0.0,10.0,0.0,0.0,0.0,10.0,0.00918790576077,0.0175768631945,0.00599211245268,1.0,0.0,0.0,0.0,1.0,0.0,0.0,0.0,1.0,0.0431103515625,0.116158447266,10.024354248,0.1,0.0,0.0,0.0,0.1,0.0,0.0,0.0,0.1
1446038493931430162,209,1446038493928308963,robocape,3.69499344988,10.7242934006,-16.5166794973,0.0,10.0,0.0,0.0,0.0,10.0,0.0,0.0,0.0,10.0,0.0165115987585,0.0173105470855,0.00612527050718,1.0,0.0,0.0,0.0,1.0,0.0,0.0,0.0,1.0,0.0383203125,0.178428955078,10.0315393066,0.1,0.0,0.0,0.0,0.1,0.0,0.0,0.0,0.1
1446038493964750870,210,1446038493961544990,robocape,3.72055365809,10.7362936499,-16.4710290479,0.0,10.0,0.0,0.0,0.0,10.0,0.0,0.0,0.0,10.0,0.0141147537774,0.0178431793035,0.00639158661619,1.0,0.0,0.0,0.0,1.0,0.0,0.0,0.0,1.0,0.0431103515625,0.246687011719,10.0530944824,0.1,0.0,0.0,0.0,0.1,0.0,0.0,0.0,0.1
1446038493998525328,211,1446038493994900941,robocape,3.72887330907,10.7485935745,-16.4253131275,0.0,10.0,0.0,0.0,0.0,10.0,0.0,0.0,0.0,10.0,0.00506000607115,0.017976337358,0.00652474467069,1.0,0.0,0.0,0.0,1.0,0.0,0.0,0.0,1.0,0.0502954101563,0.257464599609,10.0650695801,0.1,0.0,0.0,0.0,0.1,0.0,0.0,0.0,0.1
1446038494030807620,212,1446038494027755975,robocape,3.72200584648,10.7597513268,-16.380910109,0.0,10.0,0.0,0.0,0.0,10.0,0.0,0.0,0.0,10.0,-0.00279631914458,0.0173105470855,0.00599211245268,1.0,0.0,0.0,0.0,1.0,0.0,0.0,0.0,1.0,0.0538879394531,0.226329345703,10.0614770508,0.1,0.0,0.0,0.0,0.1,0.0,0.0,0.0,0.1
1446038494064658578,213,1446038494061408996,robocape,3.72027276508,10.7708732678,-16.3363323656,0.0,10.0,0.0,0.0,0.0,10.0,0.0,0.0,0.0,10.0,-0.000133158054504,0.0173105470855,0.00612527050718,1.0,0.0,0.0,0.0,1.0,0.0,0.0,0.0,1.0,0.0526904296875,0.144898681641,10.0578845215,0.1,0.0,0.0,0.0,0.1,0.0,0.0,0.0,0.1
1446038494098701287,214,1446038494094907999,robocape,3.73137765706,10.7817061559,-16.2923045483,0.0,10.0,0.0,0.0,0.0,10.0,0.0,0.0,0.0,10.0,0.0066579027252,0.017177389031,0.00585895439817,1.0,0.0,0.0,0.0,1.0,0.0,0.0,0.0,1.0,0.0490979003906,0.125738525391,10.0471069336,0.1,0.0,0.0,0.0,0.1,0.0,0.0,0.0,0.1
1446038494131318662,215,1446038494127999067,robocape,3.75201651684,10.79376466,-16.2487193332,0.0,10.0,0.0,0.0,0.0,10.0,0.0,0.0,0.0,10.0,0.0117179087963,0.0178431793035,0.00559263828917,1.0,0.0,0.0,0.0,1.0,0.0,0.0,0.0,1.0,0.0455053710938,0.180823974609,10.0590820312,0.1,0.0,0.0,0.0,0.1,0.0,0.0,0.0,0.1
1446038494164086245,216,1446038494161066055,robocape,3.76768480783,10.8050364266,-16.2045603506,0.0,10.0,0.0,0.0,0.0,10.0,0.0,0.0,0.0,10.0,0.00905474770627,0.01744370514,0.00599211245268,1.0,0.0,0.0,0.0,1.0,0.0,0.0,0.0,1.0,0.0431103515625,0.251477050781,10.0530944824,0.1,0.0,0.0,0.0,0.1,0.0,0.0,0.0,0.1
1446038494198614495,217,1446038494195103883,robocape,3.76577332519,10.815452719,-16.1622065529,0.0,10.0,0.0,0.0,0.0,10.0,0.0,0.0,0.0,10.0,0.0,0.016911072922,0.00519316412565,1.0,0.0,0.0,0.0,1.0,0.0,0.0,0.0,1.0,0.0395178222656,0.241896972656,10.039921875,0.1,0.0,0.0,0.0,0.1,0.0,0.0,0.0,0.1
1446038494230354328,218,1446038494227334976,robocape,3.75433738564,10.8268926098,-16.1194312875,0.0,10.0,0.0,0.0,0.0,10.0,0.0,0.0,0.0,10.0,-0.00506000607115,0.01744370514,0.00545948023466,1.0,0.0,0.0,0.0,1.0,0.0,0.0,0.0,1.0,0.0526904296875,0.154478759766,10.055489502,0.1,0.0,0.0,0.0,0.1,0.0,0.0,0.0,0.1
1446038494263841703,219,1446038494260787010,robocape,3.75950927626,10.8384803094,-16.0761326387,0.0,10.0,0.0,0.0,0.0,10.0,0.0,0.0,0.0,10.0,0.00359526747161,0.0175768631945,0.00572579634367,1.0,0.0,0.0,0.0,1.0,0.0,0.0,0.0,1.0,0.0419128417969,0.0981958007813,10.0495019531,0.1,0.0,0.0,0.0,0.1,0.0,0.0,0.0,0.1
1446038494297633328,220,1446038494294317960,robocape,3.78722847357,10.8491329905,-16.0315868048,0.0,10.0,0.0,0.0,0.0,10.0,0.0,0.0,0.0,10.0,0.015313176268,0.017177389031,0.00639158661619,1.0,0.0,0.0,0.0,1.0,0.0,0.0,0.0,1.0,0.0443078613281,0.112565917969,10.0638720703,0.1,0.0,0.0,0.0,0.1,0.0,0.0,0.0,0.1
1446038494330521745,221,1446038494327531099,robocape,3.82537080814,10.8619605574,-15.9866285312,0.0,10.0,0.0,0.0,0.0,10.0,0.0,0.0,0.0,10.0,0.0207726565026,0.0183758115215,0.00652474467069,1.0,0.0,0.0,0.0,1.0,0.0,0.0,0.0,1.0,0.0526904296875,0.162861328125,10.0638720703,0.1,0.0,0.0,0.0,0.1,0.0,0.0,0.0,0.1
1446038494364349912,222,1446038494361221075,robocape,3.85819877868,10.8725613097,-15.9427269766,0.0,10.0,0.0,0.0,0.0,10.0,0.0,0.0,0.0,10.0,0.0181094954125,0.017177389031,0.00612527050718,1.0,0.0,0.0,0.0,1.0,0.0,0.0,0.0,1.0,0.0502954101563,0.250279541016,10.0518969727,0.1,0.0,0.0,0.0,0.1,0.0,0.0,0.0,0.1
1446038494398035745,223,1446038494394650936,robocape,3.87554394479,10.8829498173,-15.8987771152,0.0,10.0,0.0,0.0,0.0,10.0,0.0,0.0,0.0,10.0,0.0099868540878,0.0170442309765,0.00625842856169,1.0,0.0,0.0,0.0,1.0,0.0,0.0,0.0,1.0,0.0299377441406,0.252674560547,10.0423168945,0.1,0.0,0.0,0.0,0.1,0.0,0.0,0.0,0.1
1446038494431514828,224,1446038494428231954,robocape,3.88093862411,10.8933844007,-15.8549981657,0.0,10.0,0.0,0.0,0.0,10.0,0.0,0.0,0.0,10.0,0.00372842552611,0.0170442309765,0.00625842856169,1.0,0.0,0.0,0.0,1.0,0.0,0.0,0.0,1.0,0.0526904296875,0.203576660156,10.0578845215,0.1,0.0,0.0,0.0,0.1,0.0,0.0,0.0,0.1
1446038494465417870,225,1446038494462045907,robocape,3.89209846849,10.9030453668,-15.8115971856,0.0,10.0,0.0,0.0,0.0,10.0,0.0,0.0,0.0,10.0,0.0067910607797,0.016644756813,0.00612527050718,1.0,0.0,0.0,0.0,1.0,0.0,0.0,0.0,1.0,0.0443078613281,0.152083740234,10.0662670898,0.1,0.0,0.0,0.0,0.1,0.0,0.0,0.0,0.1
1446038494499266495,226,1446038494495819091,robocape,3.91913047822,10.9139019706,-15.768593123,0.0,10.0,0.0,0.0,0.0,10.0,0.0,0.0,0.0,10.0,0.0151800182135,0.0173105470855,0.00585895439817,1.0,0.0,0.0,0.0,1.0,0.0,0.0,0.0,1.0,0.0443078613281,0.135318603516,10.0542919922,0.1,0.0,0.0,0.0,0.1,0.0,0.0,0.0,0.1
1446038494530911245,227,1446038494527795076,robocape,3.95772727746,10.9253094207,-15.7232617627,0.0,10.0,0.0,0.0,0.0,10.0,0.0,0.0,0.0,10.0,0.0210389726116,0.017710021249,0.00705737688871,1.0,0.0,0.0,0.0,1.0,0.0,0.0,0.0,1.0,0.0455053710938,0.183218994141,10.0506994629,0.1,0.0,0.0,0.0,0.1,0.0,0.0,0.0,0.1
1446038494565376703,228,1446038494562067031,robocape,3.9927881249,10.9349884618,-15.6789404375,0.0,10.0,0.0,0.0,0.0,10.0,0.0,0.0,0.0,10.0,0.0193079179031,0.0167779148675,0.0066579027252,1.0,0.0,0.0,0.0,1.0,0.0,0.0,0.0,1.0,0.0395178222656,0.219144287109,10.0435144043,0.1,0.0,0.0,0.0,0.1,0.0,0.0,0.0,0.1
1446038494599152912,229,1446038494595860958,robocape,4.01988655563,10.9457014703,-15.6349224456,0.0,10.0,0.0,0.0,0.0,10.0,0.0,0.0,0.0,10.0,0.0151800182135,0.0173105470855,0.00652474467069,1.0,0.0,0.0,0.0,1.0,0.0,0.0,0.0,1.0,0.0598754882813,0.227526855469,10.0423168945,0.1,0.0,0.0,0.0,0.1,0.0,0.0,0.0,0.1
1446038494631121037,230,1446038494628001928,robocape,4.04262860365,10.9566666697,-15.5909980645,0.0,10.0,0.0,0.0,0.0,10.0,0.0,0.0,0.0,10.0,0.0129163312869,0.01744370514,0.00652474467069,1.0,0.0,0.0,0.0,1.0,0.0,0.0,0.0,1.0,0.0431103515625,0.208366699219,10.0435144043,0.1,0.0,0.0,0.0,0.1,0.0,0.0,0.0,0.1
1446038494664515620,231,1446038494661489963,robocape,4.07010135474,10.967854265,-15.5473633326,0.0,10.0,0.0,0.0,0.0,10.0,0.0,0.0,0.0,10.0,0.0154463343225,0.0175768631945,0.00639158661619,1.0,0.0,0.0,0.0,1.0,0.0,0.0,0.0,1.0,0.0443078613281,0.195194091797,10.0363293457,0.1,0.0,0.0,0.0,0.1,0.0,0.0,0.0,0.1
1446038494698818370,232,1446038494695525884,robocape,4.10157604362,10.978496925,-15.5038301812,0.0,10.0,0.0,0.0,0.0,10.0,0.0,0.0,0.0,10.0,0.0175768631945,0.0173105470855,0.00639158661619,1.0,0.0,0.0,0.0,1.0,0.0,0.0,0.0,1.0,0.0431103515625,0.231119384766,10.0375268555,0.1,0.0,0.0,0.0,0.1,0.0,0.0,0.0,0.1
1446038494730984329,233,1446038494728002071,robocape,4.12629844823,10.9889284694,-15.4609506101,0.0,10.0,0.0,0.0,0.0,10.0,0.0,0.0,0.0,10.0,0.0141147537774,0.017177389031,0.00612527050718,1.0,0.0,0.0,0.0,1.0,0.0,0.0,0.0,1.0,0.0658630371094,0.259859619141,10.0375268555,0.1,0.0,0.0,0.0,0.1,0.0,0.0,0.0,0.1
1446038494764707287,234,1446038494761651992,robocape,4.13621933587,10.9996106195,-15.4172187626,0.0,10.0,0.0,0.0,0.0,10.0,0.0,0.0,0.0,10.0,0.00625842856169,0.0173105470855,0.0066579027252,1.0,0.0,0.0,0.0,1.0,0.0,0.0,0.0,1.0,0.0443078613281,0.258662109375,10.0255517578,0.1,0.0,0.0,0.0,0.1,0.0,0.0,0.0,0.1
1446038494797895162,235,1446038494794895887,robocape,4.14237592868,11.010790427,-15.3733106585,0.0,10.0,0.0,0.0,0.0,10.0,0.0,0.0,0.0,10.0,0.00426105774413,0.0175768631945,0.0067910607797,1.0,0.0,0.0,0.0,1.0,0.0,0.0,0.0,1.0,0.0538879394531,0.177231445313,10.0387243652,0.1,0.0,0.0,0.0,0.1,0.0,0.0,0.0,0.1
1446038494830292829,236,1446038494827286958,robocape,4.17843940759,11.0213779866,-15.3306151298,0.0,10.0,0.0,0.0,0.0,10.0,0.0,0.0,0.0,10.0,0.0201068662301,0.0173105470855,0.00612527050718,1.0,0.0,0.0,0.0,1.0,0.0,0.0,0.0,1.0,0.0514929199219,0.0826281738281,10.024354248,0.1,0.0,0.0,0.0,0.1,0.0,0.0,0.0,0.1
1446038494863528537,237,1446038494860553026,robocape,4.25079498865,11.0315414012,-15.2885415021,0.0,10.0,0.0,0.0,0.0,10.0,0.0,0.0,0.0,10.0,0.0392816260787,0.017177389031,0.00572579634367,1.0,0.0,0.0,0.0,1.0,0.0,0.0,0.0,1.0,0.0550854492188,0.0993933105469,10.039921875,0.1,0.0,0.0,0.0,0.1,0.0,0.0,0.0,0.1
1446038494897350495,238,1446038494894385099,robocape,4.34555225839,11.0434013057,-15.24391477,0.0,10.0,0.0,0.0,0.0,10.0,0.0,0.0,0.0,10.0,0.0508663768205,0.018242653467,0.00692421883421,1.0,0.0,0.0,0.0,1.0,0.0,0.0,0.0,1.0,0.047900390625,0.243094482422,10.024354248,0.1,0.0,0.0,0.0,0.1,0.0,0.0,0.0,0.1
1446038494930168120,239,1446038494927249908,robocape,4.41565347961,11.0521819955,-15.1977354749,0.0,10.0,0.0,0.0,0.0,10.0,0.0,0.0,0.0,10.0,0.0378168874791,0.016644756813,0.00798948327024,1.0,0.0,0.0,0.0,1.0,0.0,0.0,0.0,1.0,0.0419128417969,0.483793945313,10.039921875,0.1,0.0,0.0,0.0,0.1,0.0,0.0,0.0,0.1
1446038494964913162,240,1446038494961659908,robocape,4.4426828825,11.0608121984,-15.162628194,0.0,10.0,0.0,0.0,0.0,10.0,0.0,0.0,0.0,10.0,0.016378440704,0.016112124595,0.00239684498107,1.0,0.0,0.0,0.0,1.0,0.0,0.0,0.0,1.0,0.0299377441406,0.265847167969,10.0854272461,0.1,0.0,0.0,0.0,0.1,0.0,0.0,0.0,0.1
1446038494998504079,241,1446038494995207071,robocape,4.4655913784,11.0723237875,-15.1212402065,0.0,10.0,0.0,0.0,0.0,10.0,0.0,0.0,0.0,10.0,0.0135821215594,0.0178431793035,0.00559263828917,1.0,0.0,0.0,0.0,1.0,0.0,0.0,0.0,1.0,0.0490979003906,0.269439697266,10.055489502,0.1,0.0,0.0,0.0,0.1,0.0,0.0,0.0,0.1
1446038495031362870,242,1446038495028306961,robocape,4.46862604584,11.0832781513,-15.0778340405,0.0,10.0,0.0,0.0,0.0,10.0,0.0,0.0,0.0,10.0,0.00292947719909,0.0175768631945,0.0067910607797,1.0,0.0,0.0,0.0,1.0,0.0,0.0,0.0,1.0,0.0263452148438,0.343685302734,10.0327368164,0.1,0.0,0.0,0.0,0.1,0.0,0.0,0.0,0.1
1446038495064952829,243,1446038495061909914,robocape,4.46218442738,11.0949740438,-15.0375806996,0.0,10.0,0.0,0.0,0.0,10.0,0.0,0.0,0.0,10.0,-0.00173105470855,0.0178431793035,0.00519316412565,1.0,0.0,0.0,0.0,1.0,0.0,0.0,0.0,1.0,0.0514929199219,0.28740234375,10.0495019531,0.1,0.0,0.0,0.0,0.1,0.0,0.0,0.0,0.1
1446038495098589495,244,1446038495095169067,robocape,4.44980936951,11.1056491304,-14.9967950021,0.0,10.0,0.0,0.0,0.0,10.0,0.0,0.0,0.0,10.0,-0.00492684801665,0.0173105470855,0.00559263828917,1.0,0.0,0.0,0.0,1.0,0.0,0.0,0.0,1.0,0.0395178222656,0.24908203125,10.0662670898,0.1,0.0,0.0,0.0,0.1,0.0,0.0,0.0,0.1
1446038495131206954,245,1446038495128119945,robocape,4.42898087184,11.1155857034,-14.9516529972,0.0,10.0,0.0,0.0,0.0,10.0,0.0,0.0,0.0,10.0,-0.00985369603329,0.0170442309765,0.00798948327024,1.0,0.0,0.0,0.0,1.0,0.0,0.0,0.0,1.0,0.0538879394531,0.234711914063,10.0435144043,0.1,0.0,0.0,0.0,0.1,0.0,0.0,0.0,0.1
1446038495164191037,246,1446038495161113023,robocape,4.41238364421,11.1245294455,-14.9110180426,0.0,10.0,0.0,0.0,0.0,10.0,0.0,0.0,0.0,10.0,-0.00719053494321,0.016378440704,0.00572579634367,1.0,0.0,0.0,0.0,1.0,0.0,0.0,0.0,1.0,0.0622705078125,0.1916015625,10.019564209,0.1,0.0,0.0,0.0,0.1,0.0,0.0,0.0,0.1
1446038495198050287,247,1446038495194833040,robocape,4.40912406205,11.1351342251,-14.8697315401,0.0,10.0,0.0,0.0,0.0,10.0,0.0,0.0,0.0,10.0,-0.000266316109008,0.0173105470855,0.00599211245268,1.0,0.0,0.0,0.0,1.0,0.0,0.0,0.0,1.0,0.0526904296875,0.216749267578,10.0267492676,0.1,0.0,0.0,0.0,0.1,0.0,0.0,0.0,0.1
1446038495230822579,248,1446038495227756023,robocape,4.41093486892,11.1452082626,-14.8285532994,0.0,10.0,0.0,0.0,0.0,10.0,0.0,0.0,0.0,10.0,0.00239684498107,0.0170442309765,0.00599211245268,1.0,0.0,0.0,0.0,1.0,0.0,0.0,0.0,1.0,0.0526904296875,0.235909423828,10.0483044434,0.1,0.0,0.0,0.0,0.1,0.0,0.0,0.0,0.1
1446038495264293079,249,1446038495261197090,robocape,4.41493343641,11.155971335,-14.7866247398,0.0,10.0,0.0,0.0,0.0,10.0,0.0,0.0,0.0,10.0,0.0034621094171,0.01744370514,0.00639158661619,1.0,0.0,0.0,0.0,1.0,0.0,0.0,0.0,1.0,0.047900390625,0.215551757813,10.0590820312,0.1,0.0,0.0,0.0,0.1,0.0,0.0,0.0,0.1
1446038495297103162,250,1446038495294037103,robocape,4.42469249342,11.1657093317,-14.7450962214,0.0,10.0,0.0,0.0,0.0,10.0,0.0,0.0,0.0,10.0,0.00652474467069,0.016911072922,0.00625842856169,1.0,0.0,0.0,0.0,1.0,0.0,0.0,0.0,1.0,0.047900390625,0.222736816406,10.0387243652,0.1,0.0,0.0,0.0,0.1,0.0,0.0,0.0,0.1
1446038495331739204,251,1446038495328608989,robocape,4.44062652796,11.1759547156,-14.7043309918,0.0,10.0,0.0,0.0,0.0,10.0,0.0,0.0,0.0,10.0,0.00985369603329,0.017177389031,0.00585895439817,1.0,0.0,0.0,0.0,1.0,0.0,0.0,0.0,1.0,0.0502954101563,0.213156738281,10.0363293457,0.1,0.0,0.0,0.0,0.1,0.0,0.0,0.0,0.1
1446038495363671662,252,1446038495360739946,robocape,4.45989347533,11.1870747627,-14.6620141477,0.0,10.0,0.0,0.0,0.0,10.0,0.0,0.0,0.0,10.0,0.0114515926873,0.017710021249,0.0066579027252,1.0,0.0,0.0,0.0,1.0,0.0,0.0,0.0,1.0,0.0490979003906,0.265847167969,10.0279467773,0.1,0.0,0.0,0.0,0.1,0.0,0.0,0.0,0.1
1446038495397662621,253,1446038495394578933,robocape,4.46919916399,11.1990006282,-14.6200294994,0.0,10.0,0.0,0.0,0.0,10.0,0.0,0.0,0.0,10.0,0.00625842856169,0.0181094954125,0.00652474467069,1.0,0.0,0.0,0.0,1.0,0.0,0.0,0.0,1.0,0.0395178222656,0.296982421875,10.0291442871,0.1,0.0,0.0,0.0,0.1,0.0,0.0,0.0,0.1
1446038495430208787,254,1446038495427273988,robocape,4.45742096585,11.2090249201,-14.5784536241,0.0,10.0,0.0,0.0,0.0,10.0,0.0,0.0,0.0,10.0,-0.00479368996214,0.0170442309765,0.00652474467069,1.0,0.0,0.0,0.0,1.0,0.0,0.0,0.0,1.0,0.0514929199219,0.294587402344,10.0483044434,0.1,0.0,0.0,0.0,0.1,0.0,0.0,0.0,0.1
1446038495465086746,255,1446038495461769104,robocape,4.43536380877,11.2190694248,-14.5403633245,0.0,10.0,0.0,0.0,0.0,10.0,0.0,0.0,0.0,10.0,-0.00985369603329,0.016911072922,0.00479368996214,1.0,0.0,0.0,0.0,1.0,0.0,0.0,0.0,1.0,0.028740234375,0.2682421875,10.0291442871,0.1,0.0,0.0,0.0,0.1,0.0,0.0,0.0,0.1
1446038495498450704,256,1446038495495165109,robocape,4.41431962396,11.2294750348,-14.5000357134,0.0,10.0,0.0,0.0,0.0,10.0,0.0,0.0,0.0,10.0,-0.00958737992429,0.017177389031,0.00599211245268,1.0,0.0,0.0,0.0,1.0,0.0,0.0,0.0,1.0,0.0431103515625,0.1916015625,10.0387243652,0.1,0.0,0.0,0.0,0.1,0.0,0.0,0.0,0.1
1446038495531341537,257,1446038495528111934,robocape,4.40498006487,11.2404068173,-14.4609584129,0.0,10.0,0.0,0.0,0.0,10.0,0.0,0.0,0.0,10.0,-0.0033289513626,0.01744370514,0.00532632218016,1.0,0.0,0.0,0.0,1.0,0.0,0.0,0.0,1.0,0.0455053710938,0.159268798828,10.0291442871,0.1,0.0,0.0,0.0,0.1,0.0,0.0,0.0,0.1
1446038495564516371,258,1446038495561418056,robocape,4.40945272839,11.2511519017,-14.4201104298,0.0,10.0,0.0,0.0,0.0,10.0,0.0,0.0,0.0,10.0,0.00372842552611,0.01744370514,0.00625842856169,1.0,0.0,0.0,0.0,1.0,0.0,0.0,0.0,1.0,0.0311352539063,0.185614013672,10.0123791504,0.1,0.0,0.0,0.0,0.1,0.0,0.0,0.0,0.1
1446038495599402871,259,1446038495595724105,robocape,4.41660109176,11.2616561186,-14.3798642267,0.0,10.0,0.0,0.0,0.0,10.0,0.0,0.0,0.0,10.0,0.00519316412565,0.0173105470855,0.00599211245268,1.0,0.0,0.0,0.0,1.0,0.0,0.0,0.0,1.0,0.0407153320313,0.231119384766,10.0447119141,0.1,0.0,0.0,0.0,0.1,0.0,0.0,0.0,0.1
1446038495631196412,260,1446038495628139972,robocape,4.42094468237,11.2715856553,-14.3384979218,0.0,10.0,0.0,0.0,0.0,10.0,0.0,0.0,0.0,10.0,0.00359526747161,0.0170442309765,0.0066579027252,1.0,0.0,0.0,0.0,1.0,0.0,0.0,0.0,1.0,0.0514929199219,0.233514404297,10.0423168945,0.1,0.0,0.0,0.0,0.1,0.0,0.0,0.0,0.1
1446038495663865079,261,1446038495660854101,robocape,4.42344832336,11.2810345563,-14.2975323035,0.0,10.0,0.0,0.0,0.0,10.0,0.0,0.0,0.0,10.0,0.00266316109008,0.0167779148675,0.00652474467069,1.0,0.0,0.0,0.0,1.0,0.0,0.0,0.0,1.0,0.0467028808594,0.216749267578,10.0459094238,0.1,0.0,0.0,0.0,0.1,0.0,0.0,0.0,0.1
1446038495697434246,262,1446038495694359064,robocape,4.42390949299,11.2897393387,-14.2567378717,0.0,10.0,0.0,0.0,0.0,10.0,0.0,0.0,0.0,10.0,0.00159789665405,0.016378440704,0.00652474467069,1.0,0.0,0.0,0.0,1.0,0.0,0.0,0.0,1.0,0.0490979003906,0.220341796875,10.039921875,0.1,0.0,0.0,0.0,0.1,0.0,0.0,0.0,0.1
1446038495731087037,263,1446038495728094100,robocape,4.42022760219,11.2997520896,-14.2164536416,0.0,10.0,0.0,0.0,0.0,10.0,0.0,0.0,0.0,10.0,-0.000532632218016,0.0170442309765,0.00625842856169,1.0,0.0,0.0,0.0,1.0,0.0,0.0,0.0,1.0,0.0538879394531,0.217946777344,10.0530944824,0.1,0.0,0.0,0.0,0.1,0.0,0.0,0.0,0.1
1446038495764872287,264,1446038495761670112,robocape,4.41640542416,11.3099835077,-14.1757309928,0.0,10.0,0.0,0.0,0.0,10.0,0.0,0.0,0.0,10.0,-0.00066579027252,0.017177389031,0.00652474467069,1.0,0.0,0.0,0.0,1.0,0.0,0.0,0.0,1.0,0.0371228027344,0.197589111328,10.0566870117,0.1,0.0,0.0,0.0,0.1,0.0,0.0,0.0,0.1
1446038495798194621,265,1446038495794979095,robocape,4.41922633949,11.3199906479,-14.1360979157,0.0,10.0,0.0,0.0,0.0,10.0,0.0,0.0,0.0,10.0,0.00292947719909,0.0170442309765,0.00599211245268,1.0,0.0,0.0,0.0,1.0,0.0,0.0,0.0,1.0,0.0550854492188,0.198786621094,10.0471069336,0.1,0.0,0.0,0.0,0.1,0.0,0.0,0.0,0.1
1446038495831269287,266,1446038495828192949,robocape,4.42680794399,11.3299823173,-14.0967754418,0.0,10.0,0.0,0.0,0.0,10.0,0.0,0.0,0.0,10.0,0.00545948023466,0.0170442309765,0.00585895439817,1.0,0.0,0.0,0.0,1.0,0.0,0.0,0.0,1.0,0.0490979003906,0.207169189453,10.0590820312,0.1,0.0,0.0,0.0,0.1,0.0,0.0,0.0,0.1
1446038495864975121,267,1446038495861854076,robocape,4.43235260309,11.3398964001,-14.0562780048,0.0,10.0,0.0,0.0,0.0,10.0,0.0,0.0,0.0,10.0,0.00426105774413,0.0170442309765,0.00652474467069,1.0,0.0,0.0,0.0,1.0,0.0,0.0,0.0,1.0,0.05748046875,0.232316894531,10.0411193848,0.1,0.0,0.0,0.0,0.1,0.0,0.0,0.0,0.1
1446038495898292454,268,1446038495895174980,robocape,4.43119527796,11.3504547148,-14.0176400519,0.0,10.0,0.0,0.0,0.0,10.0,0.0,0.0,0.0,10.0,0.000932106381528,0.0173105470855,0.00559263828917,1.0,0.0,0.0,0.0,1.0,0.0,0.0,0.0,1.0,0.0502954101563,0.229921875,10.0698596191,0.1,0.0,0.0,0.0,0.1,0.0,0.0,0.0,0.1
1446038495931280579,269,1446038495928169965,robocape,4.42694943252,11.3603795267,-13.9768655453,0.0,10.0,0.0,0.0,0.0,10.0,0.0,0.0,0.0,10.0,-0.000932106381528,0.0170442309765,0.0067910607797,1.0,0.0,0.0,0.0,1.0,0.0,0.0,0.0,1.0,0.0455053710938,0.197589111328,10.039921875,0.1,0.0,0.0,0.0,0.1,0.0,0.0,0.0,0.1
1446038495964936454,270,1446038495961801052,robocape,4.42666618078,11.3708960967,-13.937891652,0.0,10.0,0.0,0.0,0.0,10.0,0.0,0.0,0.0,10.0,0.00133158054504,0.0173105470855,0.00585895439817,1.0,0.0,0.0,0.0,1.0,0.0,0.0,0.0,1.0,0.0407153320313,0.17244140625,10.0626745605,0.1,0.0,0.0,0.0,0.1,0.0,0.0,0.0,0.1
1446038495998373704,271,1446038495995289087,robocape,4.43408961378,11.3810824969,-13.8984709347,0.0,10.0,0.0,0.0,0.0,10.0,0.0,0.0,0.0,10.0,0.00532632218016,0.017177389031,0.00612527050718,1.0,0.0,0.0,0.0,1.0,0.0,0.0,0.0,1.0,0.0538879394531,0.188009033203,10.0231567383,0.1,0.0,0.0,0.0,0.1,0.0,0.0,0.0,0.1
1446038496031318788,272,1446038496028197050,robocape,4.44587549492,11.3922223489,-13.8587601894,0.0,10.0,0.0,0.0,0.0,10.0,0.0,0.0,0.0,10.0,0.00759000910673,0.017710021249,0.00625842856169,1.0,0.0,0.0,0.0,1.0,0.0,0.0,0.0,1.0,0.0467028808594,0.203576660156,10.0471069336,0.1,0.0,0.0,0.0,0.1,0.0,0.0,0.0,0.1
1446038496064909204,273,1446038496061878919,robocape,4.45972224612,11.4039029869,-13.8200870778,0.0,10.0,0.0,0.0,0.0,10.0,0.0,0.0,0.0,10.0,0.00878843159726,0.017976337358,0.00572579634367,1.0,0.0,0.0,0.0,1.0,0.0,0.0,0.0,1.0,0.0490979003906,0.190404052734,10.055489502,0.1,0.0,0.0,0.0,0.1,0.0,0.0,0.0,0.1
1446038496098739121,274,1446038496095527887,robocape,4.47794851786,11.4147582076,-13.7810233528,0.0,10.0,0.0,0.0,0.0,10.0,0.0,0.0,0.0,10.0,0.0110521185238,0.0175768631945,0.00599211245268,1.0,0.0,0.0,0.0,1.0,0.0,0.0,0.0,1.0,0.0359252929688,0.173638916016,10.0638720703,0.1,0.0,0.0,0.0,0.1,0.0,0.0,0.0,0.1
1446038496132679246,275,1446038496129560947,robocape,4.50639062734,11.425756696,-13.7414404428,0.0,10.0,0.0,0.0,0.0,10.0,0.0,0.0,0.0,10.0,0.016378440704,0.017710021249,0.00625842856169,1.0,0.0,0.0,0.0,1.0,0.0,0.0,0.0,1.0,0.0514929199219,0.178428955078,10.0303417969,0.1,0.0,0.0,0.0,0.1,0.0,0.0,0.0,0.1
1446038496164432538,276,1446038496161303043,robocape,4.53994980329,11.4361672344,-13.7014331334,0.0,10.0,0.0,0.0,0.0,10.0,0.0,0.0,0.0,10.0,0.0190416017941,0.01744370514,0.00652474467069,1.0,0.0,0.0,0.0,1.0,0.0,0.0,0.0,1.0,0.0526904296875,0.208366699219,10.0255517578,0.1,0.0,0.0,0.0,0.1,0.0,0.0,0.0,0.1
1446038496198172579,277,1446038496194982051,robocape,4.56918526269,11.4466413142,-13.6625356615,0.0,10.0,0.0,0.0,0.0,10.0,0.0,0.0,0.0,10.0,0.016911072922,0.01744370514,0.00599211245268,1.0,0.0,0.0,0.0,1.0,0.0,0.0,0.0,1.0,0.0455053710938,0.213156738281,10.0411193848,0.1,0.0,0.0,0.0,0.1,0.0,0.0,0.0,0.1
1446038496231389496,278,1446038496228111028,robocape,4.59726143777,11.4572976357,-13.6229257412,0.0,10.0,0.0,0.0,0.0,10.0,0.0,0.0,0.0,10.0,0.0162452826495,0.0175768631945,0.00639158661619,1.0,0.0,0.0,0.0,1.0,0.0,0.0,0.0,1.0,0.0431103515625,0.219144287109,10.0542919922,0.1,0.0,0.0,0.0,0.1,0.0,0.0,0.0,0.1
1446038496265489621,279,1446038496261948108,robocape,4.6228019362,11.467676688,-13.5831692891,0.0,10.0,0.0,0.0,0.0,10.0,0.0,0.0,0.0,10.0,0.0149137021044,0.01744370514,0.00652474467069,1.0,0.0,0.0,0.0,1.0,0.0,0.0,0.0,1.0,0.0562829589844,0.244291992188,10.0327368164,0.1,0.0,0.0,0.0,0.1,0.0,0.0,0.0,0.1
1446038496298625371,280,1446038496294730901,robocape,4.6418108354,11.4786233277,-13.5442388199,0.0,10.0,0.0,0.0,0.0,10.0,0.0,0.0,0.0,10.0,0.0115847507418,0.017710021249,0.00612527050718,1.0,0.0,0.0,0.0,1.0,0.0,0.0,0.0,1.0,0.0562829589844,0.274229736328,10.0435144043,0.1,0.0,0.0,0.0,0.1,0.0,0.0,0.0,0.1
1446038496331201579,281,1446038496328057050,robocape,4.64313689188,11.4888667891,-13.5050506305,0.0,10.0,0.0,0.0,0.0,10.0,0.0,0.0,0.0,10.0,0.00226368692657,0.0173105470855,0.00639158661619,1.0,0.0,0.0,0.0,1.0,0.0,0.0,0.0,1.0,0.0526904296875,0.308957519531,10.0159716797,0.1,0.0,0.0,0.0,0.1,0.0,0.0,0.0,0.1
1446038496365085079,282,1446038496361779928,robocape,4.62655313967,11.4987575385,-13.4668648568,0.0,10.0,0.0,0.0,0.0,10.0,0.0,0.0,0.0,10.0,-0.00705737688871,0.0170442309765,0.00599211245268,1.0,0.0,0.0,0.0,1.0,0.0,0.0,0.0,1.0,0.0443078613281,0.252674560547,10.0315393066,0.1,0.0,0.0,0.0,0.1,0.0,0.0,0.0,0.1
1446038496398098871,283,1446038496394448041,robocape,4.60882900589,11.508125783,-13.4283154265,0.0,10.0,0.0,0.0,0.0,10.0,0.0,0.0,0.0,10.0,-0.00772316716123,0.0167779148675,0.00625842856169,1.0,0.0,0.0,0.0,1.0,0.0,0.0,0.0,1.0,0.067060546875,0.193996582031,10.0387243652,0.1,0.0,0.0,0.0,0.1,0.0,0.0,0.0,0.1
1446038496431365954,284,1446038496428253889,robocape,4.60519924821,11.51922638,-13.390372687,0.0,10.0,0.0,0.0,0.0,10.0,0.0,0.0,0.0,10.0,-0.000266316109008,0.017710021249,0.00585895439817,1.0,0.0,0.0,0.0,1.0,0.0,0.0,0.0,1.0,0.0407153320313,0.132923583984,10.0351318359,0.1,0.0,0.0,0.0,0.1,0.0,0.0,0.0,0.1
1446038496463833746,285,1446038496460602045,robocape,4.62133608267,11.5286215775,-13.3512642689,0.0,10.0,0.0,0.0,0.0,10.0,0.0,0.0,0.0,10.0,0.0099868540878,0.016911072922,0.00652474467069,1.0,0.0,0.0,0.0,1.0,0.0,0.0,0.0,1.0,0.0550854492188,0.155676269531,10.0411193848,0.1,0.0,0.0,0.0,0.1,0.0,0.0,0.0,0.1
1446038496497834704,286,1446038496494812965,robocape,4.64915351018,11.5376687698,-13.3119307415,0.0,10.0,0.0,0.0,0.0,10.0,0.0,0.0,0.0,10.0,0.016112124595,0.0167779148675,0.0066579027252,1.0,0.0,0.0,0.0,1.0,0.0,0.0,0.0,1.0,0.0443078613281,0.21076171875,10.0495019531,0.1,0.0,0.0,0.0,0.1,0.0,0.0,0.0,0.1
1446038496529842413,287,1446038496526971101,robocape,4.67277503947,11.5477555711,-13.2731049433,0.0,10.0,0.0,0.0,0.0,10.0,0.0,0.0,0.0,10.0,0.0139815957229,0.0173105470855,0.00639158661619,1.0,0.0,0.0,0.0,1.0,0.0,0.0,0.0,1.0,0.0502954101563,0.263452148438,10.0291442871,0.1,0.0,0.0,0.0,0.1,0.0,0.0,0.0,0.1
1446038496569367121,288,1446038496566366910,robocape,4.68168444518,11.5563866421,-13.2343245376,0.0,10.0,0.0,0.0,0.0,10.0,0.0,0.0,0.0,10.0,0.00625842856169,0.0165115987585,0.00652474467069,1.0,0.0,0.0,0.0,1.0,0.0,0.0,0.0,1.0,0.0431103515625,0.264649658203,10.0411193848,0.1,0.0,0.0,0.0,0.1,0.0,0.0,0.0,0.1
1446038496598489913,289,1446038496595422983,robocape,4.67573659958,11.5664006267,-13.1963551437,0.0,10.0,0.0,0.0,0.0,10.0,0.0,0.0,0.0,10.0,-0.00146473859954,0.017177389031,0.00612527050718,1.0,0.0,0.0,0.0,1.0,0.0,0.0,0.0,1.0,0.0562829589844,0.245489501953,10.0267492676,0.1,0.0,0.0,0.0,0.1,0.0,0.0,0.0,0.1
1446038496633252454,290,1446038496630007028,robocape,4.66813056746,11.5763886493,-13.1579704666,0.0,10.0,0.0,0.0,0.0,10.0,0.0,0.0,0.0,10.0,-0.00239684498107,0.017177389031,0.00639158661619,1.0,0.0,0.0,0.0,1.0,0.0,0.0,0.0,1.0,0.0431103515625,0.180823974609,10.0255517578,0.1,0.0,0.0,0.0,0.1,0.0,0.0,0.0,0.1
1446038496665110121,291,1446038496662149906,robocape,4.67265249281,11.5863242413,-13.1198547582,0.0,10.0,0.0,0.0,0.0,10.0,0.0,0.0,0.0,10.0,0.00399474163512,0.017177389031,0.00625842856169,1.0,0.0,0.0,0.0,1.0,0.0,0.0,0.0,1.0,0.0526904296875,0.148491210938,10.0471069336,0.1,0.0,0.0,0.0,0.1,0.0,0.0,0.0,0.1
1446038496701081413,292,1446038496697272062,robocape,4.68777802143,11.5974608355,-13.0818906836,0.0,10.0,0.0,0.0,0.0,10.0,0.0,0.0,0.0,10.0,0.00958737992429,0.0178431793035,0.00612527050718,1.0,0.0,0.0,0.0,1.0,0.0,0.0,0.0,1.0,0.0467028808594,0.166453857422,10.0782421875,0.1,0.0,0.0,0.0,0.1,0.0,0.0,0.0,0.1
1446038496732534371,293,1446038496729310989,robocape,4.71191109618,11.6087264312,-13.043156929,0.0,10.0,0.0,0.0,0.0,10.0,0.0,0.0,0.0,10.0,0.0142479118319,0.017976337358,0.00652474467069,1.0,0.0,0.0,0.0,1.0,0.0,0.0,0.0,1.0,0.0562829589844,0.193996582031,10.0614770508,0.1,0.0,0.0,0.0,0.1,0.0,0.0,0.0,0.1
1446038496765047163,294,1446038496761986970,robocape,4.74165863512,11.618986456,-13.0053175179,0.0,10.0,0.0,0.0,0.0,10.0,0.0,0.0,0.0,10.0,0.0173105470855,0.01744370514,0.00612527050718,1.0,0.0,0.0,0.0,1.0,0.0,0.0,0.0,1.0,0.0431103515625,0.202379150391,10.0459094238,0.1,0.0,0.0,0.0,0.1,0.0,0.0,0.0,0.1
1446038496800287996,295,1446038496796828031,robocape,4.76902323882,11.6295031802,-12.967785178,0.0,10.0,0.0,0.0,0.0,10.0,0.0,0.0,0.0,10.0,0.016112124595,0.0175768631945,0.00599211245268,1.0,0.0,0.0,0.0,1.0,0.0,0.0,0.0,1.0,0.0455053710938,0.243094482422,10.0423168945,0.1,0.0,0.0,0.0,0.1,0.0,0.0,0.0,0.1
1446038496834103746,296,1446038496830848932,robocape,4.7830010569,11.6401273543,-12.9311587606,0.0,10.0,0.0,0.0,0.0,10.0,0.0,0.0,0.0,10.0,0.00918790576077,0.0175768631945,0.00559263828917,1.0,0.0,0.0,0.0,1.0,0.0,0.0,0.0,1.0,0.0299377441406,0.263452148438,10.0339343262,0.1,0.0,0.0,0.0,0.1,0.0,0.0,0.0,0.1
1446038496869544121,297,1446038496866189002,robocape,4.78933983883,11.6500294149,-12.8947190616,0.0,10.0,0.0,0.0,0.0,10.0,0.0,0.0,0.0,10.0,0.00519316412565,0.017177389031,0.00559263828917,1.0,0.0,0.0,0.0,1.0,0.0,0.0,0.0,1.0,0.0431103515625,0.214354248047,10.0339343262,0.1,0.0,0.0,0.0,0.1,0.0,0.0,0.0,0.1
1446038496899515413,298,1446038496896512985,robocape,4.81512899472,11.6632923251,-12.8827802525,0.0,10.0,0.0,0.0,0.0,10.0,0.0,0.0,0.0,10.0,0.0181094954125,0.0181094954125,-0.00732369299772,1.0,0.0,0.0,0.0,1.0,0.0,0.0,0.0,1.0,0.0550854492188,0.00718505859375,10.0518969727,0.1,0.0,0.0,0.0,0.1,0.0,0.0,0.0,0.1
1446038496933793663,299,1446038496930610895,robocape,4.87289245494,11.682486948,-12.9503411287,0.0,10.0,0.0,0.0,0.0,10.0,0.0,0.0,0.0,10.0,0.0436758418773,0.0183758115215,-0.0490021640575,1.0,0.0,0.0,0.0,1.0,0.0,0.0,0.0,1.0,0.0335302734375,0.729283447266,10.0219592285,0.1,0.0,0.0,0.0,0.1,0.0,0.0,0.0,0.1
1446038496966317496,300,1446038496963288068,robocape,4.79016315367,11.6963804424,-12.9942502501,0.0,10.0,0.0,0.0,0.0,10.0,0.0,0.0,0.0,10.0,-0.032756881408,0.016112124595,-0.0360858327706,1.0,0.0,0.0,0.0,1.0,0.0,0.0,0.0,1.0,0.0622705078125,0.617915039063,10.0327368164,0.1,0.0,0.0,0.0,0.1,0.0,0.0,0.0,0.1
1446038496996824913,301,1446038496993865013,robocape,4.59232459654,11.7004225093,-12.9536113896,0.0,10.0,0.0,0.0,0.0,10.0,0.0,0.0,0.0,10.0,-0.102664860023,0.0137152796139,0.00865527354276,1.0,0.0,0.0,0.0,1.0,0.0,0.0,0.0,1.0,0.0526904296875,0.257464599609,10.0027990723,0.1,0.0,0.0,0.0,0.1,0.0,0.0,0.0,0.1
1446038497030236996,302,1446038497027306079,robocape,4.40857829261,11.7066085517,-12.9223224203,0.0,10.0,0.0,0.0,0.0,10.0,0.0,0.0,0.0,10.0,-0.0944090606433,0.0145142279409,0.00372842552611,1.0,0.0,0.0,0.0,1.0,0.0,0.0,0.0,1.0,0.0443078613281,-0.393980712891,10.0746496582,0.1,0.0,0.0,0.0,0.1,0.0,0.0,0.0,0.1
1446038497064029121,303,1446038497061007976,robocape,4.46686213121,11.7210550839,-12.9048563533,0.0,10.0,0.0,0.0,0.0,10.0,0.0,0.0,0.0,10.0,0.0342216200075,0.0190416017941,-0.00452737385313,1.0,0.0,0.0,0.0,1.0,0.0,0.0,0.0,1.0,0.0622705078125,-0.51732421875,10.0530944824,0.1,0.0,0.0,0.0,0.1,0.0,0.0,0.0,0.1
1446038497097576288,304,1446038497094458103,robocape,4.60011217254,11.7318132133,-12.8528939677,0.0,10.0,0.0,0.0,0.0,10.0,0.0,0.0,0.0,10.0,0.0699079786146,0.0185089695761,0.0133158054504,1.0,0.0,0.0,0.0,1.0,0.0,0.0,0.0,1.0,0.0203576660156,0.140108642578,10.0339343262,0.1,0.0,0.0,0.0,0.1,0.0,0.0,0.0,0.1
1446038497132223080,305,1446038497129216909,robocape,4.72977224268,11.7430181554,-12.8278558427,0.0,10.0,0.0,0.0,0.0,10.0,0.0,0.0,0.0,10.0,0.0711064011051,0.0178431793035,-0.00066579027252,1.0,0.0,0.0,0.0,1.0,0.0,0.0,0.0,1.0,0.0443078613281,0.621507568359,10.003996582,0.1,0.0,0.0,0.0,0.1,0.0,0.0,0.0,0.1
1446038497191529955,306,1446038497160734891,robocape,4.7683992224,11.7538473102,-12.7987647921,0.0,10.0,0.0,0.0,0.0,10.0,0.0,0.0,0.0,10.0,0.0229031853747,0.0175768631945,0.00173105470855,1.0,0.0,0.0,0.0,1.0,0.0,0.0,0.0,1.0,0.0634680175781,0.609532470703,10.060279541,0.1,0.0,0.0,0.0,0.1,0.0,0.0,0.0,0.1
1446038497216660080,307,1446038497212867975,robocape,4.69483460819,11.7628755067,-12.8047264043,0.0,10.0,0.0,0.0,0.0,10.0,0.0,0.0,0.0,10.0,-0.03222424919,0.0150468601589,-0.0159789665405,1.0,0.0,0.0,0.0,1.0,0.0,0.0,0.0,1.0,0.0467028808594,0.443078613281,10.0435144043,0.1,0.0,0.0,0.0,0.1,0.0,0.0,0.0,0.1
1446038497235431288,308,1446038497232389926,robocape,4.54559115838,11.7676375855,-12.7605175109,0.0,10.0,0.0,0.0,0.0,10.0,0.0,0.0,0.0,10.0,-0.0776311457758,0.0143810698864,0.0105194863058,1.0,0.0,0.0,0.0,1.0,0.0,0.0,0.0,1.0,0.0275427246094,0.365240478516,10.0542919922,0.1,0.0,0.0,0.0,0.1,0.0,0.0,0.0,0.1
1446038497263568080,309,1446038497260538101,robocape,4.33454306053,11.7607755963,-12.6065156928,0.0,10.0,0.0,0.0,0.0,10.0,0.0,0.0,0.0,10.0,-0.122372252089,0.0117179087963,0.0683100819605,1.0,0.0,0.0,0.0,1.0,0.0,0.0,0.0,1.0,0.0215551757813,-0.0167651367188,10.0315393066,0.1,0.0,0.0,0.0,0.1,0.0,0.0,0.0,0.1
1446038497296651871,310,1446038497293658971,robocape,4.34384423394,11.762632625,-12.4759790494,0.0,10.0,0.0,0.0,0.0,10.0,0.0,0.0,0.0,10.0,-0.00412789968962,0.0159789665405,0.0552605926191,1.0,0.0,0.0,0.0,1.0,0.0,0.0,0.0,1.0,0.0993933105469,-0.973575439453,10.0231567383,0.1,0.0,0.0,0.0,0.1,0.0,0.0,0.0,0.1
1446038497330084746,311,1446038497327109098,robocape,4.59519714447,11.7793466283,-12.433853746,0.0,10.0,0.0,0.0,0.0,10.0,0.0,0.0,0.0,10.0,0.132891738395,0.0215716048296,0.00812264132474,1.0,0.0,0.0,0.0,1.0,0.0,0.0,0.0,1.0,-0.0047900390625,0.009580078125,10.0471069336,0.1,0.0,0.0,0.0,0.1,0.0,0.0,0.0,0.1
1446038497363696288,312,1446038497360573053,robocape,4.86108787166,11.7930173936,-12.3961347917,0.0,10.0,0.0,0.0,0.0,10.0,0.0,0.0,0.0,10.0,0.141280695829,0.0199737081756,0.00585895439817,1.0,0.0,0.0,0.0,1.0,0.0,0.0,0.0,1.0,0.0802331542969,0.608334960938,10.0974023437,0.1,0.0,0.0,0.0,0.1,0.0,0.0,0.0,0.1
1446038497396839538,313,1446038497393889904,robocape,4.92967678788,11.7982684418,-12.2783434618,0.0,10.0,0.0,0.0,0.0,10.0,0.0,0.0,0.0,10.0,0.0288952978274,0.0181094954125,0.0483363737849,1.0,0.0,0.0,0.0,1.0,0.0,0.0,0.0,1.0,0.0395178222656,0.717308349609,10.055489502,0.1,0.0,0.0,0.0,0.1,0.0,0.0,0.0,0.1
1446038497430006247,314,1446038497427056074,robocape,4.95097753572,11.8101668747,-12.2634455257,0.0,10.0,0.0,0.0,0.0,10.0,0.0,0.0,0.0,10.0,0.0154463343225,0.0175768631945,-0.00506000607115,1.0,0.0,0.0,0.0,1.0,0.0,0.0,0.0,1.0,0.0598754882813,0.741258544922,10.060279541,0.1,0.0,0.0,0.0,0.1,0.0,0.0,0.0,0.1
1446038497464023205,315,1446038497460572004,robocape,4.81232762718,11.8176497452,-12.2278954979,0.0,10.0,0.0,0.0,0.0,10.0,0.0,0.0,0.0,10.0,-0.0709732430506,0.015579492377,0.00639158661619,1.0,0.0,0.0,0.0,1.0,0.0,0.0,0.0,1.0,0.0550854492188,0.475411376953,10.0483044434,0.1,0.0,0.0,0.0,0.1,0.0,0.0,0.0,0.1
1446038497497252622,316,1446038497493921995,robocape,4.7379450446,11.8333362541,-12.2922894908,0.0,10.0,0.0,0.0,0.0,10.0,0.0,0.0,0.0,10.0,-0.0262321367373,0.016378440704,-0.0459395288039,1.0,0.0,0.0,0.0,1.0,0.0,0.0,0.0,1.0,0.0562829589844,0.141306152344,10.0866247559,0.1,0.0,0.0,0.0,0.1,0.0,0.0,0.0,0.1
1446038497530149413,317,1446038497526905059,robocape,4.57494419525,11.837566693,-12.2358822991,0.0,10.0,0.0,0.0,0.0,10.0,0.0,0.0,0.0,10.0,-0.0862864193186,0.0145142279409,0.01744370514,1.0,0.0,0.0,0.0,1.0,0.0,0.0,0.0,1.0,0.0443078613281,-0.411943359375,10.0686621094,0.1,0.0,0.0,0.0,0.1,0.0,0.0,0.0,0.1
1446038497564031913,318,1446038497560641050,robocape,4.51384852374,11.8425306923,-12.1779605353,0.0,10.0,0.0,0.0,0.0,10.0,0.0,0.0,0.0,10.0,-0.033023197517,0.0151800182135,0.017976337358,1.0,0.0,0.0,0.0,1.0,0.0,0.0,0.0,1.0,0.0311352539063,-0.425115966797,10.0004040527,0.1,0.0,0.0,0.0,0.1,0.0,0.0,0.0,0.1
1446038497597170705,319,1446038497593976974,robocape,4.61611315816,11.8562972588,-12.1551840258,0.0,10.0,0.0,0.0,0.0,10.0,0.0,0.0,0.0,10.0,0.0567253312187,0.0190416017941,-0.00106526443603,1.0,0.0,0.0,0.0,1.0,0.0,0.0,0.0,1.0,0.0323327636719,-0.170046386719,10.0315393066,0.1,0.0,0.0,0.0,0.1,0.0,0.0,0.0,0.1
1446038497630395288,320,1446038497627315998,robocape,4.75303170817,11.869460527,-12.1088355965,0.0,10.0,0.0,0.0,0.0,10.0,0.0,0.0,0.0,10.0,0.0724379816502,0.0197073920666,0.0110521185238,1.0,0.0,0.0,0.0,1.0,0.0,0.0,0.0,1.0,0.0634680175781,0.147293701172,10.0459094238,0.1,0.0,0.0,0.0,0.1,0.0,0.0,0.0,0.1
1446038497663750497,321,1446038497660665988,robocape,4.85706457004,11.8829299274,-12.0911776844,0.0,10.0,0.0,0.0,0.0,10.0,0.0,0.0,0.0,10.0,0.0584563859272,0.0187752856851,-0.00372842552611,1.0,0.0,0.0,0.0,1.0,0.0,0.0,0.0,1.0,0.0299377441406,0.438288574219,10.0662670898,0.1,0.0,0.0,0.0,0.1,0.0,0.0,0.0,0.1
1446038497696846913,322,1446038497693798065,robocape,4.84008493816,11.8923779266,-12.047603566,0.0,10.0,0.0,0.0,0.0,10.0,0.0,0.0,0.0,10.0,-0.00798948327024,0.0173105470855,0.0102531701968,1.0,0.0,0.0,0.0,1.0,0.0,0.0,0.0,1.0,0.0443078613281,0.544866943359,10.055489502,0.1,0.0,0.0,0.0,0.1,0.0,0.0,0.0,0.1
1446038497730139038,323,1446038497727111101,robocape,4.68873546955,11.8925421768,-11.9286759346,0.0,10.0,0.0,0.0,0.0,10.0,0.0,0.0,0.0,10.0,-0.0870853676456,0.0147805440499,0.050200586548,1.0,0.0,0.0,0.0,1.0,0.0,0.0,0.0,1.0,0.0502954101563,-0.170046386719,10.060279541,0.1,0.0,0.0,0.0,0.1,0.0,0.0,0.0,0.1
1446038497763753830,324,1446038497760730981,robocape,4.69031433514,11.9060909274,-11.9259452118,0.0,10.0,0.0,0.0,0.0,10.0,0.0,0.0,0.0,10.0,0.00612527050718,0.017976337358,-0.0109189604693,1.0,0.0,0.0,0.0,1.0,0.0,0.0,0.0,1.0,0.0419128417969,-0.3065625,10.0339343262,0.1,0.0,0.0,0.0,0.1,0.0,0.0,0.0,0.1
1446038497797046830,325,1446038497794042110,robocape,4.83589862254,11.9308978208,-12.0521944682,0.0,10.0,0.0,0.0,0.0,10.0,0.0,0.0,0.0,10.0,0.0962732734064,0.0195742340121,-0.0786964102118,1.0,0.0,0.0,0.0,1.0,0.0,0.0,0.0,1.0,0.0251477050781,0.673000488281,10.0435144043,0.1,0.0,0.0,0.0,0.1,0.0,0.0,0.0,0.1
1446038497831625872,326,1446038497828572034,robocape,4.77227354273,11.9413348105,-12.0772862627,0.0,10.0,0.0,0.0,0.0,10.0,0.0,0.0,0.0,10.0,-0.0249005561922,0.0151800182135,-0.0251668723012,1.0,0.0,0.0,0.0,1.0,0.0,0.0,0.0,1.0,0.0203576660156,0.821491699219,10.0387243652,0.1,0.0,0.0,0.0,0.1,0.0,0.0,0.0,0.1
1446038497865099205,327,1446038497862041950,robocape,4.55102632353,11.9410017376,-12.0369313225,0.0,10.0,0.0,0.0,0.0,10.0,0.0,0.0,0.0,10.0,-0.115181717146,0.0114515926873,0.00972053797879,1.0,0.0,0.0,0.0,1.0,0.0,0.0,0.0,1.0,0.0371228027344,0.102985839844,10.0854272461,0.1,0.0,0.0,0.0,0.1,0.0,0.0,0.0,0.1
1446038497897805830,328,1446038497894566059,robocape,4.34380899529,11.9346138478,-11.8508499848,0.0,10.0,0.0,0.0,0.0,10.0,0.0,0.0,0.0,10.0,-0.124236464852,0.0131826473959,0.0854874709915,1.0,0.0,0.0,0.0,1.0,0.0,0.0,0.0,1.0,0.0778381347656,-0.875379638672,10.0315393066,0.1,0.0,0.0,0.0,0.1,0.0,0.0,0.0,0.1
1446038497931805747,329,1446038497928582906,robocape,4.47428241389,11.9492497969,-11.8404883909,0.0,10.0,0.0,0.0,0.0,10.0,0.0,0.0,0.0,10.0,0.0727042977592,0.0191747598486,-0.00719053494321,1.0,0.0,0.0,0.0,1.0,0.0,0.0,0.0,1.0,0.0993933105469,-0.312550048828,10.0483044434,0.1,0.0,0.0,0.0,0.1,0.0,0.0,0.0,0.1
1446038497964438955,330,1446038497961397886,robocape,4.80471305432,11.9778183451,-11.8955237251,0.0,10.0,0.0,0.0,0.0,10.0,0.0,0.0,0.0,10.0,0.18535601187,0.0247673981377,-0.0423442613323,1.0,0.0,0.0,0.0,1.0,0.0,0.0,0.0,1.0,-0.009580078125,-0.197589111328,10.0662670898,0.1,0.0,0.0,0.0,0.1,0.0,0.0,0.0,0.1
1446038497998835747,331,1446038497995501041,robocape,5.06134322389,11.9940697663,-11.8955961309,0.0,10.0,0.0,0.0,0.0,10.0,0.0,0.0,0.0,10.0,0.140748063611,0.0201068662301,-0.0133158054504,1.0,0.0,0.0,0.0,1.0,0.0,0.0,0.0,1.0,0.0227526855469,1.17834960938,9.9980090332,0.1,0.0,0.0,0.0,0.1,0.0,0.0,0.0,0.1
1446038498031678122,332,1446038498028737068,robocape,5.04471313334,11.9959843353,-11.799463962,0.0,10.0,0.0,0.0,0.0,10.0,0.0,0.0,0.0,10.0,-0.0135821215594,0.015579492377,0.0379500455336,1.0,0.0,0.0,0.0,1.0,0.0,0.0,0.0,1.0,0.086220703125,1.23104003906,10.0530944824,0.1,0.0,0.0,0.0,0.1,0.0,0.0,0.0,0.1
1446038498071637663,333,1446038498067986011,robocape,4.74232911586,11.9835713861,-11.5977647904,0.0,10.0,0.0,0.0,0.0,10.0,0.0,0.0,0.0,10.0,-0.175768631945,0.0110521185238,0.0942759025888,1.0,0.0,0.0,0.0,1.0,0.0,0.0,0.0,1.0,0.0886157226563,-0.496966552734,10.0866247559,0.1,0.0,0.0,0.0,0.1,0.0,0.0,0.0,0.1
1446038498099990789,334,1446038498096820116,robocape,4.73521805096,11.9883589816,-11.5170253564,0.0,10.0,0.0,0.0,0.0,10.0,0.0,0.0,0.0,10.0,-0.00719053494321,0.0162452826495,0.0302268783724,1.0,0.0,0.0,0.0,1.0,0.0,0.0,0.0,1.0,0.0203576660156,-0.76640625,10.0818347168,0.1,0.0,0.0,0.0,0.1,0.0,0.0,0.0,0.1
1446038498132830622,335,1446038498129779100,robocape,4.90988124791,12.0036167328,-11.4743329843,0.0,10.0,0.0,0.0,0.0,10.0,0.0,0.0,0.0,10.0,0.0926780059348,0.0209058145571,0.00958737992429,1.0,0.0,0.0,0.0,1.0,0.0,0.0,0.0,1.0,0.0610729980469,-0.209564208984,10.096204834,0.1,0.0,0.0,0.0,0.1,0.0,0.0,0.0,0.1
1446038498166262914,336,1446038498163249969,robocape,5.11703500815,12.0178676332,-11.4296794013,0.0,10.0,0.0,0.0,0.0,10.0,0.0,0.0,0.0,10.0,0.109722236911,0.0206394984481,0.0105194863058,1.0,0.0,0.0,0.0,1.0,0.0,0.0,0.0,1.0,0.0215551757813,0.379610595703,10.0327368164,0.1,0.0,0.0,0.0,0.1,0.0,0.0,0.0,0.1
1446038498198701289,337,1446038498195652008,robocape,5.23654831056,12.0249485979,-11.3730539557,0.0,10.0,0.0,0.0,0.0,10.0,0.0,0.0,0.0,10.0,0.0624511275624,0.017177389031,0.0173105470855,1.0,0.0,0.0,0.0,1.0,0.0,0.0,0.0,1.0,0.0431103515625,0.888552246094,10.0063916016,0.1,0.0,0.0,0.0,0.1,0.0,0.0,0.0,0.1
1446038498234137372,338,1446038498231092929,robocape,5.16301667231,12.0281302408,-11.2785925315,0.0,10.0,0.0,0.0,0.0,10.0,0.0,0.0,0.0,10.0,-0.0432763677138,0.016112124595,0.0376837294246,1.0,0.0,0.0,0.0,1.0,0.0,0.0,0.0,1.0,0.0562829589844,0.616717529297,10.0387243652,0.1,0.0,0.0,0.0,0.1,0.0,0.0,0.0,0.1
1446038498267836830,339,1446038498262497901,robocape,5.08683447626,12.0361827762,-11.2493527837,0.0,10.0,0.0,0.0,0.0,10.0,0.0,0.0,0.0,10.0,-0.0374174133156,0.0159789665405,0.00386158358061,1.0,0.0,0.0,0.0,1.0,0.0,0.0,0.0,1.0,0.0706530761719,0.0694555664063,10.0339343262,0.1,0.0,0.0,0.0,0.1,0.0,0.0,0.0,0.1
1446038498300939247,340,1446038498297835111,robocape,5.08225529913,12.0503962881,-11.2800007178,0.0,10.0,0.0,0.0,0.0,10.0,0.0,0.0,0.0,10.0,0.00692421883421,0.0170442309765,-0.0275637172823,1.0,0.0,0.0,0.0,1.0,0.0,0.0,0.0,1.0,0.0395178222656,0.655037841797,10.0638720703,0.1,0.0,0.0,0.0,0.1,0.0,0.0,0.0,0.1
1446038498333471080,341,1446038498330403089,robocape,5.05837975769,12.0597175101,-11.2683959219,0.0,10.0,0.0,0.0,0.0,10.0,0.0,0.0,0.0,10.0,-0.00798948327024,0.016112124595,-0.00545948023466,1.0,0.0,0.0,0.0,1.0,0.0,0.0,0.0,1.0,0.0910107421875,0.0502954101563,10.0542919922,0.1,0.0,0.0,0.0,0.1,0.0,0.0,0.0,0.1
1446038498367623455,342,1446038498364090919,robocape,5.06922036934,12.067275828,-11.1859050205,0.0,10.0,0.0,0.0,0.0,10.0,0.0,0.0,0.0,10.0,0.00226368692657,0.0181094954125,0.0311589847539,1.0,0.0,0.0,0.0,1.0,0.0,0.0,0.0,1.0,0.0694555664063,-0.263452148438,10.0818347168,0.1,0.0,0.0,0.0,0.1,0.0,0.0,0.0,0.1
1446038498400395039,343,1446038498396212100,robocape,5.1553626297,12.0800465246,-11.1583009803,0.0,10.0,0.0,0.0,0.0,10.0,0.0,0.0,0.0,10.0,0.0480700576759,0.0189084437396,0.00239684498107,1.0,0.0,0.0,0.0,1.0,0.0,0.0,0.0,1.0,0.028740234375,0.397573242188,10.0471069336,0.1,0.0,0.0,0.0,0.1,0.0,0.0,0.0,0.1
1446038498433254705,344,1446038498429944992,robocape,5.21912552908,12.09466464,-11.1504856604,0.0,10.0,0.0,0.0,0.0,10.0,0.0,0.0,0.0,10.0,0.0386158358061,0.0190416017941,-0.00785632521573,1.0,0.0,0.0,0.0,1.0,0.0,0.0,0.0,1.0,0.0658630371094,0.129331054688,10.0542919922,0.1,0.0,0.0,0.0,0.1,0.0,0.0,0.0,0.1
1446038498468245497,345,1446038498464818954,robocape,5.20822910023,12.103469295,-11.1245952939,0.0,10.0,0.0,0.0,0.0,10.0,0.0,0.0,0.0,10.0,-0.00266316109008,0.0165115987585,0.00199737081756,1.0,0.0,0.0,0.0,1.0,0.0,0.0,0.0,1.0,0.009580078125,0.82388671875,10.0303417969,0.1,0.0,0.0,0.0,0.1,0.0,0.0,0.0,0.1
1446038498500816914,346,1446038498497509002,robocape,5.15779545489,12.1123840206,-11.1167812933,0.0,10.0,0.0,0.0,0.0,10.0,0.0,0.0,0.0,10.0,-0.0214384467751,0.0157126504315,-0.00719053494321,1.0,0.0,0.0,0.0,1.0,0.0,0.0,0.0,1.0,0.101788330078,0.355660400391,10.0506994629,0.1,0.0,0.0,0.0,0.1,0.0,0.0,0.0,0.1
1446038498533875080,347,1446038498530730962,robocape,5.18921157113,12.1352169479,-11.2203202177,0.0,10.0,0.0,0.0,0.0,10.0,0.0,0.0,0.0,10.0,0.0342216200075,0.0187752856851,-0.0656469208705,1.0,0.0,0.0,0.0,1.0,0.0,0.0,0.0,1.0,0.0502954101563,0.0371228027344,10.0495019531,0.1,0.0,0.0,0.0,0.1,0.0,0.0,0.0,0.1
1446038498567099914,348,1446038498564059019,robocape,5.12457222242,12.139271486,-11.182184831,0.0,10.0,0.0,0.0,0.0,10.0,0.0,0.0,0.0,10.0,-0.0323574072445,0.0143810698864,0.00865527354276,1.0,0.0,0.0,0.0,1.0,0.0,0.0,0.0,1.0,0.009580078125,0.870589599609,10.0111816406,0.1,0.0,0.0,0.0,0.1,0.0,0.0,0.0,0.1
1446038498601441580,349,1446038498598412990,robocape,4.98809704858,12.143768167,-11.153813811,0.0,10.0,0.0,0.0,0.0,10.0,0.0,0.0,0.0,10.0,-0.0691090302876,0.0139815957229,0.00386158358061,1.0,0.0,0.0,0.0,1.0,0.0,0.0,0.0,1.0,0.0586779785156,-0.00598754882813,10.0566870117,0.1,0.0,0.0,0.0,0.1,0.0,0.0,0.0,0.1
1446038498633781997,350,1446038498630786895,robocape,4.96469367249,12.1524660136,-11.1221703408,0.0,10.0,0.0,0.0,0.0,10.0,0.0,0.0,0.0,10.0,-0.0101200121423,0.016644756813,0.00506000607115,1.0,0.0,0.0,0.0,1.0,0.0,0.0,0.0,1.0,0.0131726074219,-0.258662109375,10.0530944824,0.1,0.0,0.0,0.0,0.1,0.0,0.0,0.0,0.1
1446038498667447164,351,1446038498664177894,robocape,4.95691629166,12.1532532426,-10.9772886661,0.0,10.0,0.0,0.0,0.0,10.0,0.0,0.0,0.0,10.0,-0.0147805440499,0.016911072922,0.0639158661619,1.0,0.0,0.0,0.0,1.0,0.0,0.0,0.0,1.0,0.0395178222656,-0.168848876953,10.0590820312,0.1,0.0,0.0,0.0,0.1,0.0,0.0,0.0,0.1
1446038498699686622,352,1446038498696718931,robocape,5.16838977418,12.1678389281,-10.9273560506,0.0,10.0,0.0,0.0,0.0,10.0,0.0,0.0,0.0,10.0,0.111320133565,0.0211721306661,0.0137152796139,1.0,0.0,0.0,0.0,1.0,0.0,0.0,0.0,1.0,0.047900390625,-0.225131835938,10.0459094238,0.1,0.0,0.0,0.0,0.1,0.0,0.0,0.0,0.1
1446038498733561914,353,1446038498730586051,robocape,5.41834201095,12.1889921841,-10.9502372572,0.0,10.0,0.0,0.0,0.0,10.0,0.0,0.0,0.0,10.0,0.140082273338,0.0218379209386,-0.0243679239742,1.0,0.0,0.0,0.0,1.0,0.0,0.0,0.0,1.0,0.0371228027344,0.185614013672,10.0626745605,0.1,0.0,0.0,0.0,0.1,0.0,0.0,0.0,0.1
1446038498766627622,354,1446038498763348102,robocape,5.56799901992,12.2017668705,-10.9596156522,0.0,10.0,0.0,0.0,0.0,10.0,0.0,0.0,0.0,10.0,0.0860201032096,0.017710021249,-0.0167779148675,1.0,0.0,0.0,0.0,1.0,0.0,0.0,0.0,1.0,0.0239501953125,1.24421264648,9.99202148437,0.1,0.0,0.0,0.0,0.1,0.0,0.0,0.0,0.1
1446038498799359164,355,1446038498796302080,robocape,5.41012797762,12.2108952194,-10.9368031389,0.0,10.0,0.0,0.0,0.0,10.0,0.0,0.0,0.0,10.0,-0.0793622004844,0.0162452826495,0.000932106381528,1.0,0.0,0.0,0.0,1.0,0.0,0.0,0.0,1.0,0.100590820313,0.76640625,10.039921875,0.1,0.0,0.0,0.0,0.1,0.0,0.0,0.0,0.1
1446038498833010747,356,1446038498830043077,robocape,5.14490684414,12.2116634369,-10.9016813611,0.0,10.0,0.0,0.0,0.0,10.0,0.0,0.0,0.0,10.0,-0.137419112248,0.0119842249054,0.00812264132474,1.0,0.0,0.0,0.0,1.0,0.0,0.0,0.0,1.0,0.00119750976563,0.494571533203,10.0135766602,0.1,0.0,0.0,0.0,0.1,0.0,0.0,0.0,0.1
1446038498865803872,357,1446038498862412929,robocape,4.89357394491,12.2058336525,-10.8115101,0.0,10.0,0.0,0.0,0.0,10.0,0.0,0.0,0.0,10.0,-0.136620163921,0.0106526443603,0.0368847810976,1.0,0.0,0.0,0.0,1.0,0.0,0.0,0.0,1.0,0.0550854492188,-0.124541015625,10.0279467773,0.1,0.0,0.0,0.0,0.1,0.0,0.0,0.0,0.1
1446038498899787539,358,1446038498896544933,robocape,4.8630036104,12.2137590164,-10.7476828074,0.0,10.0,0.0,0.0,0.0,10.0,0.0,0.0,0.0,10.0,-0.017710021249,0.01744370514,0.0221042370477,1.0,0.0,0.0,0.0,1.0,0.0,0.0,0.0,1.0,0.0790356445313,-1.05021606445,10.0267492676,0.1,0.0,0.0,0.0,0.1,0.0,0.0,0.0,0.1
1446038498932643622,359,1446038498929672956,robocape,5.06433035851,12.2284098447,-10.6805363244,0.0,10.0,0.0,0.0,0.0,10.0,0.0,0.0,0.0,10.0,0.103863282513,0.0218379209386,0.0229031853747,1.0,0.0,0.0,0.0,1.0,0.0,0.0,0.0,1.0,0.0886157226563,-0.841849365234,10.0542919922,0.1,0.0,0.0,0.0,0.1,0.0,0.0,0.0,0.1
1446038498965128289,360,1446038498961344957,robocape,5.39957433721,12.2466965582,-10.693050792,0.0,10.0,0.0,0.0,0.0,10.0,0.0,0.0,0.0,10.0,0.183624957161,0.0210389726116,-0.0187752856851,1.0,0.0,0.0,0.0,1.0,0.0,0.0,0.0,1.0,-0.028740234375,0.767603759766,9.99441650391,0.1,0.0,0.0,0.0,0.1,0.0,0.0,0.0,0.1
1446038498997330372,361,1446038498994128942,robocape,5.55885039028,12.2459241868,-10.5367198239,0.0,10.0,0.0,0.0,0.0,10.0,0.0,0.0,0.0,10.0,0.0720385074866,0.0178431793035,0.0696416625056,1.0,0.0,0.0,0.0,1.0,0.0,0.0,0.0,1.0,0.0562829589844,1.03584594727,10.0782421875,0.1,0.0,0.0,0.0,0.1,0.0,0.0,0.0,0.1
1446038499031038497,362,1446038499027970075,robocape,5.54410269124,12.2423823994,-10.3883654476,0.0,10.0,0.0,0.0,0.0,10.0,0.0,0.0,0.0,10.0,-0.0185089695761,0.015579492377,0.066312711143,1.0,0.0,0.0,0.0,1.0,0.0,0.0,0.0,1.0,0.0431103515625,0.396375732422,10.1105749512,0.1,0.0,0.0,0.0,0.1,0.0,0.0,0.0,0.1
1446038499064229081,363,1446038499060762882,robocape,5.58195576983,12.2509228263,-10.3392617033,0.0,10.0,0.0,0.0,0.0,10.0,0.0,0.0,0.0,10.0,0.0205063403936,0.017710021249,0.0145142279409,1.0,0.0,0.0,0.0,1.0,0.0,0.0,0.0,1.0,0.0502954101563,0.130528564453,10.0926123047,0.1,0.0,0.0,0.0,0.1,0.0,0.0,0.0,0.1
1446038499097307789,364,1446038499094147920,robocape,5.68570273679,12.2722869089,-10.4042745408,0.0,10.0,0.0,0.0,0.0,10.0,0.0,0.0,0.0,10.0,0.0683100819605,0.0195742340121,-0.0451405804768,1.0,0.0,0.0,0.0,1.0,0.0,0.0,0.0,1.0,0.047900390625,0.241896972656,10.1081799316,0.1,0.0,0.0,0.0,0.1,0.0,0.0,0.0,0.1
1446038499130447372,365,1446038499127429008,robocape,5.59327434074,12.2818444899,-10.4213728802,0.0,10.0,0.0,0.0,0.0,10.0,0.0,0.0,0.0,10.0,-0.0403468905147,0.0149137021044,-0.0193079179031,1.0,0.0,0.0,0.0,1.0,0.0,0.0,0.0,1.0,-0.0047900390625,1.19032470703,9.98363891602,0.1,0.0,0.0,0.0,0.1,0.0,0.0,0.0,0.1
1446038499164257164,366,1446038499160767078,robocape,5.38389878535,12.2848133486,-10.4000534084,0.0,10.0,0.0,0.0,0.0,10.0,0.0,0.0,0.0,10.0,-0.106393285549,0.0127831732324,0.00119842249054,1.0,0.0,0.0,0.0,1.0,0.0,0.0,0.0,1.0,0.0802331542969,0.373623046875,10.0411193848,0.1,0.0,0.0,0.0,0.1,0.0,0.0,0.0,0.1
1446038499197025122,367,1446038499194003105,robocape,5.2140735718,12.2862414202,-10.3428414507,0.0,10.0,0.0,0.0,0.0,10.0,0.0,0.0,0.0,10.0,-0.0898816867902,0.0135821215594,0.0197073920666,1.0,0.0,0.0,0.0,1.0,0.0,0.0,0.0,1.0,0.0682580566406,-0.723295898438,10.0770446777,0.1,0.0,0.0,0.0,0.1,0.0,0.0,0.0,0.1
1446038499230542747,368,1446038499227555990,robocape,5.3106042286,12.2965292175,-10.292220208,0.0,10.0,0.0,0.0,0.0,10.0,0.0,0.0,0.0,10.0,0.0508663768205,0.0187752856851,0.0151800182135,1.0,0.0,0.0,0.0,1.0,0.0,0.0,0.0,1.0,0.0347277832031,-0.371228027344,10.0530944824,0.1,0.0,0.0,0.0,0.1,0.0,0.0,0.0,0.1
1446038499264192372,369,1446038499260777950,robocape,5.48982573672,12.307226784,-10.2201804286,0.0,10.0,0.0,0.0,0.0,10.0,0.0,0.0,0.0,10.0,0.0920122156622,0.0202400242846,0.0259658206283,1.0,0.0,0.0,0.0,1.0,0.0,0.0,0.0,1.0,0.0311352539063,-0.0347277832031,10.0734521484,0.1,0.0,0.0,0.0,0.1,0.0,0.0,0.0,0.1
1446038499296940706,370,1446038499293951988,robocape,5.65216318001,12.3156131787,-10.1464143755,0.0,10.0,0.0,0.0,0.0,10.0,0.0,0.0,0.0,10.0,0.0830906260105,0.0191747598486,0.0270310850643,1.0,0.0,0.0,0.0,1.0,0.0,0.0,0.0,1.0,0.0431103515625,0.428708496094,10.0674645996,0.1,0.0,0.0,0.0,0.1,0.0,0.0,0.0,0.1
1446038499330584206,371,1446038499327382087,robocape,5.74495684683,12.3250997987,-10.1117644262,0.0,10.0,0.0,0.0,0.0,10.0,0.0,0.0,0.0,10.0,0.0511326929295,0.0178431793035,0.00705737688871,1.0,0.0,0.0,0.0,1.0,0.0,0.0,0.0,1.0,0.0263452148438,0.676593017578,10.0387243652,0.1,0.0,0.0,0.0,0.1,0.0,0.0,0.0,0.1
1446038499363736581,372,1446038499360586881,robocape,5.72697581484,12.3349532548,-10.1144743694,0.0,10.0,0.0,0.0,0.0,10.0,0.0,0.0,0.0,10.0,-0.00279631914458,0.0159789665405,-0.0118510668509,1.0,0.0,0.0,0.0,1.0,0.0,0.0,0.0,1.0,0.0706530761719,1.09572143555,10.0327368164,0.1,0.0,0.0,0.0,0.1,0.0,0.0,0.0,0.1
1446038499396904331,373,1446038499393979072,robocape,5.57379714514,12.3427626078,-10.1016311627,0.0,10.0,0.0,0.0,0.0,10.0,0.0,0.0,0.0,10.0,-0.0757669330128,0.0151800182135,-0.0033289513626,1.0,0.0,0.0,0.0,1.0,0.0,0.0,0.0,1.0,0.0850231933594,0.386795654297,10.0818347168,0.1,0.0,0.0,0.0,0.1,0.0,0.0,0.0,0.1
1446038499430185372,374,1446038499427248954,robocape,5.40587478368,12.3488875995,-10.0764592782,0.0,10.0,0.0,0.0,0.0,10.0,0.0,0.0,0.0,10.0,-0.085087996828,0.0147805440499,0.0031957933081,1.0,0.0,0.0,0.0,1.0,0.0,0.0,0.0,1.0,0.0538879394531,-0.173638916016,10.1069824219,0.1,0.0,0.0,0.0,0.1,0.0,0.0,0.0,0.1
1446038499463796539,375,1446038499460623025,robocape,5.39494812962,12.3574209452,-10.0394163659,0.0,10.0,0.0,0.0,0.0,10.0,0.0,0.0,0.0,10.0,-0.00399474163512,0.0170442309765,0.00878843159726,1.0,0.0,0.0,0.0,1.0,0.0,0.0,0.0,1.0,0.0419128417969,-0.441881103516,10.0650695801,0.1,0.0,0.0,0.0,0.1,0.0,0.0,0.0,0.1
1446038499496734789,376,1446038499493804931,robocape,5.56537161627,12.3774366713,-10.0418820777,0.0,10.0,0.0,0.0,0.0,10.0,0.0,0.0,0.0,10.0,0.0960069572974,0.0219710789932,-0.0126500151779,1.0,0.0,0.0,0.0,1.0,0.0,0.0,0.0,1.0,0.0502954101563,-0.560434570312,10.0483044434,0.1,0.0,0.0,0.0,0.1,0.0,0.0,0.0,0.1
1446038499531691498,377,1446038499528760910,robocape,5.81717889838,12.4032545764,-10.1673073234,0.0,10.0,0.0,0.0,0.0,10.0,0.0,0.0,0.0,10.0,0.153264920734,0.0197073920666,-0.0765658813398,1.0,0.0,0.0,0.0,1.0,0.0,0.0,0.0,1.0,0.01916015625,1.10649902344,10.0303417969,0.1,0.0,0.0,0.0,0.1,0.0,0.0,0.0,0.1
1446038499563442414,378,1446038499560353040,robocape,5.76277864556,12.4175525862,-10.177040181,0.0,10.0,0.0,0.0,0.0,10.0,0.0,0.0,0.0,10.0,-0.0210389726116,0.017976337358,-0.0157126504315,1.0,0.0,0.0,0.0,1.0,0.0,0.0,0.0,1.0,0.0562829589844,0.923280029297,10.0387243652,0.1,0.0,0.0,0.0,0.1,0.0,0.0,0.0,0.1
1446038499597198414,379,1446038499594125986,robocape,5.57980387944,12.4285567638,-10.2013668766,0.0,10.0,0.0,0.0,0.0,10.0,0.0,0.0,0.0,10.0,-0.0870853676456,0.0151800182135,-0.0226368692657,1.0,0.0,0.0,0.0,1.0,0.0,0.0,0.0,1.0,0.0263452148438,0.542471923828,10.0566870117,0.1,0.0,0.0,0.0,0.1,0.0,0.0,0.0,0.1
1446038499630453414,380,1446038499627449035,robocape,5.30129427762,12.4292197904,-10.1681086086,0.0,10.0,0.0,0.0,0.0,10.0,0.0,0.0,0.0,10.0,-0.144210173028,0.0119842249054,0.00785632521573,1.0,0.0,0.0,0.0,1.0,0.0,0.0,0.0,1.0,0.0203576660156,-0.21076171875,10.055489502,0.1,0.0,0.0,0.0,0.1,0.0,0.0,0.0,0.1
1446038499664340873,381,1446038499661330938,robocape,5.20512861162,12.4362064687,-10.1351382842,0.0,10.0,0.0,0.0,0.0,10.0,0.0,0.0,0.0,10.0,-0.0484695318394,0.015845808486,0.00692421883421,1.0,0.0,0.0,0.0,1.0,0.0,0.0,0.0,1.0,0.0658630371094,-0.536484375,10.0339343262,0.1,0.0,0.0,0.0,0.1,0.0,0.0,0.0,0.1
1446038499696768456,382,1446038499693749904,robocape,5.2451601821,12.4407295382,-10.0453978816,0.0,10.0,0.0,0.0,0.0,10.0,0.0,0.0,0.0,10.0,0.0165115987585,0.0173105470855,0.0359526747161,1.0,0.0,0.0,0.0,1.0,0.0,0.0,0.0,1.0,0.01916015625,-0.581989746094,10.0459094238,0.1,0.0,0.0,0.0,0.1,0.0,0.0,0.0,0.1
1446038499730395831,383,1446038499727368116,robocape,5.48431172805,12.4563509496,-10.0255203639,0.0,10.0,0.0,0.0,0.0,10.0,0.0,0.0,0.0,10.0,0.129429628978,0.0209058145571,-0.00106526443603,1.0,0.0,0.0,0.0,1.0,0.0,0.0,0.0,1.0,0.0119750976563,0.188009033203,10.0327368164,0.1,0.0,0.0,0.0,0.1,0.0,0.0,0.0,0.1
1446038499763523039,384,1446038499760339975,robocape,5.73365967684,12.4747571451,-10.0144186182,0.0,10.0,0.0,0.0,0.0,10.0,0.0,0.0,0.0,10.0,0.136087531703,0.0221042370477,-0.00585895439817,1.0,0.0,0.0,0.0,1.0,0.0,0.0,0.0,1.0,0.0419128417969,0.550854492188,10.1057849121,0.1,0.0,0.0,0.0,0.1,0.0,0.0,0.0,0.1
1446038499796950623,385,1446038499793742895,robocape,5.81831894372,12.479585913,-9.93047801746,0.0,10.0,0.0,0.0,0.0,10.0,0.0,0.0,0.0,10.0,0.0411458388417,0.0178431793035,0.032756881408,1.0,0.0,0.0,0.0,1.0,0.0,0.0,0.0,1.0,0.0431103515625,1.03225341797,10.0710571289,0.1,0.0,0.0,0.0,0.1,0.0,0.0,0.0,0.1
1446038499832661123,386,1446038499829637050,robocape,5.67981342492,12.472625616,-9.76738978707,0.0,10.0,0.0,0.0,0.0,10.0,0.0,0.0,0.0,10.0,-0.0854874709915,0.0145142279409,0.0748348266312,1.0,0.0,0.0,0.0,1.0,0.0,0.0,0.0,1.0,0.0730480957031,-0.0586779785156,10.0722546387,0.1,0.0,0.0,0.0,0.1,0.0,0.0,0.0,0.1
1446038499863907081,387,1446038499860429048,robocape,5.67850995307,12.4819841456,-9.72749033316,0.0,10.0,0.0,0.0,0.0,10.0,0.0,0.0,0.0,10.0,0.000932106381528,0.0178431793035,0.0103863282513,1.0,0.0,0.0,0.0,1.0,0.0,0.0,0.0,1.0,0.00838256835938,0.165256347656,10.039921875,0.1,0.0,0.0,0.0,0.1,0.0,0.0,0.0,0.1
1446038499897642039,388,1446038499894491910,robocape,5.8195468069,12.5084401583,-9.83290406674,0.0,10.0,0.0,0.0,0.0,10.0,0.0,0.0,0.0,10.0,0.0928111639893,0.0206394984481,-0.0656469208705,1.0,0.0,0.0,0.0,1.0,0.0,0.0,0.0,1.0,0.0419128417969,0.590372314453,10.0566870117,0.1,0.0,0.0,0.0,0.1,0.0,0.0,0.0,0.1
1446038499930537914,389,1446038499927438974,robocape,5.74328442357,12.5141080648,-9.77624776949,0.0,10.0,0.0,0.0,0.0,10.0,0.0,0.0,0.0,10.0,-0.0403468905147,0.0165115987585,0.0193079179031,1.0,0.0,0.0,0.0,1.0,0.0,0.0,0.0,1.0,0.0526904296875,0.0155676269531,10.0974023437,0.1,0.0,0.0,0.0,0.1,0.0,0.0,0.0,0.1
1446038499963878164,390,1446038499960623979,robocape,5.66934304556,12.5196992806,-9.73839333687,0.0,10.0,0.0,0.0,0.0,10.0,0.0,0.0,0.0,10.0,-0.0370179391521,0.015579492377,0.00972053797879,1.0,0.0,0.0,0.0,1.0,0.0,0.0,0.0,1.0,0.0658630371094,0.0502954101563,10.0411193848,0.1,0.0,0.0,0.0,0.1,0.0,0.0,0.0,0.1
