%time,field.header.seq,field.header.stamp,field.header.frame_id,field.orientation.x,field.orientation.y,field.orientation.z,field.orientation.w,field.orientation_covariance0,field.orientation_covariance1,field.orientation_covariance2,field.orientation_covariance3,field.orientation_covariance4,field.orientation_covariance5,field.orientation_covariance6,field.orientation_covariance7,field.orientation_covariance8,field.angular_velocity.x,field.angular_velocity.y,field.angular_velocity.z,field.angular_velocity_covariance0,field.angular_velocity_covariance1,field.angular_velocity_covariance2,field.angular_velocity_covariance3,field.angular_velocity_covariance4,field.angular_velocity_covariance5,field.angular_velocity_covariance6,field.angular_velocity_covariance7,field.angular_velocity_covariance8,field.linear_acceleration.x,field.linear_acceleration.y,field.linear_acceleration.z,field.linear_acceleration_covariance0,field.linear_acceleration_covariance1,field.linear_acceleration_covariance2,field.linear_acceleration_covariance3,field.linear_acceleration_covariance4,field.linear_acceleration_covariance5,field.linear_acceleration_covariance6,field.linear_acceleration_covariance7,field.linear_acceleration_covariance8
1452010245842453498,1,1452010245831348896,robocape,-0.724125541433,11.7783500648,17.1231612305,0.0,10.0,0.0,0.0,0.0,10.0,0.0,0.0,0.0,10.0,0.00253000303558,0.0114515926873,0.00359526747161,1.0,0.0,0.0,0.0,1.0,0.0,0.0,0.0,1.0,-0.0682580566406,0.076640625,10.1261425781,0.1,0.0,0.0,0.0,0.1,0.0,0.0,0.0,0.1
1452010245862324748,2,1452010245856240034,robocape,-0.722263103532,11.7762999275,17.0965127758,0.0,10.0,0.0,0.0,0.0,10.0,0.0,0.0,0.0,10.0,0.00133158054504,0.0107858024148,0.00359526747161,1.0,0.0,0.0,0.0,1.0,0.0,0.0,0.0,1.0,-0.0718505859375,0.0610729980469,10.1345251465,0.1,0.0,0.0,0.0,0.1,0.0,0.0,0.0,0.1
1452010245889255414,3,1452010245885973930,robocape,-0.721878665005,11.7747697245,17.06890477,0.0,10.0,0.0,0.0,0.0,10.0,0.0,0.0,0.0,10.0,0.00066579027252,0.0110521185238,0.00306263525359,1.0,0.0,0.0,0.0,1.0,0.0,0.0,0.0,1.0,-0.05748046875,0.0371228027344,10.1656604004,0.1,0.0,0.0,0.0,0.1,0.0,0.0,0.0,0.1
1452010245931035498,4,1452010245920377969,robocape,-0.717875835436,11.7742653499,17.0428755714,0.0,10.0,0.0,0.0,0.0,10.0,0.0,0.0,0.0,10.0,0.00239684498107,0.0115847507418,0.00386158358061,1.0,0.0,0.0,0.0,1.0,0.0,0.0,0.0,1.0,-0.0598754882813,0.0407153320313,10.1632653809,0.1,0.0,0.0,0.0,0.1,0.0,0.0,0.0,0.1
1452010245955013123,5,1452010245952049970,robocape,-0.710780506841,11.775289482,17.0171384869,0.0,10.0,0.0,0.0,0.0,10.0,0.0,0.0,0.0,10.0,0.00399474163512,0.0123836990689,0.00399474163512,1.0,0.0,0.0,0.0,1.0,0.0,0.0,0.0,1.0,-0.0634680175781,0.0431103515625,10.1357226563,0.1,0.0,0.0,0.0,0.1,0.0,0.0,0.0,0.1
1452010245988826623,6,1452010245985835075,robocape,-0.703384749947,11.7760739968,16.9917333519,0.0,10.0,0.0,0.0,0.0,10.0,0.0,0.0,0.0,10.0,0.00412789968962,0.0122505410144,0.00412789968962,1.0,0.0,0.0,0.0,1.0,0.0,0.0,0.0,1.0,-0.0730480957031,0.0538879394531,10.1381176758,0.1,0.0,0.0,0.0,0.1,0.0,0.0,0.0,0.1
1452010246021402539,7,1452010246018440961,robocape,-0.697570501879,11.7763652613,16.9661533853,0.0,10.0,0.0,0.0,0.0,10.0,0.0,0.0,0.0,10.0,0.0033289513626,0.0119842249054,0.00399474163512,1.0,0.0,0.0,0.0,1.0,0.0,0.0,0.0,1.0,-0.0814306640625,0.0646655273438,10.1405126953,0.1,0.0,0.0,0.0,0.1,0.0,0.0,0.0,0.1
1452010246054958164,8,1452010246052068948,robocape,-0.693736406836,11.7759102938,16.940911428,0.0,10.0,0.0,0.0,0.0,10.0,0.0,0.0,0.0,10.0,0.00226368692657,0.0115847507418,0.00412789968962,1.0,0.0,0.0,0.0,1.0,0.0,0.0,0.0,1.0,-0.0682580566406,0.0694555664063,10.136920166,0.1,0.0,0.0,0.0,0.1,0.0,0.0,0.0,0.1
1452010246088873206,9,1452010246085685014,robocape,-0.69174173803,11.7754701713,16.9142110889,0.0,10.0,0.0,0.0,0.0,10.0,0.0,0.0,0.0,10.0,0.00146473859954,0.0115847507418,0.0033289513626,1.0,0.0,0.0,0.0,1.0,0.0,0.0,0.0,1.0,-0.0526904296875,0.0514929199219,10.1560803223,0.1,0.0,0.0,0.0,0.1,0.0,0.0,0.0,0.1
1452010246121533539,10,1452010246118550062,robocape,-0.687861785207,11.7750470622,16.8880955755,0.0,10.0,0.0,0.0,0.0,10.0,0.0,0.0,0.0,10.0,0.00239684498107,0.0115847507418,0.00359526747161,1.0,0.0,0.0,0.0,1.0,0.0,0.0,0.0,1.0,-0.0526904296875,0.0251477050781,10.1536853027,0.1,0.0,0.0,0.0,0.1,0.0,0.0,0.0,0.1
1452010246154902748,11,1452010246151880979,robocape,-0.681647776056,11.7753965586,16.8622909393,0.0,10.0,0.0,0.0,0.0,10.0,0.0,0.0,0.0,10.0,0.00359526747161,0.0119842249054,0.00372842552611,1.0,0.0,0.0,0.0,1.0,0.0,0.0,0.0,1.0,-0.0622705078125,0.0311352539063,10.1584753418,0.1,0.0,0.0,0.0,0.1,0.0,0.0,0.0,0.1
1452010246188353706,12,1452010246185302019,robocape,-0.673253897041,11.7767662066,16.8372965655,0.0,10.0,0.0,0.0,0.0,10.0,0.0,0.0,0.0,10.0,0.00466053190764,0.0125168571234,0.00412789968962,1.0,0.0,0.0,0.0,1.0,0.0,0.0,0.0,1.0,-0.0658630371094,0.0395178222656,10.1405126953,0.1,0.0,0.0,0.0,0.1,0.0,0.0,0.0,0.1
1452010246221944956,13,1452010246218431949,robocape,-0.666643993283,11.7773886827,16.8123853057,0.0,10.0,0.0,0.0,0.0,10.0,0.0,0.0,0.0,10.0,0.00372842552611,0.0121173829599,0.00412789968962,1.0,0.0,0.0,0.0,1.0,0.0,0.0,0.0,1.0,-0.0694555664063,0.0646655273438,10.1620678711,0.1,0.0,0.0,0.0,0.1,0.0,0.0,0.0,0.1
1452010246255155331,14,1452010246251882076,robocape,-0.662935342049,11.7772645744,16.7870459026,0.0,10.0,0.0,0.0,0.0,10.0,0.0,0.0,0.0,10.0,0.00226368692657,0.0117179087963,0.00386158358061,1.0,0.0,0.0,0.0,1.0,0.0,0.0,0.0,1.0,-0.0682580566406,0.0730480957031,10.1620678711,0.1,0.0,0.0,0.0,0.1,0.0,0.0,0.0,0.1
1452010246288650414,15,1452010246285105943,robocape,-0.66100442915,11.777149485,16.7617692651,0.0,10.0,0.0,0.0,0.0,10.0,0.0,0.0,0.0,10.0,0.00133158054504,0.0117179087963,0.00386158358061,1.0,0.0,0.0,0.0,1.0,0.0,0.0,0.0,1.0,-0.0814306640625,0.0586779785156,10.1668579102,0.1,0.0,0.0,0.0,0.1,0.0,0.0,0.0,0.1
1452010246321942581,16,1452010246318523883,robocape,-0.658001817835,11.7767974216,16.7368237349,0.0,10.0,0.0,0.0,0.0,10.0,0.0,0.0,0.0,10.0,0.00186421276306,0.0115847507418,0.00399474163512,1.0,0.0,0.0,0.0,1.0,0.0,0.0,0.0,1.0,-0.0658630371094,0.0371228027344,10.1500927734,0.1,0.0,0.0,0.0,0.1,0.0,0.0,0.0,0.1
1452010246355304331,17,1452010246352060079,robocape,-0.653582178759,11.7769662984,16.7114285543,0.0,10.0,0.0,0.0,0.0,10.0,0.0,0.0,0.0,10.0,0.00266316109008,0.0118510668509,0.00372842552611,1.0,0.0,0.0,0.0,1.0,0.0,0.0,0.0,1.0,-0.0622705078125,0.0455053710938,10.1680554199,0.1,0.0,0.0,0.0,0.1,0.0,0.0,0.0,0.1
1452010246388784914,18,1452010246385478973,robocape,-0.646827843477,11.7774034166,16.6863555457,0.0,10.0,0.0,0.0,0.0,10.0,0.0,0.0,0.0,10.0,0.00386158358061,0.0119842249054,0.00386158358061,1.0,0.0,0.0,0.0,1.0,0.0,0.0,0.0,1.0,-0.0610729980469,0.0502954101563,10.1536853027,0.1,0.0,0.0,0.0,0.1,0.0,0.0,0.0,0.1
1452010246421763998,19,1452010246418601036,robocape,-0.641201408772,11.778103506,16.6608327941,0.0,10.0,0.0,0.0,0.0,10.0,0.0,0.0,0.0,10.0,0.0033289513626,0.0121173829599,0.00359526747161,1.0,0.0,0.0,0.0,1.0,0.0,0.0,0.0,1.0,-0.0742456054688,0.0586779785156,10.136920166,0.1,0.0,0.0,0.0,0.1,0.0,0.0,0.0,0.1
1452010246455005331,20,1452010246451858043,robocape,-0.636489556529,11.7788111419,16.6358831829,0.0,10.0,0.0,0.0,0.0,10.0,0.0,0.0,0.0,10.0,0.00279631914458,0.0121173829599,0.00386158358061,1.0,0.0,0.0,0.0,1.0,0.0,0.0,0.0,1.0,-0.067060546875,0.076640625,10.1596728516,0.1,0.0,0.0,0.0,0.1,0.0,0.0,0.0,0.1
1452010246488598540,21,1452010246485362052,robocape,-0.633154035351,11.7792777081,16.6104951439,0.0,10.0,0.0,0.0,0.0,10.0,0.0,0.0,0.0,10.0,0.00213052887206,0.0119842249054,0.00359526747161,1.0,0.0,0.0,0.0,1.0,0.0,0.0,0.0,1.0,-0.0610729980469,0.0682580566406,10.1488952637,0.1,0.0,0.0,0.0,0.1,0.0,0.0,0.0,0.1
1452010246521589373,22,1452010246518538951,robocape,-0.630680861767,11.7785000363,16.5846973217,0.0,10.0,0.0,0.0,0.0,10.0,0.0,0.0,0.0,10.0,0.00173105470855,0.0113184346328,0.0033289513626,1.0,0.0,0.0,0.0,1.0,0.0,0.0,0.0,1.0,-0.05748046875,0.05748046875,10.1632653809,0.1,0.0,0.0,0.0,0.1,0.0,0.0,0.0,0.1
1452010246555263498,23,1452010246552216053,robocape,-0.626726907216,11.7779871301,16.5599811002,0.0,10.0,0.0,0.0,0.0,10.0,0.0,0.0,0.0,10.0,0.00239684498107,0.0114515926873,0.00386158358061,1.0,0.0,0.0,0.0,1.0,0.0,0.0,0.0,1.0,-0.0455053710938,0.0263452148438,10.1644628906,0.1,0.0,0.0,0.0,0.1,0.0,0.0,0.0,0.1
1452010246588528748,24,1452010246585517883,robocape,-0.621052068832,11.7782464244,16.5350625224,0.0,10.0,0.0,0.0,0.0,10.0,0.0,0.0,0.0,10.0,0.0033289513626,0.0118510668509,0.00372842552611,1.0,0.0,0.0,0.0,1.0,0.0,0.0,0.0,1.0,-0.0610729980469,0.0323327636719,10.1512902832,0.1,0.0,0.0,0.0,0.1,0.0,0.0,0.0,0.1
1452010246623207165,25,1452010246619970083,robocape,-0.613090240574,11.7792713134,16.5114668452,0.0,10.0,0.0,0.0,0.0,10.0,0.0,0.0,0.0,10.0,0.00439421579863,0.0122505410144,0.00439421579863,1.0,0.0,0.0,0.0,1.0,0.0,0.0,0.0,1.0,-0.0550854492188,0.0347277832031,10.1608703613,0.1,0.0,0.0,0.0,0.1,0.0,0.0,0.0,0.1
1452010246656174331,26,1452010246653080940,robocape,-0.604325731721,11.7810607606,16.4881714363,0.0,10.0,0.0,0.0,0.0,10.0,0.0,0.0,0.0,10.0,0.00479368996214,0.0126500151779,0.00452737385313,1.0,0.0,0.0,0.0,1.0,0.0,0.0,0.0,1.0,-0.0598754882813,0.0550854492188,10.157277832,0.1,0.0,0.0,0.0,0.1,0.0,0.0,0.0,0.1
1452010246689758206,27,1452010246686774015,robocape,-0.596742542967,11.7821059567,16.4641929269,0.0,10.0,0.0,0.0,0.0,10.0,0.0,0.0,0.0,10.0,0.00426105774413,0.0122505410144,0.00412789968962,1.0,0.0,0.0,0.0,1.0,0.0,0.0,0.0,1.0,-0.0694555664063,0.0622705078125,10.1393151855,0.1,0.0,0.0,0.0,0.1,0.0,0.0,0.0,0.1
1452010246722343290,28,1452010246718806982,robocape,-0.589980054297,11.7826584496,16.4400351885,0.0,10.0,0.0,0.0,0.0,10.0,0.0,0.0,0.0,10.0,0.00386158358061,0.0119842249054,0.00399474163512,1.0,0.0,0.0,0.0,1.0,0.0,0.0,0.0,1.0,-0.0634680175781,0.0790356445313,10.1536853027,0.1,0.0,0.0,0.0,0.1,0.0,0.0,0.0,0.1
1452010246756763081,29,1452010246753607034,robocape,-0.585920724595,11.7832199315,16.41517259,0.0,10.0,0.0,0.0,0.0,10.0,0.0,0.0,0.0,10.0,0.00253000303558,0.0119842249054,0.00359526747161,1.0,0.0,0.0,0.0,1.0,0.0,0.0,0.0,1.0,-0.0730480957031,0.0838256835938,10.1405126953,0.1,0.0,0.0,0.0,0.1,0.0,0.0,0.0,0.1
1452010246789797956,30,1452010246786612033,robocape,-0.583890510091,11.7827832473,16.3903951205,0.0,10.0,0.0,0.0,0.0,10.0,0.0,0.0,0.0,10.0,0.00146473859954,0.0114515926873,0.00359526747161,1.0,0.0,0.0,0.0,1.0,0.0,0.0,0.0,1.0,-0.0742456054688,0.0622705078125,10.1584753418,0.1,0.0,0.0,0.0,0.1,0.0,0.0,0.0,0.1
1452010246826507831,31,1452010246822575092,robocape,-0.580536672912,11.7826123978,16.3659341122,0.0,10.0,0.0,0.0,0.0,10.0,0.0,0.0,0.0,10.0,0.00213052887206,0.0115847507418,0.00372842552611,1.0,0.0,0.0,0.0,1.0,0.0,0.0,0.0,1.0,-0.067060546875,0.0335302734375,10.1608703613,0.1,0.0,0.0,0.0,0.1,0.0,0.0,0.0,0.1
1452010246856738915,32,1452010246853512048,robocape,-0.574540580298,11.7829597568,16.342040305,0.0,10.0,0.0,0.0,0.0,10.0,0.0,0.0,0.0,10.0,0.0034621094171,0.0118510668509,0.00399474163512,1.0,0.0,0.0,0.0,1.0,0.0,0.0,0.0,1.0,-0.0634680175781,0.0395178222656,10.1417102051,0.1,0.0,0.0,0.0,0.1,0.0,0.0,0.0,0.1
1452010246892531873,33,1452010246888541936,robocape,-0.566417538504,11.7845767789,16.3186925038,0.0,10.0,0.0,0.0,0.0,10.0,0.0,0.0,0.0,10.0,0.00452737385313,0.0125168571234,0.00426105774413,1.0,0.0,0.0,0.0,1.0,0.0,0.0,0.0,1.0,-0.0730480957031,0.0502954101563,10.1560803223,0.1,0.0,0.0,0.0,0.1,0.0,0.0,0.0,0.1
1452010246922602748,34,1452010246919359922,robocape,-0.558355618747,11.7859524656,16.2951588672,0.0,10.0,0.0,0.0,0.0,10.0,0.0,0.0,0.0,10.0,0.00452737385313,0.0123836990689,0.00412789968962,1.0,0.0,0.0,0.0,1.0,0.0,0.0,0.0,1.0,-0.05748046875,0.0610729980469,10.1512902832,0.1,0.0,0.0,0.0,0.1,0.0,0.0,0.0,0.1
1452010246961038623,35,1452010246957443952,robocape,-0.554415995303,11.7868274022,16.2714347088,0.0,10.0,0.0,0.0,0.0,10.0,0.0,0.0,0.0,10.0,0.00239684498107,0.0121173829599,0.00399474163512,1.0,0.0,0.0,0.0,1.0,0.0,0.0,0.0,1.0,-0.067060546875,0.067060546875,10.1596728516,0.1,0.0,0.0,0.0,0.1,0.0,0.0,0.0,0.1
1452010246989087790,36,1452010246986064910,robocape,-0.552408809156,11.7864558344,16.2470360414,0.0,10.0,0.0,0.0,0.0,10.0,0.0,0.0,0.0,10.0,0.00146473859954,0.0114515926873,0.00359526747161,1.0,0.0,0.0,0.0,1.0,0.0,0.0,0.0,1.0,-0.0694555664063,0.0658630371094,10.152487793,0.1,0.0,0.0,0.0,0.1,0.0,0.0,0.0,0.1
1452010247027195165,37,1452010247023866891,robocape,-0.551009753931,11.7853444392,16.2222098106,0.0,10.0,0.0,0.0,0.0,10.0,0.0,0.0,0.0,10.0,0.00119842249054,0.0110521185238,0.0033289513626,1.0,0.0,0.0,0.0,1.0,0.0,0.0,0.0,1.0,-0.0598754882813,0.0419128417969,10.1884130859,0.1,0.0,0.0,0.0,0.1,0.0,0.0,0.0,0.1
1452010247059878540,38,1452010247056476116,robocape,-0.546916826438,11.7862587403,16.1981687644,0.0,10.0,0.0,0.0,0.0,10.0,0.0,0.0,0.0,10.0,0.00253000303558,0.0121173829599,0.00372842552611,1.0,0.0,0.0,0.0,1.0,0.0,0.0,0.0,1.0,-0.0622705078125,0.028740234375,10.1345251465,0.1,0.0,0.0,0.0,0.1,0.0,0.0,0.0,0.1
1452010247092732540,39,1452010247089468002,robocape,-0.539317099008,11.7879386723,16.1751978104,0.0,10.0,0.0,0.0,0.0,10.0,0.0,0.0,0.0,10.0,0.00426105774413,0.0125168571234,0.00426105774413,1.0,0.0,0.0,0.0,1.0,0.0,0.0,0.0,1.0,-0.0706530761719,0.0239501953125,10.1297351074,0.1,0.0,0.0,0.0,0.1,0.0,0.0,0.0,0.1
1452010247153691457,40,1452010247122024059,robocape,-0.530508207957,11.7893795548,16.1520426761,0.0,10.0,0.0,0.0,0.0,10.0,0.0,0.0,0.0,10.0,0.00492684801665,0.0123836990689,0.00412789968962,1.0,0.0,0.0,0.0,1.0,0.0,0.0,0.0,1.0,-0.067060546875,0.047900390625,10.1608703613,0.1,0.0,0.0,0.0,0.1,0.0,0.0,0.0,0.1
1452010247174139457,41,1452010247171123027,robocape,-0.52435161023,11.7900729801,16.1284516296,0.0,10.0,0.0,0.0,0.0,10.0,0.0,0.0,0.0,10.0,0.00359526747161,0.0119842249054,0.00386158358061,1.0,0.0,0.0,0.0,1.0,0.0,0.0,0.0,1.0,-0.0718505859375,0.0898132324219,10.1405126953,0.1,0.0,0.0,0.0,0.1,0.0,0.0,0.0,0.1
1452010247197726040,42,1452010247194283962,robocape,-0.520894898745,11.7900217197,16.1041709386,0.0,10.0,0.0,0.0,0.0,10.0,0.0,0.0,0.0,10.0,0.00226368692657,0.0115847507418,0.0034621094171,1.0,0.0,0.0,0.0,1.0,0.0,0.0,0.0,1.0,-0.0550854492188,0.0850231933594,10.1608703613,0.1,0.0,0.0,0.0,0.1,0.0,0.0,0.0,0.1
1452010247226210332,43,1452010247222907066,robocape,-0.520629047402,11.788465448,16.0804891497,0.0,10.0,0.0,0.0,0.0,10.0,0.0,0.0,0.0,10.0,0.000532632218016,0.0107858024148,0.00372842552611,1.0,0.0,0.0,0.0,1.0,0.0,0.0,0.0,1.0,-0.0730480957031,0.05748046875,10.1189575195,0.1,0.0,0.0,0.0,0.1,0.0,0.0,0.0,0.1
1452010247259944623,44,1452010247256393909,robocape,-0.521530194154,11.786674026,16.0561093332,0.0,10.0,0.0,0.0,0.0,10.0,0.0,0.0,0.0,10.0,0.0,0.0106526443603,0.0033289513626,1.0,0.0,0.0,0.0,1.0,0.0,0.0,0.0,1.0,-0.0646655273438,0.0395178222656,10.1560803223,0.1,0.0,0.0,0.0,0.1,0.0,0.0,0.0,0.1
1452010247292662248,45,1452010247289339065,robocape,-0.519634607134,11.7861594488,16.03176998,0.0,10.0,0.0,0.0,0.0,10.0,0.0,0.0,0.0,10.0,0.00146473859954,0.0113184346328,0.0033289513626,1.0,0.0,0.0,0.0,1.0,0.0,0.0,0.0,1.0,-0.0502954101563,0.0263452148438,10.1620678711,0.1,0.0,0.0,0.0,0.1,0.0,0.0,0.0,0.1
1452010247328512332,46,1452010247325520992,robocape,-0.51346853009,11.7871680728,16.0084857278,0.0,10.0,0.0,0.0,0.0,10.0,0.0,0.0,0.0,10.0,0.00359526747161,0.0121173829599,0.00386158358061,1.0,0.0,0.0,0.0,1.0,0.0,0.0,0.0,1.0,-0.0562829589844,0.0143701171875,10.1476977539,0.1,0.0,0.0,0.0,0.1,0.0,0.0,0.0,0.1
1452010247358748332,47,1452010247355314970,robocape,-0.504466652863,11.7894467575,15.9854942045,0.0,10.0,0.0,0.0,0.0,10.0,0.0,0.0,0.0,10.0,0.00506000607115,0.0127831732324,0.00399474163512,1.0,0.0,0.0,0.0,1.0,0.0,0.0,0.0,1.0,-0.0586779785156,0.0395178222656,10.1548828125,0.1,0.0,0.0,0.0,0.1,0.0,0.0,0.0,0.1
1452010247391524123,48,1452010247388396978,robocape,-0.495475054804,11.791481212,15.9625687228,0.0,10.0,0.0,0.0,0.0,10.0,0.0,0.0,0.0,10.0,0.00506000607115,0.0126500151779,0.00399474163512,1.0,0.0,0.0,0.0,1.0,0.0,0.0,0.0,1.0,-0.0694555664063,0.0455053710938,10.1429077148,0.1,0.0,0.0,0.0,0.1,0.0,0.0,0.0,0.1
1452010247425377665,49,1452010247422281026,robocape,-0.488320465978,11.7922648035,15.9394734454,0.0,10.0,0.0,0.0,0.0,10.0,0.0,0.0,0.0,10.0,0.00412789968962,0.0119842249054,0.00386158358061,1.0,0.0,0.0,0.0,1.0,0.0,0.0,0.0,1.0,-0.0634680175781,0.0742456054688,10.1273400879,0.1,0.0,0.0,0.0,0.1,0.0,0.0,0.0,0.1
1452010247457778790,50,1452010247454669952,robocape,-0.484323724643,11.7925525024,15.9159334676,0.0,10.0,0.0,0.0,0.0,10.0,0.0,0.0,0.0,10.0,0.00253000303558,0.0117179087963,0.00359526747161,1.0,0.0,0.0,0.0,1.0,0.0,0.0,0.0,1.0,-0.0622705078125,0.0682580566406,10.1488952637,0.1,0.0,0.0,0.0,0.1,0.0,0.0,0.0,0.1
1452010247491444915,51,1452010247488343000,robocape,-0.480276654202,11.7931007062,15.8927028259,0.0,10.0,0.0,0.0,0.0,10.0,0.0,0.0,0.0,10.0,0.00253000303558,0.0118510668509,0.00372842552611,1.0,0.0,0.0,0.0,1.0,0.0,0.0,0.0,1.0,-0.0634680175781,0.0431103515625,10.1548828125,0.1,0.0,0.0,0.0,0.1,0.0,0.0,0.0,0.1
1452010247525213665,52,1452010247522128105,robocape,-0.474349593601,11.7939108864,15.8700395965,0.0,10.0,0.0,0.0,0.0,10.0,0.0,0.0,0.0,10.0,0.0034621094171,0.0119842249054,0.00399474163512,1.0,0.0,0.0,0.0,1.0,0.0,0.0,0.0,1.0,-0.0646655273438,0.0359252929688,10.1668579102,0.1,0.0,0.0,0.0,0.1,0.0,0.0,0.0,0.1
1452010247558019582,53,1452010247554910898,robocape,-0.466451634921,11.7954898029,15.8471686722,0.0,10.0,0.0,0.0,0.0,10.0,0.0,0.0,0.0,10.0,0.00452737385313,0.0123836990689,0.00386158358061,1.0,0.0,0.0,0.0,1.0,0.0,0.0,0.0,1.0,-0.0490979003906,0.0419128417969,10.1548828125,0.1,0.0,0.0,0.0,0.1,0.0,0.0,0.0,0.1
1452010247591039165,54,1452010247587927103,robocape,-0.458711216308,11.7970733597,15.824865379,0.0,10.0,0.0,0.0,0.0,10.0,0.0,0.0,0.0,10.0,0.00439421579863,0.0123836990689,0.00412789968962,1.0,0.0,0.0,0.0,1.0,0.0,0.0,0.0,1.0,-0.0586779785156,0.0706530761719,10.1500927734,0.1,0.0,0.0,0.0,0.1,0.0,0.0,0.0,0.1
1452010247624027290,55,1452010247620811939,robocape,-0.452300939523,11.7984124791,15.8023679489,0.0,10.0,0.0,0.0,0.0,10.0,0.0,0.0,0.0,10.0,0.00372842552611,0.0122505410144,0.00399474163512,1.0,0.0,0.0,0.0,1.0,0.0,0.0,0.0,1.0,-0.0646655273438,0.0646655273438,10.132130127,0.1,0.0,0.0,0.0,0.1,0.0,0.0,0.0,0.1
1452010247657033373,56,1452010247654010057,robocape,-0.446455922679,11.7992579493,15.7796840323,0.0,10.0,0.0,0.0,0.0,10.0,0.0,0.0,0.0,10.0,0.0034621094171,0.0119842249054,0.00386158358061,1.0,0.0,0.0,0.0,1.0,0.0,0.0,0.0,1.0,-0.0550854492188,0.0622705078125,10.1441052246,0.1,0.0,0.0,0.0,0.1,0.0,0.0,0.0,0.1
1452010247689350790,57,1452010247686255931,robocape,-0.44219279406,11.8003624203,15.7567946966,0.0,10.0,0.0,0.0,0.0,10.0,0.0,0.0,0.0,10.0,0.00266316109008,0.0121173829599,0.00372842552611,1.0,0.0,0.0,0.0,1.0,0.0,0.0,0.0,1.0,-0.0598754882813,0.0455053710938,10.1405126953,0.1,0.0,0.0,0.0,0.1,0.0,0.0,0.0,0.1
1452010247723000748,58,1452010247719722032,robocape,-0.437877832309,11.8009714377,15.7342293638,0.0,10.0,0.0,0.0,0.0,10.0,0.0,0.0,0.0,10.0,0.00266316109008,0.0118510668509,0.00386158358061,1.0,0.0,0.0,0.0,1.0,0.0,0.0,0.0,1.0,-0.0658630371094,0.0538879394531,10.1476977539,0.1,0.0,0.0,0.0,0.1,0.0,0.0,0.0,0.1
1452010247755075082,59,1452010247751959085,robocape,-0.433258688125,11.8015888361,15.7119769127,0.0,10.0,0.0,0.0,0.0,10.0,0.0,0.0,0.0,10.0,0.00279631914458,0.0118510668509,0.00399474163512,1.0,0.0,0.0,0.0,1.0,0.0,0.0,0.0,1.0,-0.05748046875,0.047900390625,10.1405126953,0.1,0.0,0.0,0.0,0.1,0.0,0.0,0.0,0.1
1452010247789739165,60,1452010247786633968,robocape,-0.427119197618,11.8022186343,15.6897851973,0.0,10.0,0.0,0.0,0.0,10.0,0.0,0.0,0.0,10.0,0.00359526747161,0.0118510668509,0.00399474163512,1.0,0.0,0.0,0.0,1.0,0.0,0.0,0.0,1.0,-0.0586779785156,0.0335302734375,10.1393151855,0.1,0.0,0.0,0.0,0.1,0.0,0.0,0.0,0.1
1452010247822620957,61,1452010247819061994,robocape,-0.419559410041,11.8033579468,15.6684064376,0.0,10.0,0.0,0.0,0.0,10.0,0.0,0.0,0.0,10.0,0.00426105774413,0.0121173829599,0.00439421579863,1.0,0.0,0.0,0.0,1.0,0.0,0.0,0.0,1.0,-0.0526904296875,0.0371228027344,10.1680554199,0.1,0.0,0.0,0.0,0.1,0.0,0.0,0.0,0.1
1452010247856163915,62,1452010247853147029,robocape,-0.410845502452,11.8050137204,15.6465660699,0.0,10.0,0.0,0.0,0.0,10.0,0.0,0.0,0.0,10.0,0.00492684801665,0.0123836990689,0.00412789968962,1.0,0.0,0.0,0.0,1.0,0.0,0.0,0.0,1.0,-0.0610729980469,0.0467028808594,10.1644628906,0.1,0.0,0.0,0.0,0.1,0.0,0.0,0.0,0.1
1452010247889059957,63,1452010247885812044,robocape,-0.400821450493,11.8071801405,15.6250290587,0.0,10.0,0.0,0.0,0.0,10.0,0.0,0.0,0.0,10.0,0.00559263828917,0.0126500151779,0.00426105774413,1.0,0.0,0.0,0.0,1.0,0.0,0.0,0.0,1.0,-0.0634680175781,0.0682580566406,10.1405126953,0.1,0.0,0.0,0.0,0.1,0.0,0.0,0.0,0.1
1452010247922085540,64,1452010247918992996,robocape,-0.39106297683,11.8088499868,15.6035579869,0.0,10.0,0.0,0.0,0.0,10.0,0.0,0.0,0.0,10.0,0.00545948023466,0.0123836990689,0.00426105774413,1.0,0.0,0.0,0.0,1.0,0.0,0.0,0.0,1.0,-0.0646655273438,0.0754431152344,10.1273400879,0.1,0.0,0.0,0.0,0.1,0.0,0.0,0.0,0.1
1452010247956574415,65,1452010247953414916,robocape,-0.384107102457,11.8095169004,15.5821571746,0.0,10.0,0.0,0.0,0.0,10.0,0.0,0.0,0.0,10.0,0.00399474163512,0.0118510668509,0.00426105774413,1.0,0.0,0.0,0.0,1.0,0.0,0.0,0.0,1.0,-0.0754431152344,0.0910107421875,10.1453027344,0.1,0.0,0.0,0.0,0.1,0.0,0.0,0.0,0.1
1452010247990786040,66,1452010247987262964,robocape,-0.381324220595,11.8094349888,15.5603084441,0.0,10.0,0.0,0.0,0.0,10.0,0.0,0.0,0.0,10.0,0.00186421276306,0.0114515926873,0.00399474163512,1.0,0.0,0.0,0.0,1.0,0.0,0.0,0.0,1.0,-0.0646655273438,0.0826281738281,10.1584753418,0.1,0.0,0.0,0.0,0.1,0.0,0.0,0.0,0.1
1452010248025845415,67,1452010248021583080,robocape,-0.380931412959,11.809362515,15.5380004709,0.0,10.0,0.0,0.0,0.0,10.0,0.0,0.0,0.0,10.0,0.00066579027252,0.0114515926873,0.00372842552611,1.0,0.0,0.0,0.0,1.0,0.0,0.0,0.0,1.0,-0.076640625,0.0706530761719,10.1357226563,0.1,0.0,0.0,0.0,0.1,0.0,0.0,0.0,0.1
1452010248059057207,68,1452010248053730010,robocape,-0.379728403391,11.8090580707,15.5147374042,0.0,10.0,0.0,0.0,0.0,10.0,0.0,0.0,0.0,10.0,0.00119842249054,0.0113184346328,0.0031957933081,1.0,0.0,0.0,0.0,1.0,0.0,0.0,0.0,1.0,-0.0562829589844,0.0383203125,10.1441052246,0.1,0.0,0.0,0.0,0.1,0.0,0.0,0.0,0.1
1452010248092467457,69,1452010248089250087,robocape,-0.376588522251,11.8095163498,15.4922851877,0.0,10.0,0.0,0.0,0.0,10.0,0.0,0.0,0.0,10.0,0.00213052887206,0.0117179087963,0.00359526747161,1.0,0.0,0.0,0.0,1.0,0.0,0.0,0.0,1.0,-0.067060546875,0.0299377441406,10.1476977539,0.1,0.0,0.0,0.0,0.1,0.0,0.0,0.0,0.1
1452010248125475790,70,1452010248119709968,robocape,-0.36968627609,11.8109884007,15.4708956571,0.0,10.0,0.0,0.0,0.0,10.0,0.0,0.0,0.0,10.0,0.00399474163512,0.0122505410144,0.00412789968962,1.0,0.0,0.0,0.0,1.0,0.0,0.0,0.0,1.0,-0.0562829589844,0.0383203125,10.1357226563,0.1,0.0,0.0,0.0,0.1,0.0,0.0,0.0,0.1
1452010248158476165,71,1452010248152688980,robocape,-0.360349580786,11.8129688924,15.450319651,0.0,10.0,0.0,0.0,0.0,10.0,0.0,0.0,0.0,10.0,0.00519316412565,0.0125168571234,0.00452737385313,1.0,0.0,0.0,0.0,1.0,0.0,0.0,0.0,1.0,-0.0742456054688,0.0443078613281,10.1632653809,0.1,0.0,0.0,0.0,0.1,0.0,0.0,0.0,0.1
1452010248191257374,72,1452010248187899112,robocape,-0.353570179173,11.8137044758,15.4285434128,0.0,10.0,0.0,0.0,0.0,10.0,0.0,0.0,0.0,10.0,0.00399474163512,0.0118510668509,0.00386158358061,1.0,0.0,0.0,0.0,1.0,0.0,0.0,0.0,1.0,-0.0742456054688,0.0790356445313,10.157277832,0.1,0.0,0.0,0.0,0.1,0.0,0.0,0.0,0.1
1452010248226546915,73,1452010248223105907,robocape,-0.350351572703,11.8141910741,15.4068196685,0.0,10.0,0.0,0.0,0.0,10.0,0.0,0.0,0.0,10.0,0.00213052887206,0.0117179087963,0.00386158358061,1.0,0.0,0.0,0.0,1.0,0.0,0.0,0.0,1.0,-0.0742456054688,0.0718505859375,10.1429077148,0.1,0.0,0.0,0.0,0.1,0.0,0.0,0.0,0.1
1452010248259619290,74,1452010248256347894,robocape,-0.348411379855,11.8141918452,15.3838846739,0.0,10.0,0.0,0.0,0.0,10.0,0.0,0.0,0.0,10.0,0.00159789665405,0.0114515926873,0.0031957933081,1.0,0.0,0.0,0.0,1.0,0.0,0.0,0.0,1.0,-0.076640625,0.0610729980469,10.1261425781,0.1,0.0,0.0,0.0,0.1,0.0,0.0,0.0,0.1
1452010248292925082,75,1452010248289426088,robocape,-0.345696366692,11.8136918936,15.3622920201,0.0,10.0,0.0,0.0,0.0,10.0,0.0,0.0,0.0,10.0,0.00186421276306,0.0111852765783,0.00386158358061,1.0,0.0,0.0,0.0,1.0,0.0,0.0,0.0,1.0,-0.0550854492188,0.0347277832031,10.1596728516,0.1,0.0,0.0,0.0,0.1,0.0,0.0,0.0,0.1
1452010248324590457,76,1452010248320878028,robocape,-0.34033976043,11.8144598221,15.3412437819,0.0,10.0,0.0,0.0,0.0,10.0,0.0,0.0,0.0,10.0,0.0031957933081,0.0118510668509,0.00412789968962,1.0,0.0,0.0,0.0,1.0,0.0,0.0,0.0,1.0,-0.0550854492188,0.0323327636719,10.1596728516,0.1,0.0,0.0,0.0,0.1,0.0,0.0,0.0,0.1
1452010248357874957,77,1452010248353981971,robocape,-0.331636968957,11.8162451004,15.3204908764,0.0,10.0,0.0,0.0,0.0,10.0,0.0,0.0,0.0,10.0,0.00492684801665,0.0123836990689,0.00426105774413,1.0,0.0,0.0,0.0,1.0,0.0,0.0,0.0,1.0,-0.0706530761719,0.0443078613281,10.1548828125,0.1,0.0,0.0,0.0,0.1,0.0,0.0,0.0,0.1
1452010248393052207,78,1452010248389632940,robocape,-0.319995807254,11.8187895757,15.3005466249,0.0,10.0,0.0,0.0,0.0,10.0,0.0,0.0,0.0,10.0,0.00639158661619,0.0127831732324,0.00466053190764,1.0,0.0,0.0,0.0,1.0,0.0,0.0,0.0,1.0,-0.0622705078125,0.0335302734375,10.1596728516,0.1,0.0,0.0,0.0,0.1,0.0,0.0,0.0,0.1
1452010248425344749,79,1452010248421891927,robocape,-0.306902151385,11.8220971236,15.2803877249,0.0,10.0,0.0,0.0,0.0,10.0,0.0,0.0,0.0,10.0,0.00719053494321,0.0131826473959,0.00452737385313,1.0,0.0,0.0,0.0,1.0,0.0,0.0,0.0,1.0,-0.0622705078125,0.0431103515625,10.157277832,0.1,0.0,0.0,0.0,0.1,0.0,0.0,0.0,0.1
1452010248458496374,80,1452010248454871892,robocape,-0.293423841243,11.8249106408,15.2597821285,0.0,10.0,0.0,0.0,0.0,10.0,0.0,0.0,0.0,10.0,0.00745685105222,0.0129163312869,0.00426105774413,1.0,0.0,0.0,0.0,1.0,0.0,0.0,0.0,1.0,-0.0730480957031,0.067060546875,10.136920166,0.1,0.0,0.0,0.0,0.1,0.0,0.0,0.0,0.1
1452010248492177624,81,1452010248488922119,robocape,-0.283875818038,11.8264701172,15.2387358014,0.0,10.0,0.0,0.0,0.0,10.0,0.0,0.0,0.0,10.0,0.00545948023466,0.0122505410144,0.00399474163512,1.0,0.0,0.0,0.0,1.0,0.0,0.0,0.0,1.0,-0.0790356445313,0.0874182128906,10.1417102051,0.1,0.0,0.0,0.0,0.1,0.0,0.0,0.0,0.1
1452010248524272374,82,1452010248521091938,robocape,-0.281605457084,11.8272766227,15.2169774409,0.0,10.0,0.0,0.0,0.0,10.0,0.0,0.0,0.0,10.0,0.00173105470855,0.0118510668509,0.00359526747161,1.0,0.0,0.0,0.0,1.0,0.0,0.0,0.0,1.0,-0.0778381347656,0.119750976563,10.1500927734,0.1,0.0,0.0,0.0,0.1,0.0,0.0,0.0,0.1
1452010248559074999,83,1452010248555896997,robocape,-0.2865970674,11.8263261708,15.1945262032,0.0,10.0,0.0,0.0,0.0,10.0,0.0,0.0,0.0,10.0,-0.00199737081756,0.0109189604693,0.0031957933081,1.0,0.0,0.0,0.0,1.0,0.0,0.0,0.0,1.0,-0.0790356445313,0.106578369141,10.1297351074,0.1,0.0,0.0,0.0,0.1,0.0,0.0,0.0,0.1
1452010248593136041,84,1452010248590022087,robocape,-0.296246042034,11.8238750993,15.1716385589,0.0,10.0,0.0,0.0,0.0,10.0,0.0,0.0,0.0,10.0,-0.00439421579863,0.0101200121423,0.00292947719909,1.0,0.0,0.0,0.0,1.0,0.0,0.0,0.0,1.0,-0.0778381347656,0.0610729980469,10.1441052246,0.1,0.0,0.0,0.0,0.1,0.0,0.0,0.0,0.1
1452010248625556916,85,1452010248622119903,robocape,-0.30277221203,11.8214407317,15.1490675197,0.0,10.0,0.0,0.0,0.0,10.0,0.0,0.0,0.0,10.0,-0.00279631914458,0.0101200121423,0.00306263525359,1.0,0.0,0.0,0.0,1.0,0.0,0.0,0.0,1.0,-0.0526904296875,0.0047900390625,10.152487793,0.1,0.0,0.0,0.0,0.1,0.0,0.0,0.0,0.1
1452010248658298666,86,1452010248655239105,robocape,-0.300591934139,11.8215351021,15.1280506076,0.0,10.0,0.0,0.0,0.0,10.0,0.0,0.0,0.0,10.0,0.00159789665405,0.0114515926873,0.00386158358061,1.0,0.0,0.0,0.0,1.0,0.0,0.0,0.0,1.0,-0.0335302734375,-0.0131726074219,10.1644628906,0.1,0.0,0.0,0.0,0.1,0.0,0.0,0.0,0.1
1452010248691355124,87,1452010248688302993,robocape,-0.288452025453,11.8241556802,15.1085880667,0.0,10.0,0.0,0.0,0.0,10.0,0.0,0.0,0.0,10.0,0.0066579027252,0.0127831732324,0.00466053190764,1.0,0.0,0.0,0.0,1.0,0.0,0.0,0.0,1.0,-0.0598754882813,0.0143701171875,10.157277832,0.1,0.0,0.0,0.0,0.1,0.0,0.0,0.0,0.1
1452010248724614957,88,1452010248721203088,robocape,-0.274310502999,11.8278000635,15.0878868995,0.0,10.0,0.0,0.0,0.0,10.0,0.0,0.0,0.0,10.0,0.00785632521573,0.0133158054504,0.00399474163512,1.0,0.0,0.0,0.0,1.0,0.0,0.0,0.0,1.0,-0.0634680175781,0.0538879394531,10.1429077148,0.1,0.0,0.0,0.0,0.1,0.0,0.0,0.0,0.1
1452010248757324082,89,1452010248754221916,robocape,-0.263636768299,11.8306829352,15.0677551095,0.0,10.0,0.0,0.0,0.0,10.0,0.0,0.0,0.0,10.0,0.00599211245268,0.0129163312869,0.00426105774413,1.0,0.0,0.0,0.0,1.0,0.0,0.0,0.0,1.0,-0.0742456054688,0.0934057617188,10.1285375977,0.1,0.0,0.0,0.0,0.1,0.0,0.0,0.0,0.1
1452010248795198124,90,1452010248787844896,robocape,-0.259480332541,11.8323089121,15.0469190898,0.0,10.0,0.0,0.0,0.0,10.0,0.0,0.0,0.0,10.0,0.00266316109008,0.0122505410144,0.00386158358061,1.0,0.0,0.0,0.0,1.0,0.0,0.0,0.0,1.0,-0.0658630371094,0.116158447266,10.1596728516,0.1,0.0,0.0,0.0,0.1,0.0,0.0,0.0,0.1
1452010248826573999,91,1452010248823317050,robocape,-0.262596984159,11.8309320371,15.0241356507,0.0,10.0,0.0,0.0,0.0,10.0,0.0,0.0,0.0,10.0,-0.000932106381528,0.0106526443603,0.00279631914458,1.0,0.0,0.0,0.0,1.0,0.0,0.0,0.0,1.0,-0.0682580566406,0.0946032714844,10.1381176758,0.1,0.0,0.0,0.0,0.1,0.0,0.0,0.0,0.1
1452010248856100916,92,1452010248852519989,robocape,-0.269096050981,11.8285493554,15.002183787,0.0,10.0,0.0,0.0,0.0,10.0,0.0,0.0,0.0,10.0,-0.00279631914458,0.0101200121423,0.0031957933081,1.0,0.0,0.0,0.0,1.0,0.0,0.0,0.0,1.0,-0.067060546875,0.0514929199219,10.1417102051,0.1,0.0,0.0,0.0,0.1,0.0,0.0,0.0,0.1
1452010248889017916,93,1452010248885977983,robocape,-0.272278318378,11.8266882631,14.9802826406,0.0,10.0,0.0,0.0,0.0,10.0,0.0,0.0,0.0,10.0,-0.00106526443603,0.0103863282513,0.0031957933081,1.0,0.0,0.0,0.0,1.0,0.0,0.0,0.0,1.0,-0.0514929199219,0.01916015625,10.1584753418,0.1,0.0,0.0,0.0,0.1,0.0,0.0,0.0,0.1
1452010248922760499,94,1452010248919601917,robocape,-0.269859507706,11.827350633,14.9596744729,0.0,10.0,0.0,0.0,0.0,10.0,0.0,0.0,0.0,10.0,0.00173105470855,0.0117179087963,0.00386158358061,1.0,0.0,0.0,0.0,1.0,0.0,0.0,0.0,1.0,-0.0490979003906,0.00718505859375,10.1584753418,0.1,0.0,0.0,0.0,0.1,0.0,0.0,0.0,0.1
1452010248955493041,95,1452010248952358007,robocape,-0.261551247722,11.8295360705,14.9393561763,0.0,10.0,0.0,0.0,0.0,10.0,0.0,0.0,0.0,10.0,0.00479368996214,0.0125168571234,0.00399474163512,1.0,0.0,0.0,0.0,1.0,0.0,0.0,0.0,1.0,-0.0467028808594,0.0335302734375,10.1465002441,0.1,0.0,0.0,0.0,0.1,0.0,0.0,0.0,0.1
1452010248988840332,96,1452010248985801935,robocape,-0.251825823326,11.8319733043,14.9198516794,0.0,10.0,0.0,0.0,0.0,10.0,0.0,0.0,0.0,10.0,0.00545948023466,0.0126500151779,0.00439421579863,1.0,0.0,0.0,0.0,1.0,0.0,0.0,0.0,1.0,-0.076640625,0.0598754882813,10.1441052246,0.1,0.0,0.0,0.0,0.1,0.0,0.0,0.0,0.1
1452010249021968832,97,1452010249018855094,robocape,-0.245062780525,11.8336629915,14.8996388845,0.0,10.0,0.0,0.0,0.0,10.0,0.0,0.0,0.0,10.0,0.00399474163512,0.0122505410144,0.00399474163512,1.0,0.0,0.0,0.0,1.0,0.0,0.0,0.0,1.0,-0.0562829589844,0.0910107421875,10.1141674805,0.1,0.0,0.0,0.0,0.1,0.0,0.0,0.0,0.1
1452010249055200832,98,1452010249052063941,robocape,-0.242471606549,11.8338487116,14.8789848122,0.0,10.0,0.0,0.0,0.0,10.0,0.0,0.0,0.0,10.0,0.00186421276306,0.0114515926873,0.00372842552611,1.0,0.0,0.0,0.0,1.0,0.0,0.0,0.0,1.0,-0.0826281738281,0.0646655273438,10.1309326172,0.1,0.0,0.0,0.0,0.1,0.0,0.0,0.0,0.1
1452010249088797874,99,1452010249085683107,robocape,-0.241507907386,11.8335425807,14.8578771372,0.0,10.0,0.0,0.0,0.0,10.0,0.0,0.0,0.0,10.0,0.00106526443603,0.0111852765783,0.0034621094171,1.0,0.0,0.0,0.0,1.0,0.0,0.0,0.0,1.0,-0.0646655273438,0.0514929199219,10.1441052246,0.1,0.0,0.0,0.0,0.1,0.0,0.0,0.0,0.1
1452010249121678791,100,1452010249118678092,robocape,-0.238658996445,11.8337470707,14.8373256883,0.0,10.0,0.0,0.0,0.0,10.0,0.0,0.0,0.0,10.0,0.00199737081756,0.0114515926873,0.00372842552611,1.0,0.0,0.0,0.0,1.0,0.0,0.0,0.0,1.0,-0.0622705078125,0.0359252929688,10.1764379883,0.1,0.0,0.0,0.0,0.1,0.0,0.0,0.0,0.1
1452010249155094707,101,1452010249152043104,robocape,-0.23184612717,11.8352159145,14.8175751896,0.0,10.0,0.0,0.0,0.0,10.0,0.0,0.0,0.0,10.0,0.00399474163512,0.0121173829599,0.00412789968962,1.0,0.0,0.0,0.0,1.0,0.0,0.0,0.0,1.0,-0.0538879394531,0.0275427246094,10.1764379883,0.1,0.0,0.0,0.0,0.1,0.0,0.0,0.0,0.1
1452010249188137582,102,1452010249185168027,robocape,-0.22397344787,11.8371926008,14.7981218662,0.0,10.0,0.0,0.0,0.0,10.0,0.0,0.0,0.0,10.0,0.00452737385313,0.0123836990689,0.00426105774413,1.0,0.0,0.0,0.0,1.0,0.0,0.0,0.0,1.0,-0.0718505859375,0.0586779785156,10.132130127,0.1,0.0,0.0,0.0,0.1,0.0,0.0,0.0,0.1
1452010249221560207,103,1452010249218555927,robocape,-0.217484837095,11.8389254837,14.778208384,0.0,10.0,0.0,0.0,0.0,10.0,0.0,0.0,0.0,10.0,0.00386158358061,0.0122505410144,0.00399474163512,1.0,0.0,0.0,0.0,1.0,0.0,0.0,0.0,1.0,-0.0814306640625,0.0718505859375,10.1345251465,0.1,0.0,0.0,0.0,0.1,0.0,0.0,0.0,0.1
1452010249254910249,104,1452010249251897096,robocape,-0.21410162501,11.8401585584,14.758091425,0.0,10.0,0.0,0.0,0.0,10.0,0.0,0.0,0.0,10.0,0.00226368692657,0.0119842249054,0.00386158358061,1.0,0.0,0.0,0.0,1.0,0.0,0.0,0.0,1.0,-0.0718505859375,0.0754431152344,10.1704504395,0.1,0.0,0.0,0.0,0.1,0.0,0.0,0.0,0.1
1452010249288417249,105,1452010249285351991,robocape,-0.21153260243,11.84064531,14.7377796515,0.0,10.0,0.0,0.0,0.0,10.0,0.0,0.0,0.0,10.0,0.00186421276306,0.0115847507418,0.00372842552611,1.0,0.0,0.0,0.0,1.0,0.0,0.0,0.0,1.0,-0.0694555664063,0.047900390625,10.177635498,0.1,0.0,0.0,0.0,0.1,0.0,0.0,0.0,0.1
1452010249321548333,106,1452010249318470954,robocape,-0.207440444776,11.8413936394,14.7175158659,0.0,10.0,0.0,0.0,0.0,10.0,0.0,0.0,0.0,10.0,0.00266316109008,0.0117179087963,0.00372842552611,1.0,0.0,0.0,0.0,1.0,0.0,0.0,0.0,1.0,-0.0562829589844,0.0215551757813,10.1656604004,0.1,0.0,0.0,0.0,0.1,0.0,0.0,0.0,0.1
1452010249355037416,107,1452010249351969957,robocape,-0.198880244523,11.8441590564,14.6980411075,0.0,10.0,0.0,0.0,0.0,10.0,0.0,0.0,0.0,10.0,0.00492684801665,0.0127831732324,0.00412789968962,1.0,0.0,0.0,0.0,1.0,0.0,0.0,0.0,1.0,-0.0610729980469,0.0311352539063,10.1476977539,0.1,0.0,0.0,0.0,0.1,0.0,0.0,0.0,0.1
1452010249388563583,108,1452010249385504007,robocape,-0.18773844396,11.8466783377,14.6788787066,0.0,10.0,0.0,0.0,0.0,10.0,0.0,0.0,0.0,10.0,0.00625842856169,0.0126500151779,0.00426105774413,1.0,0.0,0.0,0.0,1.0,0.0,0.0,0.0,1.0,-0.05748046875,0.0383203125,10.1429077148,0.1,0.0,0.0,0.0,0.1,0.0,0.0,0.0,0.1
1452010249421622249,109,1452010249418589115,robocape,-0.174275073553,11.8497052143,14.6600155236,0.0,10.0,0.0,0.0,0.0,10.0,0.0,0.0,0.0,10.0,0.00745685105222,0.0129163312869,0.00439421579863,1.0,0.0,0.0,0.0,1.0,0.0,0.0,0.0,1.0,-0.0646655273438,0.0646655273438,10.1632653809,0.1,0.0,0.0,0.0,0.1,0.0,0.0,0.0,0.1
1452010249454975874,110,1452010249451901912,robocape,-0.161644272079,11.8519826462,14.6409557463,0.0,10.0,0.0,0.0,0.0,10.0,0.0,0.0,0.0,10.0,0.00705737688871,0.0125168571234,0.00426105774413,1.0,0.0,0.0,0.0,1.0,0.0,0.0,0.0,1.0,-0.0622705078125,0.0790356445313,10.1596728516,0.1,0.0,0.0,0.0,0.1,0.0,0.0,0.0,0.1
1452010249488413083,111,1452010249485188007,robocape,-0.151421755557,11.8540148025,14.621433345,0.0,10.0,0.0,0.0,0.0,10.0,0.0,0.0,0.0,10.0,0.00585895439817,0.0123836990689,0.00399474163512,1.0,0.0,0.0,0.0,1.0,0.0,0.0,0.0,1.0,-0.0634680175781,0.0922082519531,10.1381176758,0.1,0.0,0.0,0.0,0.1,0.0,0.0,0.0,0.1
1452010249521513374,112,1452010249518496990,robocape,-0.144966874151,11.8552894776,14.6022196696,0.0,10.0,0.0,0.0,0.0,10.0,0.0,0.0,0.0,10.0,0.00386158358061,0.0119842249054,0.00412789968962,1.0,0.0,0.0,0.0,1.0,0.0,0.0,0.0,1.0,-0.0790356445313,0.0946032714844,10.1285375977,0.1,0.0,0.0,0.0,0.1,0.0,0.0,0.0,0.1
1452010249554951666,113,1452010249551951885,robocape,-0.143298159714,11.8553173092,14.5820436194,0.0,10.0,0.0,0.0,0.0,10.0,0.0,0.0,0.0,10.0,0.00146473859954,0.0113184346328,0.00359526747161,1.0,0.0,0.0,0.0,1.0,0.0,0.0,0.0,1.0,-0.0622705078125,0.0922082519531,10.1189575195,0.1,0.0,0.0,0.0,0.1,0.0,0.0,0.0,0.1
1452010249588291458,114,1452010249585125923,robocape,-0.143764957934,11.8556067488,14.5613979355,0.0,10.0,0.0,0.0,0.0,10.0,0.0,0.0,0.0,10.0,0.000399474163512,0.0114515926873,0.0033289513626,1.0,0.0,0.0,0.0,1.0,0.0,0.0,0.0,1.0,-0.0682580566406,0.0754431152344,10.1560803223,0.1,0.0,0.0,0.0,0.1,0.0,0.0,0.0,0.1
1452010249621626083,115,1452010249618649959,robocape,-0.143358962479,11.8561510818,14.5413092329,0.0,10.0,0.0,0.0,0.0,10.0,0.0,0.0,0.0,10.0,0.000798948327024,0.0115847507418,0.00359526747161,1.0,0.0,0.0,0.0,1.0,0.0,0.0,0.0,1.0,-0.0694555664063,0.0371228027344,10.1620678711,0.1,0.0,0.0,0.0,0.1,0.0,0.0,0.0,0.1
1452010249654936708,116,1452010249651921987,robocape,-0.138221977193,11.8577067976,14.5220266508,0.0,10.0,0.0,0.0,0.0,10.0,0.0,0.0,0.0,10.0,0.0031957933081,0.0121173829599,0.00399474163512,1.0,0.0,0.0,0.0,1.0,0.0,0.0,0.0,1.0,-0.067060546875,0.0239501953125,10.1584753418,0.1,0.0,0.0,0.0,0.1,0.0,0.0,0.0,0.1
1452010249688203458,117,1452010249685230016,robocape,-0.128775247285,11.8602794834,14.5027828669,0.0,10.0,0.0,0.0,0.0,10.0,0.0,0.0,0.0,10.0,0.00545948023466,0.0126500151779,0.00399474163512,1.0,0.0,0.0,0.0,1.0,0.0,0.0,0.0,1.0,-0.0562829589844,0.0239501953125,10.1584753418,0.1,0.0,0.0,0.0,0.1,0.0,0.0,0.0,0.1
1452010249722056041,118,1452010249718831062,robocape,-0.115935701143,11.8636091254,14.484091362,0.0,10.0,0.0,0.0,0.0,10.0,0.0,0.0,0.0,10.0,0.00719053494321,0.0130494893414,0.00426105774413,1.0,0.0,0.0,0.0,1.0,0.0,0.0,0.0,1.0,-0.047900390625,0.0407153320313,10.1548828125,0.1,0.0,0.0,0.0,0.1,0.0,0.0,0.0,0.1
1452010249755155791,119,1452010249751878023,robocape,-0.0992550180251,11.867948732,14.4656934949,0.0,10.0,0.0,0.0,0.0,10.0,0.0,0.0,0.0,10.0,0.00918790576077,0.0135821215594,0.00439421579863,1.0,0.0,0.0,0.0,1.0,0.0,0.0,0.0,1.0,-0.0682580566406,0.0443078613281,10.1476977539,0.1,0.0,0.0,0.0,0.1,0.0,0.0,0.0,0.1
1452010249788761583,120,1452010249785382986,robocape,-0.0792482375199,11.8735465144,14.4475850378,0.0,10.0,0.0,0.0,0.0,10.0,0.0,0.0,0.0,10.0,0.0109189604693,0.0142479118319,0.00452737385313,1.0,0.0,0.0,0.0,1.0,0.0,0.0,0.0,1.0,-0.0682580566406,0.0395178222656,10.1417102051,0.1,0.0,0.0,0.0,0.1,0.0,0.0,0.0,0.1
1452010249822495708,121,1452010249819228887,robocape,-0.0573898787677,11.8793895864,14.4300336603,0.0,10.0,0.0,0.0,0.0,10.0,0.0,0.0,0.0,10.0,0.0118510668509,0.0143810698864,0.00479368996214,1.0,0.0,0.0,0.0,1.0,0.0,0.0,0.0,1.0,-0.0658630371094,0.0946032714844,10.1417102051,0.1,0.0,0.0,0.0,0.1,0.0,0.0,0.0,0.1
1452010249855117541,122,1452010249851893901,robocape,-0.0392254276797,11.884476162,14.4120218882,0.0,10.0,0.0,0.0,0.0,10.0,0.0,0.0,0.0,10.0,0.0099868540878,0.0139815957229,0.00452737385313,1.0,0.0,0.0,0.0,1.0,0.0,0.0,0.0,1.0,-0.0802331542969,0.1149609375,10.1273400879,0.1,0.0,0.0,0.0,0.1,0.0,0.0,0.0,0.1
1452010249888430499,123,1452010249885142087,robocape,-0.0275922078194,11.8875510676,14.3933067556,0.0,10.0,0.0,0.0,0.0,10.0,0.0,0.0,0.0,10.0,0.0066579027252,0.0129163312869,0.00412789968962,1.0,0.0,0.0,0.0,1.0,0.0,0.0,0.0,1.0,-0.0850231933594,0.128133544922,10.1177600098,0.1,0.0,0.0,0.0,0.1,0.0,0.0,0.0,0.1
1452010249921758874,124,1452010249918612003,robocape,-0.0245623230002,11.8883674861,14.3736329283,0.0,10.0,0.0,0.0,0.0,10.0,0.0,0.0,0.0,10.0,0.00226368692657,0.0117179087963,0.00359526747161,1.0,0.0,0.0,0.0,1.0,0.0,0.0,0.0,1.0,-0.0838256835938,0.142503662109,10.1476977539,0.1,0.0,0.0,0.0,0.1,0.0,0.0,0.0,0.1
1452010249954945250,125,1452010249951826095,robocape,-0.0295062907663,11.8869241889,14.3535130271,0.0,10.0,0.0,0.0,0.0,10.0,0.0,0.0,0.0,10.0,-0.00186421276306,0.0105194863058,0.0033289513626,1.0,0.0,0.0,0.0,1.0,0.0,0.0,0.0,1.0,-0.076640625,0.119750976563,10.1417102051,0.1,0.0,0.0,0.0,0.1,0.0,0.0,0.0,0.1
1452010249988412458,126,1452010249985179901,robocape,-0.0348903182263,11.8849850932,14.3337018396,0.0,10.0,0.0,0.0,0.0,10.0,0.0,0.0,0.0,10.0,-0.00213052887206,0.0102531701968,0.0034621094171,1.0,0.0,0.0,0.0,1.0,0.0,0.0,0.0,1.0,-0.0682580566406,0.0610729980469,10.1417102051,0.1,0.0,0.0,0.0,0.1,0.0,0.0,0.0,0.1
1452010250021555250,127,1452010250018507957,robocape,-0.033301707147,11.8850710356,14.3144317855,0.0,10.0,0.0,0.0,0.0,10.0,0.0,0.0,0.0,10.0,0.00146473859954,0.0113184346328,0.00372842552611,1.0,0.0,0.0,0.0,1.0,0.0,0.0,0.0,1.0,-0.067060546875,0.0143701171875,10.1441052246,0.1,0.0,0.0,0.0,0.1,0.0,0.0,0.0,0.1
1452010250055055958,128,1452010250052050113,robocape,-0.0210941226947,11.8881822577,14.2962055881,0.0,10.0,0.0,0.0,0.0,10.0,0.0,0.0,0.0,10.0,0.00692421883421,0.0129163312869,0.00426105774413,1.0,0.0,0.0,0.0,1.0,0.0,0.0,0.0,1.0,-0.0502954101563,0.00598754882813,10.1644628906,0.1,0.0,0.0,0.0,0.1,0.0,0.0,0.0,0.1
1452010250088801458,129,1452010250085437059,robocape,-0.000368790703922,11.8930566775,14.2787813775,0.0,10.0,0.0,0.0,0.0,10.0,0.0,0.0,0.0,10.0,0.0113184346328,0.0138484376684,0.00466053190764,1.0,0.0,0.0,0.0,1.0,0.0,0.0,0.0,1.0,-0.0514929199219,0.0526904296875,10.1584753418,0.1,0.0,0.0,0.0,0.1,0.0,0.0,0.0,0.1
1452010250122919666,130,1452010250119817018,robocape,0.0221518014972,11.8996869527,14.2616379746,0.0,10.0,0.0,0.0,0.0,10.0,0.0,0.0,0.0,10.0,0.0122505410144,0.0147805440499,0.00479368996214,1.0,0.0,0.0,0.0,1.0,0.0,0.0,0.0,1.0,-0.0802331542969,0.101788330078,10.1345251465,0.1,0.0,0.0,0.0,0.1,0.0,0.0,0.0,0.1
1452010250156542291,131,1452010250153503894,robocape,0.0386936883408,11.9043004801,14.2440440266,0.0,10.0,0.0,0.0,0.0,10.0,0.0,0.0,0.0,10.0,0.00918790576077,0.0137152796139,0.00452737385313,1.0,0.0,0.0,0.0,1.0,0.0,0.0,0.0,1.0,-0.0814306640625,0.132923583984,10.1536853027,0.1,0.0,0.0,0.0,0.1,0.0,0.0,0.0,0.1
1452010250189732125,132,1452010250186706066,robocape,0.0490666185167,11.9068979491,14.2262538169,0.0,10.0,0.0,0.0,0.0,10.0,0.0,0.0,0.0,10.0,0.00599211245268,0.0126500151779,0.00439421579863,1.0,0.0,0.0,0.0,1.0,0.0,0.0,0.0,1.0,-0.0706530761719,0.146096191406,10.1129699707,0.1,0.0,0.0,0.0,0.1,0.0,0.0,0.0,0.1
1452010250222181625,133,1452010250219039916,robocape,0.0507837051513,11.9077449965,14.2072377863,0.0,10.0,0.0,0.0,0.0,10.0,0.0,0.0,0.0,10.0,0.00159789665405,0.0117179087963,0.00372842552611,1.0,0.0,0.0,0.0,1.0,0.0,0.0,0.0,1.0,-0.0946032714844,0.137713623047,10.1285375977,0.1,0.0,0.0,0.0,0.1,0.0,0.0,0.0,0.1
1452010250256570250,134,1452010250253508090,robocape,0.0467597086478,11.9068420681,14.1875127223,0.0,10.0,0.0,0.0,0.0,10.0,0.0,0.0,0.0,10.0,-0.00133158054504,0.0107858024148,0.0033289513626,1.0,0.0,0.0,0.0,1.0,0.0,0.0,0.0,1.0,-0.0718505859375,0.136516113281,10.1249450684,0.1,0.0,0.0,0.0,0.1,0.0,0.0,0.0,0.1
1452010250288952000,135,1452010250285861015,robocape,0.0388341681239,11.9051960679,14.167325854,0.0,10.0,0.0,0.0,0.0,10.0,0.0,0.0,0.0,10.0,-0.0033289513626,0.0103863282513,0.00306263525359,1.0,0.0,0.0,0.0,1.0,0.0,0.0,0.0,1.0,-0.0838256835938,0.0826281738281,10.1093774414,0.1,0.0,0.0,0.0,0.1,0.0,0.0,0.0,0.1
1452010250323822541,136,1452010250320244073,robocape,0.0315417942707,11.9035543422,14.147697292,0.0,10.0,0.0,0.0,0.0,10.0,0.0,0.0,0.0,10.0,-0.00306263525359,0.0103863282513,0.0033289513626,1.0,0.0,0.0,0.0,1.0,0.0,0.0,0.0,1.0,-0.0778381347656,0.0622705078125,10.1333276367,0.1,0.0,0.0,0.0,0.1,0.0,0.0,0.0,0.1
1452010250357093666,137,1452010250353697061,robocape,0.0284875260153,11.9029234044,14.1288743463,0.0,10.0,0.0,0.0,0.0,10.0,0.0,0.0,0.0,10.0,-0.000932106381528,0.0109189604693,0.00372842552611,1.0,0.0,0.0,0.0,1.0,0.0,0.0,0.0,1.0,-0.0610729980469,0.0323327636719,10.1441052246,0.1,0.0,0.0,0.0,0.1,0.0,0.0,0.0,0.1
1452010250389341833,138,1452010250385921001,robocape,0.0321476351698,11.9045642844,14.1105883105,0.0,10.0,0.0,0.0,0.0,10.0,0.0,0.0,0.0,10.0,0.00253000303558,0.0121173829599,0.00399474163512,1.0,0.0,0.0,0.0,1.0,0.0,0.0,0.0,1.0,-0.0634680175781,0.0395178222656,10.1453027344,0.1,0.0,0.0,0.0,0.1,0.0,0.0,0.0,0.1
1452010250425662708,139,1452010250420934915,robocape,0.0396144513307,11.9059636083,14.0923543845,0.0,10.0,0.0,0.0,0.0,10.0,0.0,0.0,0.0,10.0,0.00452737385313,0.0119842249054,0.00399474163512,1.0,0.0,0.0,0.0,1.0,0.0,0.0,0.0,1.0,-0.0682580566406,0.076640625,10.1393151855,0.1,0.0,0.0,0.0,0.1,0.0,0.0,0.0,0.1
1452010250459745625,140,1452010250454060077,robocape,0.0472722351038,11.9081252356,14.0738999826,0.0,10.0,0.0,0.0,0.0,10.0,0.0,0.0,0.0,10.0,0.00466053190764,0.0123836990689,0.00386158358061,1.0,0.0,0.0,0.0,1.0,0.0,0.0,0.0,1.0,-0.0694555664063,0.0981958007813,10.1141674805,0.1,0.0,0.0,0.0,0.1,0.0,0.0,0.0,0.1
1452010250491504291,141,1452010250486737966,robocape,0.0518223471284,11.9092847991,14.0552415854,0.0,10.0,0.0,0.0,0.0,10.0,0.0,0.0,0.0,10.0,0.00306263525359,0.0118510668509,0.00372842552611,1.0,0.0,0.0,0.0,1.0,0.0,0.0,0.0,1.0,-0.0922082519531,0.113763427734,10.132130127,0.1,0.0,0.0,0.0,0.1,0.0,0.0,0.0,0.1
1452010250527504416,142,1452010250523812055,robocape,0.0524559024085,11.9091953552,14.0361254404,0.0,10.0,0.0,0.0,0.0,10.0,0.0,0.0,0.0,10.0,0.00106526443603,0.0111852765783,0.0034621094171,1.0,0.0,0.0,0.0,1.0,0.0,0.0,0.0,1.0,-0.0778381347656,0.0993933105469,10.1249450684,0.1,0.0,0.0,0.0,0.1,0.0,0.0,0.0,0.1
1452010250559230125,143,1452010250556179046,robocape,0.0521298920375,11.9096111905,14.0173021369,0.0,10.0,0.0,0.0,0.0,10.0,0.0,0.0,0.0,10.0,0.000532632218016,0.0114515926873,0.00359526747161,1.0,0.0,0.0,0.0,1.0,0.0,0.0,0.0,1.0,-0.0742456054688,0.0778381347656,10.1596728516,0.1,0.0,0.0,0.0,0.1,0.0,0.0,0.0,0.1
1452010250592442958,144,1452010250589356899,robocape,0.0534386518292,11.9100288365,13.9990360224,0.0,10.0,0.0,0.0,0.0,10.0,0.0,0.0,0.0,10.0,0.00133158054504,0.0114515926873,0.00386158358061,1.0,0.0,0.0,0.0,1.0,0.0,0.0,0.0,1.0,-0.0730480957031,0.0706530761719,10.1333276367,0.1,0.0,0.0,0.0,0.1,0.0,0.0,0.0,0.1
1452010250626335833,145,1452010250622586011,robocape,0.0583555636382,11.9117103427,13.9810586585,0.0,10.0,0.0,0.0,0.0,10.0,0.0,0.0,0.0,10.0,0.0031957933081,0.0121173829599,0.00399474163512,1.0,0.0,0.0,0.0,1.0,0.0,0.0,0.0,1.0,-0.0634680175781,0.0658630371094,10.157277832,0.1,0.0,0.0,0.0,0.1,0.0,0.0,0.0,0.1
1452010250659767250,146,1452010250656004905,robocape,0.0663670103905,11.9141501774,13.9633750452,0.0,10.0,0.0,0.0,0.0,10.0,0.0,0.0,0.0,10.0,0.00479368996214,0.0125168571234,0.00412789968962,1.0,0.0,0.0,0.0,1.0,0.0,0.0,0.0,1.0,-0.0646655273438,0.0694555664063,10.152487793,0.1,0.0,0.0,0.0,0.1,0.0,0.0,0.0,0.1
1452010250692955333,147,1452010250689472913,robocape,0.0743156970397,11.9163448519,13.9454808781,0.0,10.0,0.0,0.0,0.0,10.0,0.0,0.0,0.0,10.0,0.00479368996214,0.0123836990689,0.00399474163512,1.0,0.0,0.0,0.0,1.0,0.0,0.0,0.0,1.0,-0.0718505859375,0.0874182128906,10.1500927734,0.1,0.0,0.0,0.0,0.1,0.0,0.0,0.0,0.1
1452010250726481417,148,1452010250722755908,robocape,0.0825620167761,11.9182883859,13.9278883388,0.0,10.0,0.0,0.0,0.0,10.0,0.0,0.0,0.0,10.0,0.00492684801665,0.0122505410144,0.00412789968962,1.0,0.0,0.0,0.0,1.0,0.0,0.0,0.0,1.0,-0.0706530761719,0.076640625,10.1476977539,0.1,0.0,0.0,0.0,0.1,0.0,0.0,0.0,0.1
1452010250758842333,149,1452010250755654096,robocape,0.0894750546494,11.9204884362,13.9100775213,0.0,10.0,0.0,0.0,0.0,10.0,0.0,0.0,0.0,10.0,0.00426105774413,0.0123836990689,0.00399474163512,1.0,0.0,0.0,0.0,1.0,0.0,0.0,0.0,1.0,-0.0802331542969,0.0874182128906,10.2674487305,0.1,0.0,0.0,0.0,0.1,0.0,0.0,0.0,0.1
1452010250799161375,150,1452010250788666963,robocape,0.0920657140288,11.9211786032,13.8923194346,0.0,10.0,0.0,0.0,0.0,10.0,0.0,0.0,0.0,10.0,0.00199737081756,0.0115847507418,0.00399474163512,1.0,0.0,0.0,0.0,1.0,0.0,0.0,0.0,1.0,-0.0826281738281,0.111368408203,10.1225500488,0.1,0.0,0.0,0.0,0.1,0.0,0.0,0.0,0.1
1452010250825127333,151,1452010250821919918,robocape,0.0901280514033,11.9211292861,13.8735822262,0.0,10.0,0.0,0.0,0.0,10.0,0.0,0.0,0.0,10.0,-0.000266316109008,0.0111852765783,0.0034621094171,1.0,0.0,0.0,0.0,1.0,0.0,0.0,0.0,1.0,-0.0658630371094,0.0993933105469,10.1081799316,0.1,0.0,0.0,0.0,0.1,0.0,0.0,0.0,0.1
1452010250858655875,152,1452010250855489015,robocape,0.085259189853,11.920071216,13.8554063435,0.0,10.0,0.0,0.0,0.0,10.0,0.0,0.0,0.0,10.0,-0.00186421276306,0.0106526443603,0.00372842552611,1.0,0.0,0.0,0.0,1.0,0.0,0.0,0.0,1.0,-0.0682580566406,0.0718505859375,10.1225500488,0.1,0.0,0.0,0.0,0.1,0.0,0.0,0.0,0.1
1452010250891802458,153,1452010250888667106,robocape,0.0816194309439,11.9192782258,13.8370152561,0.0,10.0,0.0,0.0,0.0,10.0,0.0,0.0,0.0,10.0,-0.00119842249054,0.0107858024148,0.00359526747161,1.0,0.0,0.0,0.0,1.0,0.0,0.0,0.0,1.0,-0.0634680175781,0.0598754882813,10.1512902832,0.1,0.0,0.0,0.0,0.1,0.0,0.0,0.0,0.1
1452010250925016625,154,1452010250921907901,robocape,0.0821049223531,11.9195003093,13.8189164932,0.0,10.0,0.0,0.0,0.0,10.0,0.0,0.0,0.0,10.0,0.000932106381528,0.0113184346328,0.00372842552611,1.0,0.0,0.0,0.0,1.0,0.0,0.0,0.0,1.0,-0.0634680175781,0.0383203125,10.1632653809,0.1,0.0,0.0,0.0,0.1,0.0,0.0,0.0,0.1
1452010250958303792,155,1452010250955193996,robocape,0.0882842145773,11.9212365962,13.8013621985,0.0,10.0,0.0,0.0,0.0,10.0,0.0,0.0,0.0,10.0,0.00386158358061,0.0121173829599,0.00399474163512,1.0,0.0,0.0,0.0,1.0,0.0,0.0,0.0,1.0,-0.0526904296875,0.0227526855469,10.1429077148,0.1,0.0,0.0,0.0,0.1,0.0,0.0,0.0,0.1
1452010250991539125,156,1452010250988461971,robocape,0.100601462785,11.9247394793,13.7840943759,0.0,10.0,0.0,0.0,0.0,10.0,0.0,0.0,0.0,10.0,0.00705737688871,0.0130494893414,0.00412789968962,1.0,0.0,0.0,0.0,1.0,0.0,0.0,0.0,1.0,-0.0646655273438,0.0514929199219,10.1632653809,0.1,0.0,0.0,0.0,0.1,0.0,0.0,0.0,0.1
1452010251024731917,157,1452010251021435022,robocape,0.11579986045,11.9287416181,13.7673784222,0.0,10.0,0.0,0.0,0.0,10.0,0.0,0.0,0.0,10.0,0.00852211548825,0.0133158054504,0.00439421579863,1.0,0.0,0.0,0.0,1.0,0.0,0.0,0.0,1.0,-0.076640625,0.0730480957031,10.1488952637,0.1,0.0,0.0,0.0,0.1,0.0,0.0,0.0,0.1
1452010251057640500,158,1452010251054547071,robocape,0.130266791073,11.9329894398,13.7509556182,0.0,10.0,0.0,0.0,0.0,10.0,0.0,0.0,0.0,10.0,0.00812264132474,0.0134489635049,0.00452737385313,1.0,0.0,0.0,0.0,1.0,0.0,0.0,0.0,1.0,-0.0754431152344,0.108973388672,10.1285375977,0.1,0.0,0.0,0.0,0.1,0.0,0.0,0.0,0.1
1452010251091848917,159,1452010251088792085,robocape,0.140037754801,11.93522787,13.7340756146,0.0,10.0,0.0,0.0,0.0,10.0,0.0,0.0,0.0,10.0,0.00572579634367,0.0123836990689,0.00426105774413,1.0,0.0,0.0,0.0,1.0,0.0,0.0,0.0,1.0,-0.0946032714844,0.137713623047,10.1081799316,0.1,0.0,0.0,0.0,0.1,0.0,0.0,0.0,0.1
1452010251124729042,160,1452010251121459960,robocape,0.142982352448,11.9364706374,13.7162139059,0.0,10.0,0.0,0.0,0.0,10.0,0.0,0.0,0.0,10.0,0.00226368692657,0.0118510668509,0.00372842552611,1.0,0.0,0.0,0.0,1.0,0.0,0.0,0.0,1.0,-0.0802331542969,0.126936035156,10.1345251465,0.1,0.0,0.0,0.0,0.1,0.0,0.0,0.0,0.1
1452010251156367583,161,1452010251153003931,robocape,0.143842138769,11.9372167077,13.6981399689,0.0,10.0,0.0,0.0,0.0,10.0,0.0,0.0,0.0,10.0,0.00119842249054,0.0115847507418,0.00359526747161,1.0,0.0,0.0,0.0,1.0,0.0,0.0,0.0,1.0,-0.0730480957031,0.0730480957031,10.1476977539,0.1,0.0,0.0,0.0,0.1,0.0,0.0,0.0,0.1
1452010251190999708,162,1452010251187913894,robocape,0.146735950139,11.9379708488,13.6801102268,0.0,10.0,0.0,0.0,0.0,10.0,0.0,0.0,0.0,10.0,0.00226368692657,0.0115847507418,0.00359526747161,1.0,0.0,0.0,0.0,1.0,0.0,0.0,0.0,1.0,-0.0826281738281,0.0658630371094,10.1632653809,0.1,0.0,0.0,0.0,0.1,0.0,0.0,0.0,0.1
1452010251223032375,163,1452010251219794988,robocape,0.150644109121,11.9392342437,13.6621186112,0.0,10.0,0.0,0.0,0.0,10.0,0.0,0.0,0.0,10.0,0.00279631914458,0.0118510668509,0.00359526747161,1.0,0.0,0.0,0.0,1.0,0.0,0.0,0.0,1.0,-0.0730480957031,0.0838256835938,10.136920166,0.1,0.0,0.0,0.0,0.1,0.0,0.0,0.0,0.1
1452010251255506750,164,1452010251252429008,robocape,0.152371401173,11.9402406438,13.6446797956,0.0,10.0,0.0,0.0,0.0,10.0,0.0,0.0,0.0,10.0,0.00159789665405,0.0117179087963,0.00386158358061,1.0,0.0,0.0,0.0,1.0,0.0,0.0,0.0,1.0,-0.0646655273438,0.1149609375,10.1189575195,0.1,0.0,0.0,0.0,0.1,0.0,0.0,0.0,0.1
1452010251289313125,165,1452010251286310911,robocape,0.151509147287,11.9397453104,13.6270366534,0.0,10.0,0.0,0.0,0.0,10.0,0.0,0.0,0.0,10.0,0.000266316109008,0.0109189604693,0.00372842552611,1.0,0.0,0.0,0.0,1.0,0.0,0.0,0.0,1.0,-0.0742456054688,0.09580078125,10.1189575195,0.1,0.0,0.0,0.0,0.1,0.0,0.0,0.0,0.1
1452010251321950750,166,1452010251318835973,robocape,0.149276226461,11.9397658151,13.6089156151,0.0,10.0,0.0,0.0,0.0,10.0,0.0,0.0,0.0,10.0,-0.000399474163512,0.0111852765783,0.0034621094171,1.0,0.0,0.0,0.0,1.0,0.0,0.0,0.0,1.0,-0.0658630371094,0.086220703125,10.1285375977,0.1,0.0,0.0,0.0,0.1,0.0,0.0,0.0,0.1
1452010251355137917,167,1452010251352056980,robocape,0.147919570336,11.9400375459,13.5913458306,0.0,10.0,0.0,0.0,0.0,10.0,0.0,0.0,0.0,10.0,0.0,0.0113184346328,0.00372842552611,1.0,0.0,0.0,0.0,1.0,0.0,0.0,0.0,1.0,-0.067060546875,0.05748046875,10.157277832,0.1,0.0,0.0,0.0,0.1,0.0,0.0,0.0,0.1
1452010251388656917,168,1452010251385520935,robocape,0.149922956964,11.9408180318,13.5740711283,0.0,10.0,0.0,0.0,0.0,10.0,0.0,0.0,0.0,10.0,0.00173105470855,0.0115847507418,0.00386158358061,1.0,0.0,0.0,0.0,1.0,0.0,0.0,0.0,1.0,-0.0658630371094,0.0514929199219,10.1441052246,0.1,0.0,0.0,0.0,0.1,0.0,0.0,0.0,0.1
1452010251422255792,169,1452010251418961048,robocape,0.15716376564,11.942603506,13.557600646,0.0,10.0,0.0,0.0,0.0,10.0,0.0,0.0,0.0,10.0,0.00439421579863,0.0121173829599,0.00426105774413,1.0,0.0,0.0,0.0,1.0,0.0,0.0,0.0,1.0,-0.0622705078125,0.0431103515625,10.1333276367,0.1,0.0,0.0,0.0,0.1,0.0,0.0,0.0,0.1
1452010251455560500,170,1452010251452531099,robocape,0.168551043042,11.9456646664,13.5403947632,0.0,10.0,0.0,0.0,0.0,10.0,0.0,0.0,0.0,10.0,0.0066579027252,0.0127831732324,0.00386158358061,1.0,0.0,0.0,0.0,1.0,0.0,0.0,0.0,1.0,-0.0634680175781,0.0550854492188,10.1309326172,0.1,0.0,0.0,0.0,0.1,0.0,0.0,0.0,0.1
1452010251488572042,171,1452010251485327959,robocape,0.182111598714,11.9507271855,13.5239813981,0.0,10.0,0.0,0.0,0.0,10.0,0.0,0.0,0.0,10.0,0.00772316716123,0.0138484376684,0.00426105774413,1.0,0.0,0.0,0.0,1.0,0.0,0.0,0.0,1.0,-0.0694555664063,0.0910107421875,10.1261425781,0.1,0.0,0.0,0.0,0.1,0.0,0.0,0.0,0.1
1452010251521765709,172,1452010251518452882,robocape,0.194945002809,11.9545256496,13.507873756,0.0,10.0,0.0,0.0,0.0,10.0,0.0,0.0,0.0,10.0,0.00732369299772,0.0131826473959,0.00439421579863,1.0,0.0,0.0,0.0,1.0,0.0,0.0,0.0,1.0,-0.0850231933594,0.0934057617188,10.1381176758,0.1,0.0,0.0,0.0,0.1,0.0,0.0,0.0,0.1
1452010251554947375,173,1452010251551919937,robocape,0.205115014578,11.9573232975,13.491298582,0.0,10.0,0.0,0.0,0.0,10.0,0.0,0.0,0.0,10.0,0.00599211245268,0.0126500151779,0.00412789968962,1.0,0.0,0.0,0.0,1.0,0.0,0.0,0.0,1.0,-0.0886157226563,0.111368408203,10.1297351074,0.1,0.0,0.0,0.0,0.1,0.0,0.0,0.0,0.1
1452010251588470209,174,1452010251585293054,robocape,0.209379237712,11.9588632632,13.4745103021,0.0,10.0,0.0,0.0,0.0,10.0,0.0,0.0,0.0,10.0,0.00292947719909,0.0119842249054,0.00399474163512,1.0,0.0,0.0,0.0,1.0,0.0,0.0,0.0,1.0,-0.0694555664063,0.118553466797,10.1225500488,0.1,0.0,0.0,0.0,0.1,0.0,0.0,0.0,0.1
1452010251622753500,175,1452010251619210004,robocape,0.208096035977,11.9589092155,13.4567433062,0.0,10.0,0.0,0.0,0.0,10.0,0.0,0.0,0.0,10.0,0.000133158054504,0.0111852765783,0.0034621094171,1.0,0.0,0.0,0.0,1.0,0.0,0.0,0.0,1.0,-0.0790356445313,0.128133544922,10.1105749512,0.1,0.0,0.0,0.0,0.1,0.0,0.0,0.0,0.1
1452010251655956834,176,1452010251652884960,robocape,0.202344179631,11.9577124206,13.4382542316,0.0,10.0,0.0,0.0,0.0,10.0,0.0,0.0,0.0,10.0,-0.00213052887206,0.0105194863058,0.00306263525359,1.0,0.0,0.0,0.0,1.0,0.0,0.0,0.0,1.0,-0.0694555664063,0.104183349609,10.1297351074,0.1,0.0,0.0,0.0,0.1,0.0,0.0,0.0,0.1
1452010251688436542,177,1452010251685434103,robocape,0.194629833767,11.9557644368,13.4200667255,0.0,10.0,0.0,0.0,0.0,10.0,0.0,0.0,0.0,10.0,-0.0031957933081,0.0101200121423,0.0031957933081,1.0,0.0,0.0,0.0,1.0,0.0,0.0,0.0,1.0,-0.0538879394531,0.0754431152344,10.1297351074,0.1,0.0,0.0,0.0,0.1,0.0,0.0,0.0,0.1
1452010251722009167,178,1452010251718911886,robocape,0.187948746478,11.9543299045,13.4019166093,0.0,10.0,0.0,0.0,0.0,10.0,0.0,0.0,0.0,10.0,-0.00266316109008,0.0103863282513,0.0031957933081,1.0,0.0,0.0,0.0,1.0,0.0,0.0,0.0,1.0,-0.0598754882813,0.0538879394531,10.1488952637,0.1,0.0,0.0,0.0,0.1,0.0,0.0,0.0,0.1
1452010251755247042,179,1452010251752116918,robocape,0.184636968766,11.9539091357,13.3840579037,0.0,10.0,0.0,0.0,0.0,10.0,0.0,0.0,0.0,10.0,-0.000932106381528,0.0109189604693,0.0033289513626,1.0,0.0,0.0,0.0,1.0,0.0,0.0,0.0,1.0,-0.0586779785156,0.0514929199219,10.1500927734,0.1,0.0,0.0,0.0,0.1,0.0,0.0,0.0,0.1
1452010251788932625,180,1452010251785887002,robocape,0.186625264904,11.9549932944,13.3672558158,0.0,10.0,0.0,0.0,0.0,10.0,0.0,0.0,0.0,10.0,0.00173105470855,0.0117179087963,0.00386158358061,1.0,0.0,0.0,0.0,1.0,0.0,0.0,0.0,1.0,-0.0658630371094,0.0323327636719,10.136920166,0.1,0.0,0.0,0.0,0.1,0.0,0.0,0.0,0.1
1452010251823003917,181,1452010251819931983,robocape,0.192675790892,11.9568400545,13.350490139,0.0,10.0,0.0,0.0,0.0,10.0,0.0,0.0,0.0,10.0,0.00386158358061,0.0121173829599,0.00386158358061,1.0,0.0,0.0,0.0,1.0,0.0,0.0,0.0,1.0,-0.0658630371094,0.0299377441406,10.172845459,0.1,0.0,0.0,0.0,0.1,0.0,0.0,0.0,0.1
1452010251855148917,182,1452010251851896047,robocape,0.203542719027,11.9599513574,13.3337580795,0.0,10.0,0.0,0.0,0.0,10.0,0.0,0.0,0.0,10.0,0.00639158661619,0.0127831732324,0.00386158358061,1.0,0.0,0.0,0.0,1.0,0.0,0.0,0.0,1.0,-0.0694555664063,0.0359252929688,10.1596728516,0.1,0.0,0.0,0.0,0.1,0.0,0.0,0.0,0.1
1452010251888367459,183,1452010251885209083,robocape,0.21774719853,11.9648213386,13.3173104526,0.0,10.0,0.0,0.0,0.0,10.0,0.0,0.0,0.0,10.0,0.00812264132474,0.0137152796139,0.00399474163512,1.0,0.0,0.0,0.0,1.0,0.0,0.0,0.0,1.0,-0.0682580566406,0.05748046875,10.1381176758,0.1,0.0,0.0,0.0,0.1,0.0,0.0,0.0,0.1
1452010251921560375,184,1452010251918490886,robocape,0.232038298657,11.9686757022,13.3014225454,0.0,10.0,0.0,0.0,0.0,10.0,0.0,0.0,0.0,10.0,0.00812264132474,0.0131826473959,0.00426105774413,1.0,0.0,0.0,0.0,1.0,0.0,0.0,0.0,1.0,-0.0742456054688,0.0898132324219,10.136920166,0.1,0.0,0.0,0.0,0.1,0.0,0.0,0.0,0.1
1452010251954855417,185,1452010251951806068,robocape,0.241739224744,11.9710166688,13.2855794789,0.0,10.0,0.0,0.0,0.0,10.0,0.0,0.0,0.0,10.0,0.00572579634367,0.0123836990689,0.00426105774413,1.0,0.0,0.0,0.0,1.0,0.0,0.0,0.0,1.0,-0.0850231933594,0.107775878906,10.1273400879,0.1,0.0,0.0,0.0,0.1,0.0,0.0,0.0,0.1
1452010251988626875,186,1452010251985480070,robocape,0.243143157133,11.9718552723,13.2690078012,0.0,10.0,0.0,0.0,0.0,10.0,0.0,0.0,0.0,10.0,0.00146473859954,0.0115847507418,0.00386158358061,1.0,0.0,0.0,0.0,1.0,0.0,0.0,0.0,1.0,-0.086220703125,0.120948486328,10.1632653809,0.1,0.0,0.0,0.0,0.1,0.0,0.0,0.0,0.1
1452010252021599875,187,1452010252018425941,robocape,0.239511827204,11.9714533267,13.2514535652,0.0,10.0,0.0,0.0,0.0,10.0,0.0,0.0,0.0,10.0,-0.00106526443603,0.0109189604693,0.0033289513626,1.0,0.0,0.0,0.0,1.0,0.0,0.0,0.0,1.0,-0.0694555664063,0.086220703125,10.1536853027,0.1,0.0,0.0,0.0,0.1,0.0,0.0,0.0,0.1
1452010252055013042,188,1452010252051949024,robocape,0.235584188796,11.9705597442,13.2336859762,0.0,10.0,0.0,0.0,0.0,10.0,0.0,0.0,0.0,10.0,-0.00119842249054,0.0106526443603,0.0031957933081,1.0,0.0,0.0,0.0,1.0,0.0,0.0,0.0,1.0,-0.0694555664063,0.0730480957031,10.136920166,0.1,0.0,0.0,0.0,0.1,0.0,0.0,0.0,0.1
1452010252089135042,189,1452010252085623025,robocape,0.23385843153,11.9706689702,13.2167205282,0.0,10.0,0.0,0.0,0.0,10.0,0.0,0.0,0.0,10.0,-0.000133158054504,0.0111852765783,0.00359526747161,1.0,0.0,0.0,0.0,1.0,0.0,0.0,0.0,1.0,-0.0694555664063,0.0455053710938,10.1441052246,0.1,0.0,0.0,0.0,0.1,0.0,0.0,0.0,0.1
1452010252122558334,190,1452010252118870019,robocape,0.236762403694,11.9720410585,13.2000441848,0.0,10.0,0.0,0.0,0.0,10.0,0.0,0.0,0.0,10.0,0.00226368692657,0.0118510668509,0.00372842552611,1.0,0.0,0.0,0.0,1.0,0.0,0.0,0.0,1.0,-0.0706530761719,0.01916015625,10.1453027344,0.1,0.0,0.0,0.0,0.1,0.0,0.0,0.0,0.1
1452010252155566459,191,1452010252152118921,robocape,0.244448001774,11.9749126262,13.1844233354,0.0,10.0,0.0,0.0,0.0,10.0,0.0,0.0,0.0,10.0,0.00466053190764,0.0126500151779,0.00426105774413,1.0,0.0,0.0,0.0,1.0,0.0,0.0,0.0,1.0,-0.05748046875,0.0514929199219,10.1872155762,0.1,0.0,0.0,0.0,0.1,0.0,0.0,0.0,0.1
1452010252188545709,192,1452010252185280084,robocape,0.256185745393,11.9785425445,13.168837351,0.0,10.0,0.0,0.0,0.0,10.0,0.0,0.0,0.0,10.0,0.0067910607797,0.0130494893414,0.00426105774413,1.0,0.0,0.0,0.0,1.0,0.0,0.0,0.0,1.0,-0.0586779785156,0.0586779785156,10.136920166,0.1,0.0,0.0,0.0,0.1,0.0,0.0,0.0,0.1
1452010252221575709,193,1452010252218430995,robocape,0.266276791613,11.9816756383,13.1527777791,0.0,10.0,0.0,0.0,0.0,10.0,0.0,0.0,0.0,10.0,0.00599211245268,0.0127831732324,0.00399474163512,1.0,0.0,0.0,0.0,1.0,0.0,0.0,0.0,1.0,-0.05748046875,0.111368408203,10.132130127,0.1,0.0,0.0,0.0,0.1,0.0,0.0,0.0,0.1
1452010252254952292,194,1452010252251840114,robocape,0.27229265662,11.9832974249,13.136762095,0.0,10.0,0.0,0.0,0.0,10.0,0.0,0.0,0.0,10.0,0.00386158358061,0.0119842249054,0.00399474163512,1.0,0.0,0.0,0.0,1.0,0.0,0.0,0.0,1.0,-0.0682580566406,0.1149609375,10.132130127,0.1,0.0,0.0,0.0,0.1,0.0,0.0,0.0,0.1
1452010252288763667,195,1452010252285523891,robocape,0.275455688817,11.984672082,13.1205256543,0.0,10.0,0.0,0.0,0.0,10.0,0.0,0.0,0.0,10.0,0.00239684498107,0.0118510668509,0.00386158358061,1.0,0.0,0.0,0.0,1.0,0.0,0.0,0.0,1.0,-0.0634680175781,0.0922082519531,10.1345251465,0.1,0.0,0.0,0.0,0.1,0.0,0.0,0.0,0.1
1452010252321656167,196,1452010252318571090,robocape,0.277908679758,11.9862961392,13.1045793073,0.0,10.0,0.0,0.0,0.0,10.0,0.0,0.0,0.0,10.0,0.00199737081756,0.0119842249054,0.00399474163512,1.0,0.0,0.0,0.0,1.0,0.0,0.0,0.0,1.0,-0.0694555664063,0.09580078125,10.1393151855,0.1,0.0,0.0,0.0,0.1,0.0,0.0,0.0,0.1
1452010252355086959,197,1452010252352014064,robocape,0.278330105542,11.9876693914,13.0886681648,0.0,10.0,0.0,0.0,0.0,10.0,0.0,0.0,0.0,10.0,0.000932106381528,0.0118510668509,0.00399474163512,1.0,0.0,0.0,0.0,1.0,0.0,0.0,0.0,1.0,-0.076640625,0.0910107421875,10.1476977539,0.1,0.0,0.0,0.0,0.1,0.0,0.0,0.0,0.1
1452010252388637959,198,1452010252385365962,robocape,0.275548226434,11.9875479601,13.0720311217,0.0,10.0,0.0,0.0,0.0,10.0,0.0,0.0,0.0,10.0,-0.00066579027252,0.0110521185238,0.00359526747161,1.0,0.0,0.0,0.0,1.0,0.0,0.0,0.0,1.0,-0.0730480957031,0.0838256835938,10.1213525391,0.1,0.0,0.0,0.0,0.1,0.0,0.0,0.0,0.1
1452010252421718126,199,1452010252418654918,robocape,0.269875498347,11.9871866112,13.0549171372,0.0,10.0,0.0,0.0,0.0,10.0,0.0,0.0,0.0,10.0,-0.00213052887206,0.0109189604693,0.0033289513626,1.0,0.0,0.0,0.0,1.0,0.0,0.0,0.0,1.0,-0.0742456054688,0.0778381347656,10.1453027344,0.1,0.0,0.0,0.0,0.1,0.0,0.0,0.0,0.1
1452010252456006417,200,1452010252452970027,robocape,0.263147993616,11.9863322957,13.0375867413,0.0,10.0,0.0,0.0,0.0,10.0,0.0,0.0,0.0,10.0,-0.00266316109008,0.0106526443603,0.0031957933081,1.0,0.0,0.0,0.0,1.0,0.0,0.0,0.0,1.0,-0.0790356445313,0.0646655273438,10.1405126953,0.1,0.0,0.0,0.0,0.1,0.0,0.0,0.0,0.1
1452010252492792042,201,1452010252489620923,robocape,0.257759381645,11.9854825851,13.0205516496,0.0,10.0,0.0,0.0,0.0,10.0,0.0,0.0,0.0,10.0,-0.00199737081756,0.0106526443603,0.0033289513626,1.0,0.0,0.0,0.0,1.0,0.0,0.0,0.0,1.0,-0.0706530761719,0.0407153320313,10.1680554199,0.1,0.0,0.0,0.0,0.1,0.0,0.0,0.0,0.1
1452010252523971709,202,1452010252520936965,robocape,0.254922414562,11.9858987704,13.0035471902,0.0,10.0,0.0,0.0,0.0,10.0,0.0,0.0,0.0,10.0,-0.00066579027252,0.0113184346328,0.0033289513626,1.0,0.0,0.0,0.0,1.0,0.0,0.0,0.0,1.0,-0.0514929199219,0.0203576660156,10.1488952637,0.1,0.0,0.0,0.0,0.1,0.0,0.0,0.0,0.1
1452010252555318834,203,1452010252552294969,robocape,0.256677077849,11.9878112188,12.9878544742,0.0,10.0,0.0,0.0,0.0,10.0,0.0,0.0,0.0,10.0,0.00159789665405,0.0121173829599,0.00399474163512,1.0,0.0,0.0,0.0,1.0,0.0,0.0,0.0,1.0,-0.0634680175781,0.028740234375,10.1560803223,0.1,0.0,0.0,0.0,0.1,0.0,0.0,0.0,0.1
1452010252590477792,204,1452010252587208032,robocape,0.264431674184,11.9909753899,12.9729623473,0.0,10.0,0.0,0.0,0.0,10.0,0.0,0.0,0.0,10.0,0.00466053190764,0.0127831732324,0.00439421579863,1.0,0.0,0.0,0.0,1.0,0.0,0.0,0.0,1.0,-0.0598754882813,0.0419128417969,10.1704504395,0.1,0.0,0.0,0.0,0.1,0.0,0.0,0.0,0.1
1452010252621830292,205,1452010252618731975,robocape,0.273031501895,11.9939011886,12.9573383641,0.0,10.0,0.0,0.0,0.0,10.0,0.0,0.0,0.0,10.0,0.00519316412565,0.0126500151779,0.00399474163512,1.0,0.0,0.0,0.0,1.0,0.0,0.0,0.0,1.0,-0.0706530761719,0.0730480957031,10.1632653809,0.1,0.0,0.0,0.0,0.1,0.0,0.0,0.0,0.1
1452010252655295042,206,1452010252652290105,robocape,0.280043442281,11.9963273631,12.9414958101,0.0,10.0,0.0,0.0,0.0,10.0,0.0,0.0,0.0,10.0,0.00439421579863,0.0123836990689,0.00386158358061,1.0,0.0,0.0,0.0,1.0,0.0,0.0,0.0,1.0,-0.0706530761719,0.0802331542969,10.1632653809,0.1,0.0,0.0,0.0,0.1,0.0,0.0,0.0,0.1
1452010252688510334,207,1452010252685365915,robocape,0.285323615129,11.9979952088,12.9259488737,0.0,10.0,0.0,0.0,0.0,10.0,0.0,0.0,0.0,10.0,0.0034621094171,0.0119842249054,0.00399474163512,1.0,0.0,0.0,0.0,1.0,0.0,0.0,0.0,1.0,-0.067060546875,0.0742456054688,10.1441052246,0.1,0.0,0.0,0.0,0.1,0.0,0.0,0.0,0.1
1452010252722198792,208,1452010252719139099,robocape,0.290598317853,11.9996655842,12.9104371107,0.0,10.0,0.0,0.0,0.0,10.0,0.0,0.0,0.0,10.0,0.0034621094171,0.0119842249054,0.00399474163512,1.0,0.0,0.0,0.0,1.0,0.0,0.0,0.0,1.0,-0.0694555664063,0.047900390625,10.1249450684,0.1,0.0,0.0,0.0,0.1,0.0,0.0,0.0,0.1
1452010252755154043,209,1452010252752103090,robocape,0.296682516128,12.0018373104,12.8952141226,0.0,10.0,0.0,0.0,0.0,10.0,0.0,0.0,0.0,10.0,0.00386158358061,0.0122505410144,0.00412789968962,1.0,0.0,0.0,0.0,1.0,0.0,0.0,0.0,1.0,-0.0586779785156,0.0658630371094,10.1512902832,0.1,0.0,0.0,0.0,0.1,0.0,0.0,0.0,0.1
1452010252789421543,210,1452010252786140918,robocape,0.303160434648,12.004019449,12.8795135088,0.0,10.0,0.0,0.0,0.0,10.0,0.0,0.0,0.0,10.0,0.00412789968962,0.0122505410144,0.00386158358061,1.0,0.0,0.0,0.0,1.0,0.0,0.0,0.0,1.0,-0.0754431152344,0.0718505859375,10.1548828125,0.1,0.0,0.0,0.0,0.1,0.0,0.0,0.0,0.1
1452010252822520334,211,1452010252819509029,robocape,0.307292826088,12.0049493684,12.8635979355,0.0,10.0,0.0,0.0,0.0,10.0,0.0,0.0,0.0,10.0,0.00292947719909,0.0115847507418,0.00372842552611,1.0,0.0,0.0,0.0,1.0,0.0,0.0,0.0,1.0,-0.0814306640625,0.0874182128906,10.1441052246,0.1,0.0,0.0,0.0,0.1,0.0,0.0,0.0,0.1
1452010252855310168,212,1452010252852247953,robocape,0.308375215876,12.0056290252,12.8477166949,0.0,10.0,0.0,0.0,0.0,10.0,0.0,0.0,0.0,10.0,0.00133158054504,0.0114515926873,0.00372842552611,1.0,0.0,0.0,0.0,1.0,0.0,0.0,0.0,1.0,-0.0718505859375,0.0910107421875,10.1488952637,0.1,0.0,0.0,0.0,0.1,0.0,0.0,0.0,0.1
1452010252888698834,213,1452010252885476112,robocape,0.305343943047,12.0055595954,12.8316149957,0.0,10.0,0.0,0.0,0.0,10.0,0.0,0.0,0.0,10.0,-0.000798948327024,0.0110521185238,0.00359526747161,1.0,0.0,0.0,0.0,1.0,0.0,0.0,0.0,1.0,-0.0742456054688,0.076640625,10.1476977539,0.1,0.0,0.0,0.0,0.1,0.0,0.0,0.0,0.1
1452010252921643126,214,1452010252918589115,robocape,0.30094526216,12.0052517828,12.8150360205,0.0,10.0,0.0,0.0,0.0,10.0,0.0,0.0,0.0,10.0,-0.00146473859954,0.0109189604693,0.0033289513626,1.0,0.0,0.0,0.0,1.0,0.0,0.0,0.0,1.0,-0.05748046875,0.0347277832031,10.132130127,0.1,0.0,0.0,0.0,0.1,0.0,0.0,0.0,0.1
1452010252955065084,215,1452010252952025890,robocape,0.300820761784,12.0052100755,12.798239385,0.0,10.0,0.0,0.0,0.0,10.0,0.0,0.0,0.0,10.0,0.000798948327024,0.0110521185238,0.0031957933081,1.0,0.0,0.0,0.0,1.0,0.0,0.0,0.0,1.0,-0.0550854492188,0.0311352539063,10.1656604004,0.1,0.0,0.0,0.0,0.1,0.0,0.0,0.0,0.1
1452010252988637209,216,1452010252985575914,robocape,0.306967785017,12.0071557441,12.7835236764,0.0,10.0,0.0,0.0,0.0,10.0,0.0,0.0,0.0,10.0,0.00386158358061,0.0121173829599,0.00426105774413,1.0,0.0,0.0,0.0,1.0,0.0,0.0,0.0,1.0,-0.05748046875,0.0119750976563,10.1644628906,0.1,0.0,0.0,0.0,0.1,0.0,0.0,0.0,0.1
1452010253021485376,217,1452010253018467903,robocape,0.317784413214,12.0103548617,12.7693507358,0.0,10.0,0.0,0.0,0.0,10.0,0.0,0.0,0.0,10.0,0.00625842856169,0.0127831732324,0.00452737385313,1.0,0.0,0.0,0.0,1.0,0.0,0.0,0.0,1.0,-0.0443078613281,0.0359252929688,10.1644628906,0.1,0.0,0.0,0.0,0.1,0.0,0.0,0.0,0.1
1452010253055124043,218,1452010253052119016,robocape,0.329293577369,12.0140602534,12.7549519773,0.0,10.0,0.0,0.0,0.0,10.0,0.0,0.0,0.0,10.0,0.0066579027252,0.0130494893414,0.00439421579863,1.0,0.0,0.0,0.0,1.0,0.0,0.0,0.0,1.0,-0.067060546875,0.0802331542969,10.1273400879,0.1,0.0,0.0,0.0,0.1,0.0,0.0,0.0,0.1
1452010253088593459,219,1452010253085422039,robocape,0.338086942983,12.01651854,12.7398222802,0.0,10.0,0.0,0.0,0.0,10.0,0.0,0.0,0.0,10.0,0.00532632218016,0.0123836990689,0.00399474163512,1.0,0.0,0.0,0.0,1.0,0.0,0.0,0.0,1.0,-0.076640625,0.0790356445313,10.1393151855,0.1,0.0,0.0,0.0,0.1,0.0,0.0,0.0,0.1
1452010253121906668,220,1452010253118428945,robocape,0.342191661533,12.0179772974,12.7242156083,0.0,10.0,0.0,0.0,0.0,10.0,0.0,0.0,0.0,10.0,0.00292947719909,0.0118510668509,0.00372842552611,1.0,0.0,0.0,0.0,1.0,0.0,0.0,0.0,1.0,-0.0742456054688,0.0946032714844,10.1620678711,0.1,0.0,0.0,0.0,0.1,0.0,0.0,0.0,0.1
1452010253155141043,221,1452010253152136087,robocape,0.341977092573,12.018429967,12.7086452467,0.0,10.0,0.0,0.0,0.0,10.0,0.0,0.0,0.0,10.0,0.00066579027252,0.0113184346328,0.00372842552611,1.0,0.0,0.0,0.0,1.0,0.0,0.0,0.0,1.0,-0.0658630371094,0.0802331542969,10.1345251465,0.1,0.0,0.0,0.0,0.1,0.0,0.0,0.0,0.1
1452010253188515209,222,1452010253185332059,robocape,0.341605600746,12.0191514868,12.6923383072,0.0,10.0,0.0,0.0,0.0,10.0,0.0,0.0,0.0,10.0,0.00066579027252,0.0114515926873,0.0033289513626,1.0,0.0,0.0,0.0,1.0,0.0,0.0,0.0,1.0,-0.0682580566406,0.0407153320313,10.1596728516,0.1,0.0,0.0,0.0,0.1,0.0,0.0,0.0,0.1
1452010253221462584,223,1452010253218401908,robocape,0.344646464655,12.0201229299,12.6765815247,0.0,10.0,0.0,0.0,0.0,10.0,0.0,0.0,0.0,10.0,0.00239684498107,0.0115847507418,0.00359526747161,1.0,0.0,0.0,0.0,1.0,0.0,0.0,0.0,1.0,-0.067060546875,0.0275427246094,10.1680554199,0.1,0.0,0.0,0.0,0.1,0.0,0.0,0.0,0.1
1452010253255488626,224,1452010253252121925,robocape,0.35033161,12.0223475106,12.6613679874,0.0,10.0,0.0,0.0,0.0,10.0,0.0,0.0,0.0,10.0,0.00372842552611,0.0122505410144,0.00386158358061,1.0,0.0,0.0,0.0,1.0,0.0,0.0,0.0,1.0,-0.0682580566406,0.0371228027344,10.1536853027,0.1,0.0,0.0,0.0,0.1,0.0,0.0,0.0,0.1
1452010253289117751,225,1452010253285568952,robocape,0.35814890405,12.0248175031,12.6467018859,0.0,10.0,0.0,0.0,0.0,10.0,0.0,0.0,0.0,10.0,0.00479368996214,0.0123836990689,0.00412789968962,1.0,0.0,0.0,0.0,1.0,0.0,0.0,0.0,1.0,-0.0467028808594,0.0634680175781,10.1764379883,0.1,0.0,0.0,0.0,0.1,0.0,0.0,0.0,0.1
1452010253322054709,226,1452010253318650007,robocape,0.364125285058,12.027039576,12.6318121436,0.0,10.0,0.0,0.0,0.0,10.0,0.0,0.0,0.0,10.0,0.00386158358061,0.0122505410144,0.00399474163512,1.0,0.0,0.0,0.0,1.0,0.0,0.0,0.0,1.0,-0.0610729980469,0.0814306640625,10.1453027344,0.1,0.0,0.0,0.0,0.1,0.0,0.0,0.0,0.1
1452010253355103168,227,1452010253351882934,robocape,0.36643340979,12.0277614155,12.6164472999,0.0,10.0,0.0,0.0,0.0,10.0,0.0,0.0,0.0,10.0,0.00199737081756,0.0114515926873,0.00372842552611,1.0,0.0,0.0,0.0,1.0,0.0,0.0,0.0,1.0,-0.0730480957031,0.0790356445313,10.132130127,0.1,0.0,0.0,0.0,0.1,0.0,0.0,0.0,0.1
1452010253388606709,228,1452010253385193109,robocape,0.366602940769,12.0277409592,12.6006055305,0.0,10.0,0.0,0.0,0.0,10.0,0.0,0.0,0.0,10.0,0.000932106381528,0.0110521185238,0.0034621094171,1.0,0.0,0.0,0.0,1.0,0.0,0.0,0.0,1.0,-0.0778381347656,0.0550854492188,10.1500927734,0.1,0.0,0.0,0.0,0.1,0.0,0.0,0.0,0.1
1452010253421572376,229,1452010253418373107,robocape,0.368299250123,12.0282298723,12.5847973828,0.0,10.0,0.0,0.0,0.0,10.0,0.0,0.0,0.0,10.0,0.00173105470855,0.0113184346328,0.0034621094171,1.0,0.0,0.0,0.0,1.0,0.0,0.0,0.0,1.0,-0.0694555664063,0.0167651367188,10.1740429688,0.1,0.0,0.0,0.0,0.1,0.0,0.0,0.0,0.1
1452010253455347626,230,1452010253452099084,robocape,0.37162676995,12.0299715356,12.5695319919,0.0,10.0,0.0,0.0,0.0,10.0,0.0,0.0,0.0,10.0,0.00253000303558,0.0119842249054,0.00372842552611,1.0,0.0,0.0,0.0,1.0,0.0,0.0,0.0,1.0,-0.047900390625,0.0443078613281,10.1620678711,0.1,0.0,0.0,0.0,0.1,0.0,0.0,0.0,0.1
1452010253488607251,231,1452010253485351085,robocape,0.376529274763,12.0314610324,12.5545593233,0.0,10.0,0.0,0.0,0.0,10.0,0.0,0.0,0.0,10.0,0.0033289513626,0.0118510668509,0.00386158358061,1.0,0.0,0.0,0.0,1.0,0.0,0.0,0.0,1.0,-0.067060546875,0.0407153320313,10.1453027344,0.1,0.0,0.0,0.0,0.1,0.0,0.0,0.0,0.1
1452010253521511376,232,1452010253518466949,robocape,0.382188731998,12.0324515458,12.5396231868,0.0,10.0,0.0,0.0,0.0,10.0,0.0,0.0,0.0,10.0,0.00372842552611,0.0115847507418,0.00386158358061,1.0,0.0,0.0,0.0,1.0,0.0,0.0,0.0,1.0,-0.0682580566406,0.0490979003906,10.152487793,0.1,0.0,0.0,0.0,0.1,0.0,0.0,0.0,0.1
1452010253555178668,233,1452010253552016973,robocape,0.388456824379,12.0349436678,12.5252268149,0.0,10.0,0.0,0.0,0.0,10.0,0.0,0.0,0.0,10.0,0.00399474163512,0.0123836990689,0.00412789968962,1.0,0.0,0.0,0.0,1.0,0.0,0.0,0.0,1.0,-0.05748046875,0.0538879394531,10.1417102051,0.1,0.0,0.0,0.0,0.1,0.0,0.0,0.0,0.1
1452010253588746793,234,1452010253585546970,robocape,0.393448235333,12.0364303331,12.510866065,0.0,10.0,0.0,0.0,0.0,10.0,0.0,0.0,0.0,10.0,0.0033289513626,0.0118510668509,0.00412789968962,1.0,0.0,0.0,0.0,1.0,0.0,0.0,0.0,1.0,-0.0562829589844,0.0682580566406,10.1608703613,0.1,0.0,0.0,0.0,0.1,0.0,0.0,0.0,0.1
1452010253623411668,235,1452010253618781089,robocape,0.396295961123,12.0374242484,12.4960247328,0.0,10.0,0.0,0.0,0.0,10.0,0.0,0.0,0.0,10.0,0.00226368692657,0.0115847507418,0.00386158358061,1.0,0.0,0.0,0.0,1.0,0.0,0.0,0.0,1.0,-0.067060546875,0.0706530761719,10.152487793,0.1,0.0,0.0,0.0,0.1,0.0,0.0,0.0,0.1
1452010253655649460,236,1452010253652093887,robocape,0.397872816849,12.0384202496,12.4812149439,0.0,10.0,0.0,0.0,0.0,10.0,0.0,0.0,0.0,10.0,0.00159789665405,0.0115847507418,0.00386158358061,1.0,0.0,0.0,0.0,1.0,0.0,0.0,0.0,1.0,-0.0718505859375,0.0658630371094,10.1273400879,0.1,0.0,0.0,0.0,0.1,0.0,0.0,0.0,0.1
1452010253689906251,237,1452010253686587095,robocape,0.399596844294,12.0396799756,12.4659234583,0.0,10.0,0.0,0.0,0.0,10.0,0.0,0.0,0.0,10.0,0.00173105470855,0.0117179087963,0.00359526747161,1.0,0.0,0.0,0.0,1.0,0.0,0.0,0.0,1.0,-0.0550854492188,0.0347277832031,10.1560803223,0.1,0.0,0.0,0.0,0.1,0.0,0.0,0.0,0.1
1452010253722131585,238,1452010253718993902,robocape,0.443539873585,12.050299495,12.4085990848,0.0,10.0,0.0,0.0,0.0,10.0,0.0,0.0,0.0,10.0,0.0284958236638,0.0162452826495,-0.018242653467,1.0,0.0,0.0,0.0,1.0,0.0,0.0,0.0,1.0,-0.113763427734,-0.275427246094,10.2075732422,0.1,0.0,0.0,0.0,0.1,0.0,0.0,0.0,0.1
1452010253756471085,239,1452010253753448009,robocape,0.611880663407,12.0651689899,12.23784574,0.0,10.0,0.0,0.0,0.0,10.0,0.0,0.0,0.0,10.0,0.106260127494,0.017177389031,-0.0772316716123,1.0,0.0,0.0,0.0,1.0,0.0,0.0,0.0,1.0,-0.118553466797,0.161663818359,10.2015856934,0.1,0.0,0.0,0.0,0.1,0.0,0.0,0.0,0.1
1452010253797457793,240,1452010253787631988,robocape,0.668570009015,12.0491327047,12.0773688537,0.0,10.0,0.0,0.0,0.0,10.0,0.0,0.0,0.0,10.0,0.0467384771309,0.000798948327024,-0.0720385074866,1.0,0.0,0.0,0.0,1.0,0.0,0.0,0.0,1.0,-0.317340087891,1.19990478516,9.87825805664,0.1,0.0,0.0,0.0,0.1,0.0,0.0,0.0,0.1
1452010253827889585,241,1452010253823868036,robocape,0.661774163191,11.9959754395,11.8283036328,0.0,10.0,0.0,0.0,0.0,10.0,0.0,0.0,0.0,10.0,0.0231695014837,-0.0199737081756,-0.118111194345,1.0,0.0,0.0,0.0,1.0,0.0,0.0,0.0,1.0,-0.205971679688,0.514929199219,9.9213684082,0.1,0.0,0.0,0.0,0.1,0.0,0.0,0.0,0.1
1452010253857249668,242,1452010253853877067,robocape,0.741044679169,11.9222384678,11.4484225191,0.0,10.0,0.0,0.0,0.0,10.0,0.0,0.0,0.0,10.0,0.082424835738,-0.0326237233535,-0.186154960197,1.0,0.0,0.0,0.0,1.0,0.0,0.0,0.0,1.0,-0.391585693359,1.60107055664,9.67587890625,0.1,0.0,0.0,0.0,0.1,0.0,0.0,0.0,0.1
1452010253893355376,243,1452010253889281988,robocape,0.416898442833,11.760535409,11.1023949665,0.0,10.0,0.0,0.0,0.0,10.0,0.0,0.0,0.0,10.0,-0.133024896449,-0.0784300941028,-0.168977571166,1.0,0.0,0.0,0.0,1.0,0.0,0.0,0.0,1.0,-0.211959228516,1.78189453125,9.30225585938,0.1,0.0,0.0,0.0,0.1,0.0,0.0,0.0,0.1
1452010253924868001,244,1452010253920536041,robocape,-0.206765366411,11.5483203831,11.0003332949,0.0,10.0,0.0,0.0,0.0,10.0,0.0,0.0,0.0,10.0,-0.316783011665,-0.102265385859,-0.0436758418773,1.0,0.0,0.0,0.0,1.0,0.0,0.0,0.0,1.0,-0.226329345703,-0.165256347656,10.0866247559,0.1,0.0,0.0,0.0,0.1,0.0,0.0,0.0,0.1
1452010253960045251,245,1452010253956274986,robocape,-0.779482202271,11.3385338005,10.8926957003,0.0,10.0,0.0,0.0,0.0,10.0,0.0,0.0,0.0,10.0,-0.290151400764,-0.10053433115,-0.0476705835124,1.0,0.0,0.0,0.0,1.0,0.0,0.0,0.0,1.0,-0.255069580078,-0.0443078613281,10.285411377,0.1,0.0,0.0,0.0,0.1,0.0,0.0,0.0,0.1
1452010253993337001,246,1452010253990114927,robocape,-1.31220853178,11.1806546364,10.8602813264,0.0,10.0,0.0,0.0,0.0,10.0,0.0,0.0,0.0,10.0,-0.277634543641,-0.0729706138682,-0.00892158965177,1.0,0.0,0.0,0.0,1.0,0.0,0.0,0.0,1.0,0.311352539063,-0.589174804688,10.3321142578,0.1,0.0,0.0,0.0,0.1,0.0,0.0,0.0,0.1
1452010254025591918,247,1452010254021826982,robocape,-1.82550492991,11.0439892081,10.8988510111,0.0,10.0,0.0,0.0,0.0,10.0,0.0,0.0,0.0,10.0,-0.27523769866,-0.0623179695079,0.0276968753368,1.0,0.0,0.0,0.0,1.0,0.0,0.0,0.0,1.0,-0.0323327636719,-0.0754431152344,10.3081640625,0.1,0.0,0.0,0.0,0.1,0.0,0.0,0.0,0.1
1452010254059174085,248,1452010254055186033,robocape,-2.40367884067,10.8811260273,11.0114260901,0.0,10.0,0.0,0.0,0.0,10.0,0.0,0.0,0.0,10.0,-0.317182485828,-0.0773648296668,0.0651142886524,1.0,0.0,0.0,0.0,1.0,0.0,0.0,0.0,1.0,-0.141306152344,-0.550854492188,10.208770752,0.1,0.0,0.0,0.0,0.1,0.0,0.0,0.0,0.1
1452010254092834585,249,1452010254088654041,robocape,-2.90130027389,10.7485789672,11.1477385033,0.0,10.0,0.0,0.0,0.0,10.0,0.0,0.0,0.0,10.0,-0.277767701695,-0.0624511275624,0.0777643038303,1.0,0.0,0.0,0.0,1.0,0.0,0.0,0.0,1.0,0.924477539063,-3.56618408203,11.1164831543,0.1,0.0,0.0,0.0,0.1,0.0,0.0,0.0,0.1
1452010254121743668,250,1452010254118355989,robocape,-2.9370534317,10.7520638006,11.139013792,0.0,10.0,0.0,0.0,0.0,10.0,0.0,0.0,0.0,10.0,-0.0214384467751,0.0114515926873,0.00585895439817,1.0,0.0,0.0,0.0,1.0,0.0,0.0,0.0,1.0,1.71363647461,-3.10155029297,10.8913513184,0.1,0.0,0.0,0.0,0.1,0.0,0.0,0.0,0.1
1452010254155226752,251,1452010254152045965,robocape,-2.70929985683,10.8628806431,11.2188516622,0.0,10.0,0.0,0.0,0.0,10.0,0.0,0.0,0.0,10.0,0.107858024148,0.0659132369795,0.0547279604011,1.0,0.0,0.0,0.0,1.0,0.0,0.0,0.0,1.0,0.324525146484,-2.30520629883,10.7033422852,0.1,0.0,0.0,0.0,0.1,0.0,0.0,0.0,0.1
1452010254188876043,252,1452010254185422897,robocape,-2.44213966697,11.0252869121,11.4386663999,0.0,10.0,0.0,0.0,0.0,10.0,0.0,0.0,0.0,10.0,0.114382768819,0.0909469512262,0.128763838705,1.0,0.0,0.0,0.0,1.0,0.0,0.0,0.0,1.0,0.500559082031,-1.51724487305,10.6578369141,0.1,0.0,0.0,0.0,0.1,0.0,0.0,0.0,0.1
1452010254221485210,253,1452010254218429088,robocape,-2.25491288112,11.1896941214,11.813904127,0.0,10.0,0.0,0.0,0.0,10.0,0.0,0.0,0.0,10.0,0.0563258570552,0.0904143190082,0.209723935844,1.0,0.0,0.0,0.0,1.0,0.0,0.0,0.0,1.0,0.289797363281,-1.34839599609,10.4758154297,0.1,0.0,0.0,0.0,0.1,0.0,0.0,0.0,0.1
1452010254254808210,254,1452010254251820087,robocape,-1.98489619104,11.3800431464,12.2664039001,0.0,10.0,0.0,0.0,0.0,10.0,0.0,0.0,0.0,10.0,0.0912132673352,0.104129598622,0.250603458576,1.0,0.0,0.0,0.0,1.0,0.0,0.0,0.0,1.0,0.229921875,-1.80704223633,10.3225341797,0.1,0.0,0.0,0.0,0.1,0.0,0.0,0.0,0.1
1452010254288605585,255,1452010254285301923,robocape,-1.53399314892,11.597213115,12.7003606253,0.0,10.0,0.0,0.0,0.0,10.0,0.0,0.0,0.0,10.0,0.187486540742,0.120241723217,0.241282394761,1.0,0.0,0.0,0.0,1.0,0.0,0.0,0.0,1.0,0.377215576172,-1.84895507813,10.5368884277,0.1,0.0,0.0,0.0,0.1,0.0,0.0,0.0,0.1
1452010254321601752,256,1452010254318530082,robocape,-0.803567595922,11.8199557561,12.9061859185,0.0,10.0,0.0,0.0,0.0,10.0,0.0,0.0,0.0,10.0,0.35832832467,0.126766467888,0.121706461817,1.0,0.0,0.0,0.0,1.0,0.0,0.0,0.0,1.0,0.197589111328,-1.61065063477,10.3333117676,0.1,0.0,0.0,0.0,0.1,0.0,0.0,0.0,0.1
1452010254355028543,257,1452010254351948976,robocape,0.164698556146,12.0788443046,12.9986964584,0.0,10.0,0.0,0.0,0.0,10.0,0.0,0.0,0.0,10.0,0.495747436918,0.14753912439,0.0615190211808,1.0,0.0,0.0,0.0,1.0,0.0,0.0,0.0,1.0,0.313747558594,-1.26337280273,10.3321142578,0.1,0.0,0.0,0.0,0.1,0.0,0.0,0.0,0.1
1452010254388493668,258,1452010254385111093,robocape,1.36144364375,12.3595176483,13.040438094,0.0,10.0,0.0,0.0,0.0,10.0,0.0,0.0,0.0,10.0,0.621981272588,0.160055981514,0.0328900394625,1.0,0.0,0.0,0.0,1.0,0.0,0.0,0.0,1.0,-0.543669433594,-0.269439697266,10.233918457,0.1,0.0,0.0,0.0,0.1,0.0,0.0,0.0,0.1
1452010254421806252,259,1452010254418502092,robocape,2.47317903833,12.5696240147,13.0391127094,0.0,10.0,0.0,0.0,0.0,10.0,0.0,0.0,0.0,10.0,0.583365436782,0.123171200416,0.00905474770627,1.0,0.0,0.0,0.0,1.0,0.0,0.0,0.0,1.0,-0.510139160156,2.33274902344,9.46990722656,0.1,0.0,0.0,0.0,0.1,0.0,0.0,0.0,0.1
1452010254455172502,260,1452010254451790094,robocape,3.210097308,12.6426693111,13.0427580858,0.0,10.0,0.0,0.0,0.0,10.0,0.0,0.0,0.0,10.0,0.387223622498,0.0513990090385,0.0129163312869,1.0,0.0,0.0,0.0,1.0,0.0,0.0,0.0,1.0,-0.731678466797,4.17930908203,9.25196044922,0.1,0.0,0.0,0.0,0.1,0.0,0.0,0.0,0.1
1452010254488619502,261,1452010254485266923,robocape,3.49584562194,12.6574662381,13.0153203696,0.0,10.0,0.0,0.0,0.0,10.0,0.0,0.0,0.0,10.0,0.154729659334,0.0194410759576,-0.00226368692657,1.0,0.0,0.0,0.0,1.0,0.0,0.0,0.0,1.0,-0.198786621094,3.20094360352,9.02922363281,0.1,0.0,0.0,0.0,0.1,0.0,0.0,0.0,0.1
1452010254521860335,262,1452010254518723964,robocape,3.42884398421,12.6708915552,12.9623007515,0.0,10.0,0.0,0.0,0.0,10.0,0.0,0.0,0.0,10.0,-0.0271642431188,0.01744370514,-0.015845808486,1.0,0.0,0.0,0.0,1.0,0.0,0.0,0.0,1.0,-0.487386474609,3.15543823242,9.17771484375,0.1,0.0,0.0,0.0,0.1,0.0,0.0,0.0,0.1
1452010254555375377,263,1452010254551923990,robocape,3.11061341298,12.6303456779,12.7683193249,0.0,10.0,0.0,0.0,0.0,10.0,0.0,0.0,0.0,10.0,-0.143011750537,-0.016378440704,-0.0877511579181,1.0,0.0,0.0,0.0,1.0,0.0,0.0,0.0,1.0,-0.469423828125,2.85725830078,9.24956542969,0.1,0.0,0.0,0.0,0.1,0.0,0.0,0.0,0.1
1452010254590170293,264,1452010254586844921,robocape,2.51869721784,12.4891142145,12.410750555,0.0,10.0,0.0,0.0,0.0,10.0,0.0,0.0,0.0,10.0,-0.26844663788,-0.0744353524677,-0.170974941983,1.0,0.0,0.0,0.0,1.0,0.0,0.0,0.0,1.0,-0.687370605469,2.6788293457,9.47589477539,0.1,0.0,0.0,0.0,0.1,0.0,0.0,0.0,0.1
1452010254622056543,265,1452010254618643999,robocape,1.82047101382,12.2509821901,11.877360721,0.0,10.0,0.0,0.0,0.0,10.0,0.0,0.0,0.0,10.0,-0.305464577032,-0.128364364542,-0.261788735155,1.0,0.0,0.0,0.0,1.0,0.0,0.0,0.0,1.0,-0.415535888672,2.56147338867,9.44116699219,0.1,0.0,0.0,0.0,0.1,0.0,0.0,0.0,0.1
1452010254655122627,266,1452010254652087926,robocape,0.776526796015,11.9180329715,11.4695195721,0.0,10.0,0.0,0.0,0.0,10.0,0.0,0.0,0.0,10.0,-0.502139023534,-0.172439680583,-0.19867181732,1.0,0.0,0.0,0.0,1.0,0.0,0.0,0.0,1.0,-1.02506835938,1.18074462891,9.54774536133,0.1,0.0,0.0,0.0,0.1,0.0,0.0,0.0,0.1
1452010254688473210,267,1452010254685347080,robocape,-0.493766317937,11.5058956693,11.2875745846,0.0,10.0,0.0,0.0,0.0,10.0,0.0,0.0,0.0,10.0,-0.64688182878,-0.208525513353,-0.0854874709915,1.0,0.0,0.0,0.0,1.0,0.0,0.0,0.0,1.0,-0.283809814453,0.690963134766,9.54894287109,0.1,0.0,0.0,0.0,0.1,0.0,0.0,0.0,0.1
1452010254721516877,268,1452010254718485116,robocape,-1.85305700726,11.1095756225,11.3231295507,0.0,10.0,0.0,0.0,0.0,10.0,0.0,0.0,0.0,10.0,-0.717855071831,-0.198804975374,0.0233026595382,1.0,0.0,0.0,0.0,1.0,0.0,0.0,0.0,1.0,-0.769998779297,-2.59021362305,10.5069506836,0.1,0.0,0.0,0.0,0.1,0.0,0.0,0.0,0.1
1452010254755051585,269,1452010254751974105,robocape,-2.83260185883,10.7731750266,11.2795366789,0.0,10.0,0.0,0.0,0.0,10.0,0.0,0.0,0.0,10.0,-0.511859561513,-0.166181252021,-0.0199737081756,1.0,0.0,0.0,0.0,1.0,0.0,0.0,0.0,1.0,0.730480957031,-3.85837646484,10.9643994141,0.1,0.0,0.0,0.0,0.1,0.0,0.0,0.0,0.1
1452010254789781793,270,1452010254786616086,robocape,-3.33808209327,10.5538423163,11.2652871757,0.0,10.0,0.0,0.0,0.0,10.0,0.0,0.0,0.0,10.0,-0.267115057335,-0.105328021113,-0.0034621094171,1.0,0.0,0.0,0.0,1.0,0.0,0.0,0.0,1.0,1.79506713867,-3.61049194336,10.6913671875,0.1,0.0,0.0,0.0,0.1,0.0,0.0,0.0,0.1
1452010254823149460,271,1452010254820128917,robocape,-3.51164313262,10.4881815674,11.2692286696,0.0,10.0,0.0,0.0,0.0,10.0,0.0,0.0,0.0,10.0,-0.0953411670248,-0.0253000303558,0.0103863282513,1.0,0.0,0.0,0.0,1.0,0.0,0.0,0.0,1.0,1.51125732422,-3.96734985352,11.0075097656,0.1,0.0,0.0,0.0,0.1,0.0,0.0,0.0,0.1
1452010254857102752,272,1452010254853137016,robocape,-3.31696078651,10.5833224164,11.2938378025,0.0,10.0,0.0,0.0,0.0,10.0,0.0,0.0,0.0,10.0,0.0956074831338,0.0583232278727,0.0262321367373,1.0,0.0,0.0,0.0,1.0,0.0,0.0,0.0,1.0,1.63939086914,-3.96375732422,10.7380700684,0.1,0.0,0.0,0.0,0.1,0.0,0.0,0.0,0.1
1452010254890283794,273,1452010254886666059,robocape,-2.74510397695,10.8424987835,11.3150177455,0.0,10.0,0.0,0.0,0.0,10.0,0.0,0.0,0.0,10.0,0.29387982629,0.144609647191,0.0287621397729,1.0,0.0,0.0,0.0,1.0,0.0,0.0,0.0,1.0,1.73638916016,-3.38416259766,10.8147106934,0.1,0.0,0.0,0.0,0.1,0.0,0.0,0.0,0.1
1452010254923771419,274,1452010254920165061,robocape,-1.77867781897,11.2146170559,11.3879105458,0.0,10.0,0.0,0.0,0.0,10.0,0.0,0.0,0.0,10.0,0.496013753027,0.203598665337,0.0561926990007,1.0,0.0,0.0,0.0,1.0,0.0,0.0,0.0,1.0,0.232316894531,-2.34831665039,11.1164831543,0.1,0.0,0.0,0.0,0.1,0.0,0.0,0.0,0.1
1452010254957087835,275,1452010254953651905,robocape,-0.760789461586,11.541917697,11.4357326559,0.0,10.0,0.0,0.0,0.0,10.0,0.0,0.0,0.0,10.0,0.5262406314,0.181627586343,0.0394147841332,1.0,0.0,0.0,0.0,1.0,0.0,0.0,0.0,1.0,-0.207169189453,-1.02147583008,10.2638562012,0.1,0.0,0.0,0.0,0.1,0.0,0.0,0.0,0.1
1452010254990160377,276,1452010254986816883,robocape,0.315846411099,11.8619787797,11.4999568666,0.0,10.0,0.0,0.0,0.0,10.0,0.0,0.0,0.0,10.0,0.556068035609,0.179230741362,0.0451405804768,1.0,0.0,0.0,0.0,1.0,0.0,0.0,0.0,1.0,-0.547261962891,0.368833007813,9.67228637695,0.1,0.0,0.0,0.0,0.1,0.0,0.0,0.0,0.1
1452010255022753210,277,1452010255019401073,robocape,1.19722419548,12.0951661908,11.6317471545,0.0,10.0,0.0,0.0,0.0,10.0,0.0,0.0,0.0,10.0,0.447144747024,0.13568805754,0.0780306199393,1.0,0.0,0.0,0.0,1.0,0.0,0.0,0.0,1.0,-0.981958007813,2.22377563477,9.39805664063,0.1,0.0,0.0,0.0,0.1,0.0,0.0,0.0,0.1
1452010255059046752,278,1452010255054049968,robocape,1.72669551287,12.2446883961,11.7651632724,0.0,10.0,0.0,0.0,0.0,10.0,0.0,0.0,0.0,10.0,0.262987157645,0.0929443220438,0.0784300941028,1.0,0.0,0.0,0.0,1.0,0.0,0.0,0.0,1.0,-0.572409667969,3.24525146484,9.25914550781,0.1,0.0,0.0,0.0,0.1,0.0,0.0,0.0,0.1
1452010255092824460,279,1452010255087106943,robocape,1.81790851842,12.286211769,11.8256952035,0.0,10.0,0.0,0.0,0.0,10.0,0.0,0.0,0.0,10.0,0.0415453130052,0.0347542522255,0.0415453130052,1.0,0.0,0.0,0.0,1.0,0.0,0.0,0.0,1.0,-0.712518310547,3.27399169922,9.196875,0.1,0.0,0.0,0.0,0.1,0.0,0.0,0.0,0.1
1452010255125355002,280,1452010255121536016,robocape,1.52560621762,12.2369259862,11.8176418814,0.0,10.0,0.0,0.0,0.0,10.0,0.0,0.0,0.0,10.0,-0.151933340189,-0.0149137021044,0.00692421883421,1.0,0.0,0.0,0.0,1.0,0.0,0.0,0.0,1.0,-0.504151611328,2.62015136719,9.39446411133,0.1,0.0,0.0,0.0,0.1,0.0,0.0,0.0,0.1
1452010255158499169,281,1452010255154977083,robocape,1.0460932029,12.1019870274,11.7358587284,0.0,10.0,0.0,0.0,0.0,10.0,0.0,0.0,0.0,10.0,-0.242214501143,-0.0616521792353,-0.0308926686449,1.0,0.0,0.0,0.0,1.0,0.0,0.0,0.0,1.0,-0.350870361328,1.25499023438,9.74413696289,0.1,0.0,0.0,0.0,0.1,0.0,0.0,0.0,0.1
1452010255191831752,282,1452010255188245058,robocape,0.476713553957,11.9412409642,11.6595857216,0.0,10.0,0.0,0.0,0.0,10.0,0.0,0.0,0.0,10.0,-0.290417716873,-0.0749679846857,-0.0286289817184,1.0,0.0,0.0,0.0,1.0,0.0,0.0,0.0,1.0,-0.17244140625,0.17244140625,10.2518811035,0.1,0.0,0.0,0.0,0.1,0.0,0.0,0.0,0.1
1452010255225430377,283,1452010255221445083,robocape,-0.129145203364,11.7697057995,11.6092937669,0.0,10.0,0.0,0.0,0.0,10.0,0.0,0.0,0.0,10.0,-0.312921428084,-0.0801611488114,-0.0159789665405,1.0,0.0,0.0,0.0,1.0,0.0,0.0,0.0,1.0,-0.209564208984,-0.408350830078,10.1441052246,0.1,0.0,0.0,0.0,0.1,0.0,0.0,0.0,0.1
1452010255258706002,284,1452010255254817962,robocape,-0.730498091301,11.5952495422,11.5570333484,0.0,10.0,0.0,0.0,0.0,10.0,0.0,0.0,0.0,10.0,-0.310924057267,-0.0814927293564,-0.0178431793035,1.0,0.0,0.0,0.0,1.0,0.0,0.0,0.0,1.0,0.223934326172,-0.802331542969,10.4063598633,0.1,0.0,0.0,0.0,0.1,0.0,0.0,0.0,0.1
1452010255292711794,285,1452010255288610935,robocape,-1.21448010375,11.4331062894,11.4580744453,0.0,10.0,0.0,0.0,0.0,10.0,0.0,0.0,0.0,10.0,-0.245010820287,-0.0747016685767,-0.0427437354958,1.0,0.0,0.0,0.0,1.0,0.0,0.0,0.0,1.0,0.316142578125,-1.70285888672,10.5620361328,0.1,0.0,0.0,0.0,0.1,0.0,0.0,0.0,0.1
1452010255324673710,286,1452010255320944070,robocape,-1.53625779727,11.3168062915,11.3792383305,0.0,10.0,0.0,0.0,0.0,10.0,0.0,0.0,0.0,10.0,-0.162585984549,-0.050466902657,-0.03222424919,1.0,0.0,0.0,0.0,1.0,0.0,0.0,0.0,1.0,0.609532470703,-1.81781982422,10.6243066406,0.1,0.0,0.0,0.0,0.1,0.0,0.0,0.0,0.1
1452010255359296377,287,1452010255355834960,robocape,-1.62119777411,11.2837179185,11.3313235412,0.0,10.0,0.0,0.0,0.0,10.0,0.0,0.0,0.0,10.0,-0.0419447871687,-0.00692421883421,-0.0150468601589,1.0,0.0,0.0,0.0,1.0,0.0,0.0,0.0,1.0,0.772393798828,-2.27407104492,10.7260949707,0.1,0.0,0.0,0.0,0.1,0.0,0.0,0.0,0.1
1452010255393455710,288,1452010255389837980,robocape,-1.50915722856,11.3230284649,11.3232715274,0.0,10.0,0.0,0.0,0.0,10.0,0.0,0.0,0.0,10.0,0.0571248053822,0.0307595105904,0.0067910607797,1.0,0.0,0.0,0.0,1.0,0.0,0.0,0.0,1.0,0.680185546875,-2.04893920898,10.6290966797,0.1,0.0,0.0,0.0,0.1,0.0,0.0,0.0,0.1
1452010255425411835,289,1452010255421941995,robocape,-1.24655284862,11.4146720302,11.3351955408,0.0,10.0,0.0,0.0,0.0,10.0,0.0,0.0,0.0,10.0,0.134090160885,0.0581900698182,0.0178431793035,1.0,0.0,0.0,0.0,1.0,0.0,0.0,0.0,1.0,0.550854492188,-1.33043334961,10.4746179199,0.1,0.0,0.0,0.0,0.1,0.0,0.0,0.0,0.1
1452010255459904835,290,1452010255456815958,robocape,-0.928820626874,11.5206979854,11.3518438246,0.0,10.0,0.0,0.0,0.0,10.0,0.0,0.0,0.0,10.0,0.162719142604,0.0659132369795,0.0202400242846,1.0,0.0,0.0,0.0,1.0,0.0,0.0,0.0,1.0,0.13412109375,-0.598754882812,10.3536694336,0.1,0.0,0.0,0.0,0.1,0.0,0.0,0.0,0.1
1452010255492911835,291,1452010255489645957,robocape,-0.616384625068,11.613140748,11.35109903,0.0,10.0,0.0,0.0,0.0,10.0,0.0,0.0,0.0,10.0,0.162053352331,0.0589890181453,0.0107858024148,1.0,0.0,0.0,0.0,1.0,0.0,0.0,0.0,1.0,-0.232316894531,-0.368833007813,10.0974023437,0.1,0.0,0.0,0.0,0.1,0.0,0.0,0.0,0.1
1452010255524441460,292,1452010255521241903,robocape,-0.33167253897,11.6916558909,11.3489581539,0.0,10.0,0.0,0.0,0.0,10.0,0.0,0.0,0.0,10.0,0.147938598554,0.051798483202,0.00972053797879,1.0,0.0,0.0,0.0,1.0,0.0,0.0,0.0,1.0,-0.221539306641,-0.125738525391,10.177635498,0.1,0.0,0.0,0.0,0.1,0.0,0.0,0.0,0.1
1452010255558339002,293,1452010255555213928,robocape,-0.0885652991209,11.7625897725,11.343095848,0.0,10.0,0.0,0.0,0.0,10.0,0.0,0.0,0.0,10.0,0.126766467888,0.0479368996214,0.00759000910673,1.0,0.0,0.0,0.0,1.0,0.0,0.0,0.0,1.0,-0.0742456054688,-0.0622705078125,10.1848205566,0.1,0.0,0.0,0.0,0.1,0.0,0.0,0.0,0.1
1452010255591237336,294,1452010255588063001,robocape,0.131944663062,11.8267610799,11.3367823846,0.0,10.0,0.0,0.0,0.0,10.0,0.0,0.0,0.0,10.0,0.115181717146,0.0444747902043,0.00719053494321,1.0,0.0,0.0,0.0,1.0,0.0,0.0,0.0,1.0,-0.0155676269531,-0.0634680175781,10.2123632813,0.1,0.0,0.0,0.0,0.1,0.0,0.0,0.0,0.1
1452010255624926044,295,1452010255621155977,robocape,0.331066935295,11.8870143465,11.3443162856,0.0,10.0,0.0,0.0,0.0,10.0,0.0,0.0,0.0,10.0,0.102664860023,0.0426105774413,0.0142479118319,1.0,0.0,0.0,0.0,1.0,0.0,0.0,0.0,1.0,0.0167651367188,0.270637207031,10.1405126953,0.1,0.0,0.0,0.0,0.1,0.0,0.0,0.0,0.1
1452010255658429961,296,1452010255655277967,robocape,0.470639675797,11.9290945355,11.341742046,0.0,10.0,0.0,0.0,0.0,10.0,0.0,0.0,0.0,10.0,0.0727042977592,0.033023197517,0.00892158965177,1.0,0.0,0.0,0.0,1.0,0.0,0.0,0.0,1.0,-0.173638916016,0.2682421875,10.0734521484,0.1,0.0,0.0,0.0,0.1,0.0,0.0,0.0,0.1
1452010255690629211,297,1452010255687256097,robocape,0.568366833276,11.9577832231,11.3356508808,0.0,10.0,0.0,0.0,0.0,10.0,0.0,0.0,0.0,10.0,0.051265850984,0.0259658206283,0.00705737688871,1.0,0.0,0.0,0.0,1.0,0.0,0.0,0.0,1.0,-0.117355957031,0.2682421875,10.1165625,0.1,0.0,0.0,0.0,0.1,0.0,0.0,0.0,0.1
1452010255724275336,298,1452010255721182107,robocape,0.614083360445,11.9736643881,11.3244414773,0.0,10.0,0.0,0.0,0.0,10.0,0.0,0.0,0.0,10.0,0.0246342400832,0.0191747598486,0.00439421579863,1.0,0.0,0.0,0.0,1.0,0.0,0.0,0.0,1.0,-0.129331054688,0.21076171875,10.1021923828,0.1,0.0,0.0,0.0,0.1,0.0,0.0,0.0,0.1
1452010255757590669,299,1452010255754496097,robocape,0.632032364238,11.9792289788,11.3119604164,0.0,10.0,0.0,0.0,0.0,10.0,0.0,0.0,0.0,10.0,0.0102531701968,0.0137152796139,0.00372842552611,1.0,0.0,0.0,0.0,1.0,0.0,0.0,0.0,1.0,-0.0347277832031,0.142503662109,10.1297351074,0.1,0.0,0.0,0.0,0.1,0.0,0.0,0.0,0.1
1452010255797216961,300,1452010255787563085,robocape,0.625014924242,11.9784986887,11.2992334365,0.0,10.0,0.0,0.0,0.0,10.0,0.0,0.0,0.0,10.0,-0.00279631914458,0.0103863282513,0.00359526747161,1.0,0.0,0.0,0.0,1.0,0.0,0.0,0.0,1.0,-0.129331054688,0.130528564453,10.1141674805,0.1,0.0,0.0,0.0,0.1,0.0,0.0,0.0,0.1
1452010255824236044,301,1452010255821171045,robocape,0.59865979741,11.9722420526,11.2862632614,0.0,10.0,0.0,0.0,0.0,10.0,0.0,0.0,0.0,10.0,-0.0129163312869,0.00745685105222,0.0034621094171,1.0,0.0,0.0,0.0,1.0,0.0,0.0,0.0,1.0,-0.0502954101563,0.100590820313,10.1668579102,0.1,0.0,0.0,0.0,0.1,0.0,0.0,0.0,0.1
1452010255856091711,302,1452010255853055953,robocape,0.553468660802,11.9606988719,11.2740831647,0.0,10.0,0.0,0.0,0.0,10.0,0.0,0.0,0.0,10.0,-0.0229031853747,0.00466053190764,0.00386158358061,1.0,0.0,0.0,0.0,1.0,0.0,0.0,0.0,1.0,-0.108973388672,0.0981958007813,10.1417102051,0.1,0.0,0.0,0.0,0.1,0.0,0.0,0.0,0.1
1452010255889422669,303,1452010255886306047,robocape,0.501456318548,11.9418252796,11.3179570265,0.0,10.0,0.0,0.0,0.0,10.0,0.0,0.0,0.0,10.0,-0.0326237233535,0.00133158054504,0.0328900394625,1.0,0.0,0.0,0.0,1.0,0.0,0.0,0.0,1.0,-0.130528564453,-0.0275427246094,10.1488952637,0.1,0.0,0.0,0.0,0.1,0.0,0.0,0.0,0.1
1452010255922237127,304,1452010255919151067,robocape,0.443408163647,11.9277438022,11.3090591329,0.0,10.0,0.0,0.0,0.0,10.0,0.0,0.0,0.0,10.0,-0.0300937203179,0.0033289513626,0.00559263828917,1.0,0.0,0.0,0.0,1.0,0.0,0.0,0.0,1.0,-0.0239501953125,-0.118553466797,10.1920056152,0.1,0.0,0.0,0.0,0.1,0.0,0.0,0.0,0.1
1452010255955588669,305,1452010255952213048,robocape,0.400314129377,11.916100557,11.2922205441,0.0,10.0,0.0,0.0,0.0,10.0,0.0,0.0,0.0,10.0,-0.0214384467751,0.00452737385313,0.00146473859954,1.0,0.0,0.0,0.0,1.0,0.0,0.0,0.0,1.0,0.0047900390625,-0.166453857422,10.2171533203,0.1,0.0,0.0,0.0,0.1,0.0,0.0,0.0,0.1
1452010255988851919,306,1452010255985811948,robocape,0.362961996771,11.9066971808,11.278241477,0.0,10.0,0.0,0.0,0.0,10.0,0.0,0.0,0.0,10.0,-0.0187752856851,0.00572579634367,0.00292947719909,1.0,0.0,0.0,0.0,1.0,0.0,0.0,0.0,1.0,-0.0239501953125,-0.213156738281,10.2446960449,0.1,0.0,0.0,0.0,0.1,0.0,0.0,0.0,0.1
1452010256021933919,307,1452010256018929004,robocape,0.328960460954,11.8992675003,11.2678831625,0.0,10.0,0.0,0.0,0.0,10.0,0.0,0.0,0.0,10.0,-0.01744370514,0.0067910607797,0.00479368996214,1.0,0.0,0.0,0.0,1.0,0.0,0.0,0.0,1.0,-0.0538879394531,-0.208366699219,10.2159558105,0.1,0.0,0.0,0.0,0.1,0.0,0.0,0.0,0.1
1452010256055695877,308,1452010256052541017,robocape,0.301035545596,11.8926567449,11.25471978,0.0,10.0,0.0,0.0,0.0,10.0,0.0,0.0,0.0,10.0,-0.0139815957229,0.00719053494321,0.0033289513626,1.0,0.0,0.0,0.0,1.0,0.0,0.0,0.0,1.0,-0.0347277832031,-0.170046386719,10.1979931641,0.1,0.0,0.0,0.0,0.1,0.0,0.0,0.0,0.1
1452010256088532752,309,1452010256085345983,robocape,0.277973170032,11.887340376,11.240295185,0.0,10.0,0.0,0.0,0.0,10.0,0.0,0.0,0.0,10.0,-0.0113184346328,0.00785632521573,0.00266316109008,1.0,0.0,0.0,0.0,1.0,0.0,0.0,0.0,1.0,-0.0275427246094,-0.17244140625,10.2075732422,0.1,0.0,0.0,0.0,0.1,0.0,0.0,0.0,0.1
1452010256121814252,310,1452010256118807077,robocape,0.256635619438,11.8832828705,11.2266644712,0.0,10.0,0.0,0.0,0.0,10.0,0.0,0.0,0.0,10.0,-0.0105194863058,0.00852211548825,0.00306263525359,1.0,0.0,0.0,0.0,1.0,0.0,0.0,0.0,1.0,-0.0227526855469,-0.167651367188,10.1800305176,0.1,0.0,0.0,0.0,0.1,0.0,0.0,0.0,0.1
1452010256155513461,311,1452010256152309894,robocape,0.236417667042,11.8792147342,11.214602737,0.0,10.0,0.0,0.0,0.0,10.0,0.0,0.0,0.0,10.0,-0.0101200121423,0.00852211548825,0.00386158358061,1.0,0.0,0.0,0.0,1.0,0.0,0.0,0.0,1.0,-0.0323327636719,-0.176033935547,10.233918457,0.1,0.0,0.0,0.0,0.1,0.0,0.0,0.0,0.1
1452010256188560169,312,1452010256185535907,robocape,0.215581248549,11.8748982291,11.2030794157,0.0,10.0,0.0,0.0,0.0,10.0,0.0,0.0,0.0,10.0,-0.0105194863058,0.00838895743375,0.00412789968962,1.0,0.0,0.0,0.0,1.0,0.0,0.0,0.0,1.0,-0.0215551757813,-0.161663818359,10.2099682617,0.1,0.0,0.0,0.0,0.1,0.0,0.0,0.0,0.1
1452010256221850836,313,1452010256218751907,robocape,0.194009912711,11.869855864,11.1902981971,0.0,10.0,0.0,0.0,0.0,10.0,0.0,0.0,0.0,10.0,-0.0107858024148,0.00798948327024,0.0034621094171,1.0,0.0,0.0,0.0,1.0,0.0,0.0,0.0,1.0,-0.0155676269531,-0.170046386719,10.2171533203,0.1,0.0,0.0,0.0,0.1,0.0,0.0,0.0,0.1
1452010256255066294,314,1452010256251960039,robocape,0.170954824058,11.8645731867,11.1775429346,0.0,10.0,0.0,0.0,0.0,10.0,0.0,0.0,0.0,10.0,-0.0115847507418,0.00785632521573,0.0034621094171,1.0,0.0,0.0,0.0,1.0,0.0,0.0,0.0,1.0,-0.0335302734375,-0.173638916016,10.2171533203,0.1,0.0,0.0,0.0,0.1,0.0,0.0,0.0,0.1
1452010256288991086,315,1452010256285902976,robocape,0.143732190289,11.858287693,11.1653309658,0.0,10.0,0.0,0.0,0.0,10.0,0.0,0.0,0.0,10.0,-0.0138484376684,0.00732369299772,0.00372842552611,1.0,0.0,0.0,0.0,1.0,0.0,0.0,0.0,1.0,-0.0215551757813,-0.178428955078,10.2255358887,0.1,0.0,0.0,0.0,0.1,0.0,0.0,0.0,0.1
1452010256321613044,316,1452010256318530082,robocape,0.110507713305,11.8507669004,11.1521206793,0.0,10.0,0.0,0.0,0.0,10.0,0.0,0.0,0.0,10.0,-0.016911072922,0.0066579027252,0.0031957933081,1.0,0.0,0.0,0.0,1.0,0.0,0.0,0.0,1.0,-0.0215551757813,-0.178428955078,10.2399060059,0.1,0.0,0.0,0.0,0.1,0.0,0.0,0.0,0.1
1452010256355367378,317,1452010256352313041,robocape,0.068606665284,11.8404954551,11.1384398694,0.0,10.0,0.0,0.0,0.0,10.0,0.0,0.0,0.0,10.0,-0.0214384467751,0.00519316412565,0.00292947719909,1.0,0.0,0.0,0.0,1.0,0.0,0.0,0.0,1.0,-0.0215551757813,-0.167651367188,10.2075732422,0.1,0.0,0.0,0.0,0.1,0.0,0.0,0.0,0.1
1452010256388528669,318,1452010256385448932,robocape,0.0170402891897,11.8272105123,11.1255797149,0.0,10.0,0.0,0.0,0.0,10.0,0.0,0.0,0.0,10.0,-0.0266316109008,0.00359526747161,0.0033289513626,1.0,0.0,0.0,0.0,1.0,0.0,0.0,0.0,1.0,-0.0227526855469,-0.156873779297,10.2171533203,0.1,0.0,0.0,0.0,0.1,0.0,0.0,0.0,0.1
1452010256421728503,319,1452010256418667078,robocape,-0.0468714632066,11.8104192243,11.1127763309,0.0,10.0,0.0,0.0,0.0,10.0,0.0,0.0,0.0,10.0,-0.0331563555715,0.00173105470855,0.0033289513626,1.0,0.0,0.0,0.0,1.0,0.0,0.0,0.0,1.0,-0.0263452148438,-0.180823974609,10.229128418,0.1,0.0,0.0,0.0,0.1,0.0,0.0,0.0,0.1
1452010256455518711,320,1452010256452519893,robocape,-0.127018076686,11.7886179453,11.0995385039,0.0,10.0,0.0,0.0,0.0,10.0,0.0,0.0,0.0,10.0,-0.0416784710597,-0.000932106381528,0.00306263525359,1.0,0.0,0.0,0.0,1.0,0.0,0.0,0.0,1.0,-0.0239501953125,-0.201181640625,10.2051782227,0.1,0.0,0.0,0.0,0.1,0.0,0.0,0.0,0.1
1452010256488511336,321,1452010256485441923,robocape,-0.213979280763,11.7648369684,11.085850889,0.0,10.0,0.0,0.0,0.0,10.0,0.0,0.0,0.0,10.0,-0.0452737385313,-0.00199737081756,0.00279631914458,1.0,0.0,0.0,0.0,1.0,0.0,0.0,0.0,1.0,0.0155676269531,-0.247884521484,10.2423010254,0.1,0.0,0.0,0.0,0.1,0.0,0.0,0.0,0.1
1452010256521425544,322,1452010256518398046,robocape,-0.306734999638,11.7388335034,11.0704413424,0.0,10.0,0.0,0.0,0.0,10.0,0.0,0.0,0.0,10.0,-0.0482032157304,-0.0031957933081,0.00186421276306,1.0,0.0,0.0,0.0,1.0,0.0,0.0,0.0,1.0,-0.0143701171875,-0.293389892578,10.2411035156,0.1,0.0,0.0,0.0,0.1,0.0,0.0,0.0,0.1
1452010256555304294,323,1452010256552099943,robocape,-0.413279668833,11.7090787052,11.0551367136,0.0,10.0,0.0,0.0,0.0,10.0,0.0,0.0,0.0,10.0,-0.0555269087282,-0.00519316412565,0.00186421276306,1.0,0.0,0.0,0.0,1.0,0.0,0.0,0.0,1.0,0.0167651367188,-0.326920166016,10.2650537109,0.1,0.0,0.0,0.0,0.1,0.0,0.0,0.0,0.1
1452010256588179919,324,1452010256585180044,robocape,-0.528104196761,11.6730864858,11.0307591725,0.0,10.0,0.0,0.0,0.0,10.0,0.0,0.0,0.0,10.0,-0.0589890181453,-0.00852211548825,-0.00292947719909,1.0,0.0,0.0,0.0,1.0,0.0,0.0,0.0,1.0,0.028740234375,-0.475411376953,10.3177441406,0.1,0.0,0.0,0.0,0.1,0.0,0.0,0.0,0.1
1452010256621463878,325,1452010256618479967,robocape,-0.609783868775,11.6462290269,11.0060781118,0.0,10.0,0.0,0.0,0.0,10.0,0.0,0.0,0.0,10.0,-0.0416784710597,-0.00372842552611,-0.00306263525359,1.0,0.0,0.0,0.0,1.0,0.0,0.0,0.0,1.0,0.156873779297,-0.864602050781,10.4063598633,0.1,0.0,0.0,0.0,0.1,0.0,0.0,0.0,0.1
1452010256655028128,326,1452010256651923894,robocape,-0.625466895058,11.640881726,10.9893211714,0.0,10.0,0.0,0.0,0.0,10.0,0.0,0.0,0.0,10.0,-0.00798948327024,0.00759000910673,0.00119842249054,1.0,0.0,0.0,0.0,1.0,0.0,0.0,0.0,1.0,0.209564208984,-0.984353027344,10.4087548828,0.1,0.0,0.0,0.0,0.1,0.0,0.0,0.0,0.1
1452010256688463169,327,1452010256685424089,robocape,-0.573791598738,11.6587829159,10.9827443046,0.0,10.0,0.0,0.0,0.0,10.0,0.0,0.0,0.0,10.0,0.0262321367373,0.0198405501211,0.0066579027252,1.0,0.0,0.0,0.0,1.0,0.0,0.0,0.0,1.0,0.165256347656,-0.833466796875,10.3740270996,0.1,0.0,0.0,0.0,0.1,0.0,0.0,0.0,0.1
1452010256721440919,328,1452010256718405961,robocape,-0.492742490112,11.6884916551,10.989884712,0.0,10.0,0.0,0.0,0.0,10.0,0.0,0.0,0.0,10.0,0.0402137324602,0.0260989786828,0.0138484376684,1.0,0.0,0.0,0.0,1.0,0.0,0.0,0.0,1.0,0.0706530761719,-0.461041259766,10.3117565918,0.1,0.0,0.0,0.0,0.1,0.0,0.0,0.0,0.1
1452010256755430669,329,1452010256752033948,robocape,-0.472870062636,11.7063908139,11.0462237243,0.0,10.0,0.0,0.0,0.0,10.0,0.0,0.0,0.0,10.0,0.00292947719909,0.0199737081756,0.0392816260787,1.0,0.0,0.0,0.0,1.0,0.0,0.0,0.0,1.0,0.0371228027344,-0.267044677734,10.2650537109,0.1,0.0,0.0,0.0,0.1,0.0,0.0,0.0,0.1
1452010256788681878,330,1452010256785320997,robocape,-0.465605981344,11.7259522319,11.1041948322,0.0,10.0,0.0,0.0,0.0,10.0,0.0,0.0,0.0,10.0,-0.00386158358061,0.0209058145571,0.0402137324602,1.0,0.0,0.0,0.0,1.0,0.0,0.0,0.0,1.0,0.0802331542969,-0.546064453125,10.3081640625,0.1,0.0,0.0,0.0,0.1,0.0,0.0,0.0,0.1
1452010256822468211,331,1452010256819232940,robocape,-0.419582930635,11.7518009132,11.1442691286,0.0,10.0,0.0,0.0,0.0,10.0,0.0,0.0,0.0,10.0,0.0183758115215,0.0242347659197,0.0310258266994,1.0,0.0,0.0,0.0,1.0,0.0,0.0,0.0,1.0,0.102985839844,-0.622705078125,10.3069665527,0.1,0.0,0.0,0.0,0.1,0.0,0.0,0.0,0.1
1452010256855530294,332,1452010256851912975,robocape,-0.351917176664,11.77865181,11.1601587,0.0,10.0,0.0,0.0,0.0,10.0,0.0,0.0,0.0,10.0,0.0323574072445,0.0247673981377,0.0185089695761,1.0,0.0,0.0,0.0,1.0,0.0,0.0,0.0,1.0,-0.0131726074219,-0.374820556641,10.2662512207,0.1,0.0,0.0,0.0,0.1,0.0,0.0,0.0,0.1
1452010256888549544,333,1452010256885313987,robocape,-0.297469565225,11.8028354687,11.1863445865,0.0,10.0,0.0,0.0,0.0,10.0,0.0,0.0,0.0,10.0,0.0243679239742,0.0234358175927,0.0238352917562,1.0,0.0,0.0,0.0,1.0,0.0,0.0,0.0,1.0,0.0658630371094,-0.475411376953,10.290201416,0.1,0.0,0.0,0.0,0.1,0.0,0.0,0.0,0.1
1452010256921703836,334,1452010256918543100,robocape,-0.220389970051,11.8283347777,11.1896565108,0.0,10.0,0.0,0.0,0.0,10.0,0.0,0.0,0.0,10.0,0.0387489938607,0.0241016078652,0.0119842249054,1.0,0.0,0.0,0.0,1.0,0.0,0.0,0.0,1.0,0.0371228027344,-0.426313476563,10.2794238281,0.1,0.0,0.0,0.0,0.1,0.0,0.0,0.0,0.1
1452010256955064170,335,1452010256951816082,robocape,-0.130371801606,11.8561109855,11.1824557984,0.0,10.0,0.0,0.0,0.0,10.0,0.0,0.0,0.0,10.0,0.0467384771309,0.0253000303558,0.00652474467069,1.0,0.0,0.0,0.0,1.0,0.0,0.0,0.0,1.0,0.0419128417969,-0.415535888672,10.26984375,0.1,0.0,0.0,0.0,0.1,0.0,0.0,0.0,0.1
1452010256988449420,336,1452010256985352039,robocape,-0.0298329940547,11.8855940717,11.1753107131,0.0,10.0,0.0,0.0,0.0,10.0,0.0,0.0,0.0,10.0,0.0523311154201,0.0262321367373,0.00652474467069,1.0,0.0,0.0,0.0,1.0,0.0,0.0,0.0,1.0,0.0323327636719,-0.368833007813,10.2770288086,0.1,0.0,0.0,0.0,0.1,0.0,0.0,0.0,0.1
1452010257021591336,337,1452010257018476963,robocape,0.0695223974585,11.9130095887,11.1669690882,0.0,10.0,0.0,0.0,0.0,10.0,0.0,0.0,0.0,10.0,0.0519316412565,0.0251668723012,0.00585895439817,1.0,0.0,0.0,0.0,1.0,0.0,0.0,0.0,1.0,0.00718505859375,-0.173638916016,10.2554736328,0.1,0.0,0.0,0.0,0.1,0.0,0.0,0.0,0.1
1452010257060452128,338,1452010257056967020,robocape,0.199127132482,11.9441777539,11.1168139387,0.0,10.0,0.0,0.0,0.0,10.0,0.0,0.0,0.0,10.0,0.0724379816502,0.0268979270098,-0.015845808486,1.0,0.0,0.0,0.0,1.0,0.0,0.0,0.0,1.0,0.0251477050781,-0.476608886719,10.2482885742,0.1,0.0,0.0,0.0,0.1,0.0,0.0,0.0,0.1
1452010257091896836,339,1452010257088299036,robocape,0.389977427263,11.9806148838,11.0241951785,0.0,10.0,0.0,0.0,0.0,10.0,0.0,0.0,0.0,10.0,0.109322762748,0.0292947719909,-0.0379500455336,1.0,0.0,0.0,0.0,1.0,0.0,0.0,0.0,1.0,0.0203576660156,-0.359252929688,10.2255358887,0.1,0.0,0.0,0.0,0.1,0.0,0.0,0.0,0.1
1452010257122933878,340,1452010257119827032,robocape,0.60343192733,12.0199084472,10.9249311947,0.0,10.0,0.0,0.0,0.0,10.0,0.0,0.0,0.0,10.0,0.12210593598,0.0306263525359,-0.0415453130052,1.0,0.0,0.0,0.0,1.0,0.0,0.0,0.0,1.0,-0.01916015625,-0.17244140625,10.1967956543,0.1,0.0,0.0,0.0,0.1,0.0,0.0,0.0,0.1
1452010257156348961,341,1452010257153278112,robocape,0.80291937672,12.0575141574,10.8666058484,0.0,10.0,0.0,0.0,0.0,10.0,0.0,0.0,0.0,10.0,0.110521185238,0.0300937203179,-0.0205063403936,1.0,0.0,0.0,0.0,1.0,0.0,0.0,0.0,1.0,-0.286204833984,0.349672851562,10.0878222656,0.1,0.0,0.0,0.0,0.1,0.0,0.0,0.0,0.1
1452010257188968920,342,1452010257185596942,robocape,0.907315758676,12.0796038952,10.8263842462,0.0,10.0,0.0,0.0,0.0,10.0,0.0,0.0,0.0,10.0,0.0588558600908,0.0221042370477,-0.0111852765783,1.0,0.0,0.0,0.0,1.0,0.0,0.0,0.0,1.0,-0.0167651367188,0.225131835938,10.1405126953,0.1,0.0,0.0,0.0,0.1,0.0,0.0,0.0,0.1
1452010257222089503,343,1452010257218853950,robocape,0.958381828258,12.0905139535,10.8003438634,0.0,10.0,0.0,0.0,0.0,10.0,0.0,0.0,0.0,10.0,0.0294279300454,0.016378440704,-0.00386158358061,1.0,0.0,0.0,0.0,1.0,0.0,0.0,0.0,1.0,-0.189206542969,0.305364990234,10.0650695801,0.1,0.0,0.0,0.0,0.1,0.0,0.0,0.0,0.1
1452010257257384545,344,1452010257253942012,robocape,0.974889042121,12.0907935921,10.7673348414,0.0,10.0,0.0,0.0,0.0,10.0,0.0,0.0,0.0,10.0,0.0121173829599,0.0106526443603,-0.00745685105222,1.0,0.0,0.0,0.0,1.0,0.0,0.0,0.0,1.0,-0.09580078125,0.302969970703,10.0818347168,0.1,0.0,0.0,0.0,0.1,0.0,0.0,0.0,0.1
1452010257290615836,345,1452010257287141084,robocape,0.954711967862,12.079065877,10.7229787017,0.0,10.0,0.0,0.0,0.0,10.0,0.0,0.0,0.0,10.0,-0.00585895439817,0.00412789968962,-0.0133158054504,1.0,0.0,0.0,0.0,1.0,0.0,0.0,0.0,1.0,-0.126936035156,0.283809814453,10.0866247559,0.1,0.0,0.0,0.0,0.1,0.0,0.0,0.0,0.1
1452010257322631753,346,1452010257319228887,robocape,0.885740714693,12.0549250031,10.6927920717,0.0,10.0,0.0,0.0,0.0,10.0,0.0,0.0,0.0,10.0,-0.033023197517,-0.00226368692657,-0.00599211245268,1.0,0.0,0.0,0.0,1.0,0.0,0.0,0.0,1.0,-0.112565917969,0.384400634766,10.0770446777,0.1,0.0,0.0,0.0,0.1,0.0,0.0,0.0,0.1
1452010257359642336,347,1452010257353980064,robocape,0.764715387328,12.0188781402,10.6778187156,0.0,10.0,0.0,0.0,0.0,10.0,0.0,0.0,0.0,10.0,-0.0620516533988,-0.00838895743375,0.00186421276306,1.0,0.0,0.0,0.0,1.0,0.0,0.0,0.0,1.0,-0.0502954101563,0.199984130859,10.1189575195,0.1,0.0,0.0,0.0,0.1,0.0,0.0,0.0,0.1
1452010257392288795,348,1452010257387003898,robocape,0.638128741399,11.9816554046,10.649805175,0.0,10.0,0.0,0.0,0.0,10.0,0.0,0.0,0.0,10.0,-0.0636495500529,-0.00918790576077,-0.00492684801665,1.0,0.0,0.0,0.0,1.0,0.0,0.0,0.0,1.0,-0.184416503906,-0.0874182128906,10.1465002441,0.1,0.0,0.0,0.0,0.1,0.0,0.0,0.0,0.1
1452010257422351628,349,1452010257419357061,robocape,0.490829046374,11.9417119387,10.6334863688,0.0,10.0,0.0,0.0,0.0,10.0,0.0,0.0,0.0,10.0,-0.0759000910673,-0.0105194863058,0.00106526443603,1.0,0.0,0.0,0.0,1.0,0.0,0.0,0.0,1.0,-0.0802331542969,-0.0455053710938,10.2063757324,0.1,0.0,0.0,0.0,0.1,0.0,0.0,0.0,0.1
1452010257467279753,350,1452010257455107927,robocape,0.284325740022,11.8921628504,10.6525342638,0.0,10.0,0.0,0.0,0.0,10.0,0.0,0.0,0.0,10.0,-0.110920659402,-0.015313176268,0.0193079179031,1.0,0.0,0.0,0.0,1.0,0.0,0.0,0.0,1.0,-0.067060546875,0.245489501953,10.1608703613,0.1,0.0,0.0,0.0,0.1,0.0,0.0,0.0,0.1
1452010257493190378,351,1452010257489352941,robocape,-0.028904528256,11.8286527157,10.7347390804,0.0,10.0,0.0,0.0,0.0,10.0,0.0,0.0,0.0,10.0,-0.173904419182,-0.0223705531567,0.0519316412565,1.0,0.0,0.0,0.0,1.0,0.0,0.0,0.0,1.0,0.0,-0.311352539063,10.2423010254,0.1,0.0,0.0,0.0,0.1,0.0,0.0,0.0,0.1
1452010257524347128,352,1452010257519807100,robocape,-0.322462485469,11.760561998,10.7856785152,0.0,10.0,0.0,0.0,0.0,10.0,0.0,0.0,0.0,10.0,-0.160455455677,-0.0251668723012,0.0356863586071,1.0,0.0,0.0,0.0,1.0,0.0,0.0,0.0,1.0,-0.00838256835938,-0.455053710938,10.2913989258,0.1,0.0,0.0,0.0,0.1,0.0,0.0,0.0,0.1
1452010257559910586,353,1452010257555474042,robocape,-0.573314329312,11.7094961616,10.7961182973,0.0,10.0,0.0,0.0,0.0,10.0,0.0,0.0,0.0,10.0,-0.133957002831,-0.016378440704,0.0147805440499,1.0,0.0,0.0,0.0,1.0,0.0,0.0,0.0,1.0,0.128133544922,-1.14362182617,10.4818029785,0.1,0.0,0.0,0.0,0.1,0.0,0.0,0.0,0.1
1452010257593271170,354,1452010257588855981,robocape,-0.624076399487,11.6975128573,10.7983538755,0.0,10.0,0.0,0.0,0.0,10.0,0.0,0.0,0.0,10.0,-0.0283626656093,0.00412789968962,0.0107858024148,1.0,0.0,0.0,0.0,1.0,0.0,0.0,0.0,1.0,0.341290283203,-1.38671630859,10.5057531738,0.1,0.0,0.0,0.0,0.1,0.0,0.0,0.0,0.1
1452010257625302711,355,1452010257621882915,robocape,-0.553479856506,11.7221710699,10.7938400279,0.0,10.0,0.0,0.0,0.0,10.0,0.0,0.0,0.0,10.0,0.0359526747161,0.0234358175927,0.00759000910673,1.0,0.0,0.0,0.0,1.0,0.0,0.0,0.0,1.0,0.408350830078,-1.21547241211,10.4865930176,0.1,0.0,0.0,0.0,0.1,0.0,0.0,0.0,0.1
1452010257658777420,356,1452010257655438899,robocape,-0.402585669446,11.7734958478,10.807509146,0.0,10.0,0.0,0.0,0.0,10.0,0.0,0.0,0.0,10.0,0.0761664071763,0.0375505713701,0.017177389031,1.0,0.0,0.0,0.0,1.0,0.0,0.0,0.0,1.0,0.0407153320313,-0.768801269531,10.3692370605,0.1,0.0,0.0,0.0,0.1,0.0,0.0,0.0,0.1
1452010257692449670,357,1452010257688544988,robocape,-0.249940665102,11.8263749495,10.8258896241,0.0,10.0,0.0,0.0,0.0,10.0,0.0,0.0,0.0,10.0,0.0766990393943,0.0384826777516,0.0195742340121,1.0,0.0,0.0,0.0,1.0,0.0,0.0,0.0,1.0,0.0514929199219,-0.500559082031,10.3069665527,0.1,0.0,0.0,0.0,0.1,0.0,0.0,0.0,0.1
1452010257725598420,358,1452010257722215890,robocape,-0.0808004534416,11.8776799003,10.8269422699,0.0,10.0,0.0,0.0,0.0,10.0,0.0,0.0,0.0,10.0,0.0873516837546,0.0376837294246,0.0105194863058,1.0,0.0,0.0,0.0,1.0,0.0,0.0,0.0,1.0,-0.00359252929688,-0.3448828125,10.2746337891,0.1,0.0,0.0,0.0,0.1,0.0,0.0,0.0,0.1
1452010257759571128,359,1452010257756201982,robocape,0.0896444193364,11.9265884554,10.8258529841,0.0,10.0,0.0,0.0,0.0,10.0,0.0,0.0,0.0,10.0,0.0884169481906,0.0364853069341,0.00932106381528,1.0,0.0,0.0,0.0,1.0,0.0,0.0,0.0,1.0,0.0395178222656,-0.374820556641,10.2973864746,0.1,0.0,0.0,0.0,0.1,0.0,0.0,0.0,0.1
1452010257797425003,360,1452010257789450883,robocape,0.309952304352,11.9781244941,10.7704408093,0.0,10.0,0.0,0.0,0.0,10.0,0.0,0.0,0.0,10.0,0.120641197381,0.0375505713701,-0.0189084437396,1.0,0.0,0.0,0.0,1.0,0.0,0.0,0.0,1.0,0.0323327636719,-0.475411376953,10.2842138672,0.1,0.0,0.0,0.0,0.1,0.0,0.0,0.0,0.1
1452010257825955253,361,1452010257822814941,robocape,0.584385807933,12.032567946,10.6551701717,0.0,10.0,0.0,0.0,0.0,10.0,0.0,0.0,0.0,10.0,0.15579492377,0.0384826777516,-0.0500674284935,1.0,0.0,0.0,0.0,1.0,0.0,0.0,0.0,1.0,-0.0131726074219,-0.222736816406,10.2027832031,0.1,0.0,0.0,0.0,0.1,0.0,0.0,0.0,0.1
1452010257858772295,362,1452010257855489015,robocape,0.855796505634,12.0901108425,10.5743034499,0.0,10.0,0.0,0.0,0.0,10.0,0.0,0.0,0.0,10.0,0.150734917698,0.0403468905147,-0.032490565299,1.0,0.0,0.0,0.0,1.0,0.0,0.0,0.0,1.0,-0.326920166016,0.308957519531,10.0997973633,0.1,0.0,0.0,0.0,0.1,0.0,0.0,0.0,0.1
1452010257892676628,363,1452010257889436006,robocape,1.0253770776,12.1208019367,10.5151907312,0.0,10.0,0.0,0.0,0.0,10.0,0.0,0.0,0.0,10.0,0.0952080089703,0.0263652947918,-0.0213052887206,1.0,0.0,0.0,0.0,1.0,0.0,0.0,0.0,1.0,-0.123343505859,0.342487792969,10.0866247559,0.1,0.0,0.0,0.0,0.1,0.0,0.0,0.0,0.1
1452010257924685628,364,1452010257921652078,robocape,1.08371184016,12.1373441138,10.4960291251,0.0,10.0,0.0,0.0,0.0,10.0,0.0,0.0,0.0,10.0,0.0326237233535,0.0194410759576,-0.00066579027252,1.0,0.0,0.0,0.0,1.0,0.0,0.0,0.0,1.0,-0.148491210938,0.550854492188,10.024354248,0.1,0.0,0.0,0.0,0.1,0.0,0.0,0.0,0.1
1452010257958015628,365,1452010257954632997,robocape,1.05830357794,12.1310980611,10.4823658031,0.0,10.0,0.0,0.0,0.0,10.0,0.0,0.0,0.0,10.0,-0.0118510668509,0.00745685105222,0.00226368692657,1.0,0.0,0.0,0.0,1.0,0.0,0.0,0.0,1.0,-0.106578369141,0.471818847656,10.0506994629,0.1,0.0,0.0,0.0,0.1,0.0,0.0,0.0,0.1
1452010257990826920,366,1452010257987607955,robocape,0.950468194702,12.1063198672,10.4858370794,0.0,10.0,0.0,0.0,0.0,10.0,0.0,0.0,0.0,10.0,-0.0569916473277,-0.00213052887206,0.0111852765783,1.0,0.0,0.0,0.0,1.0,0.0,0.0,0.0,1.0,-0.13412109375,0.450263671875,10.0411193848,0.1,0.0,0.0,0.0,0.1,0.0,0.0,0.0,0.1
1452010258024487837,367,1452010258021439075,robocape,0.753701805707,12.0699067157,10.5474646651,0.0,10.0,0.0,0.0,0.0,10.0,0.0,0.0,0.0,10.0,-0.110121711075,-0.00759000910673,0.0412789968962,1.0,0.0,0.0,0.0,1.0,0.0,0.0,0.0,1.0,0.00838256835938,0.193996582031,10.1273400879,0.1,0.0,0.0,0.0,0.1,0.0,0.0,0.0,0.1
1452010258057791753,368,1452010258054548978,robocape,0.551197422799,12.034491261,10.5971800866,0.0,10.0,0.0,0.0,0.0,10.0,0.0,0.0,0.0,10.0,-0.111985923838,-0.00732369299772,0.035153726389,1.0,0.0,0.0,0.0,1.0,0.0,0.0,0.0,1.0,-0.154478759766,-0.462238769531,10.229128418,0.1,0.0,0.0,0.0,0.1,0.0,0.0,0.0,0.1
1452010258090664253,369,1452010258087436914,robocape,0.417820477993,12.0098826061,10.6164780243,0.0,10.0,0.0,0.0,0.0,10.0,0.0,0.0,0.0,10.0,-0.0725711397047,-0.00199737081756,0.0194410759576,1.0,0.0,0.0,0.0,1.0,0.0,0.0,0.0,1.0,-0.110170898438,-0.352067871094,10.2518811035,0.1,0.0,0.0,0.0,0.1,0.0,0.0,0.0,0.1
1452010258123479837,370,1452010258120454072,robocape,0.324496723581,11.986853074,10.6064346303,0.0,10.0,0.0,0.0,0.0,10.0,0.0,0.0,0.0,10.0,-0.0484695318394,-0.00146473859954,0.00426105774413,1.0,0.0,0.0,0.0,1.0,0.0,0.0,0.0,1.0,0.0443078613281,-0.215551757813,10.2207458496,0.1,0.0,0.0,0.0,0.1,0.0,0.0,0.0,0.1
1452010258156408003,371,1452010258153356075,robocape,0.230626840928,11.9619188202,10.5918101072,0.0,10.0,0.0,0.0,0.0,10.0,0.0,0.0,0.0,10.0,-0.0483363737849,-0.00253000303558,0.00186421276306,1.0,0.0,0.0,0.0,1.0,0.0,0.0,0.0,1.0,0.0778381347656,-0.232316894531,10.2231408691,0.1,0.0,0.0,0.0,0.1,0.0,0.0,0.0,0.1
1452010258189951878,372,1452010258186911106,robocape,0.124525940176,11.9339470298,10.5811130106,0.0,10.0,0.0,0.0,0.0,10.0,0.0,0.0,0.0,10.0,-0.0552605926191,-0.00412789968962,0.00386158358061,1.0,0.0,0.0,0.0,1.0,0.0,0.0,0.0,1.0,0.0203576660156,-0.233514404297,10.2506835938,0.1,0.0,0.0,0.0,0.1,0.0,0.0,0.0,0.1
1452010258222175045,373,1452010258219089031,robocape,0.0157144657913,11.9042639197,10.569968037,0.0,10.0,0.0,0.0,0.0,10.0,0.0,0.0,0.0,10.0,-0.0567253312187,-0.00506000607115,0.00359526747161,1.0,0.0,0.0,0.0,1.0,0.0,0.0,0.0,1.0,-0.0610729980469,-0.304167480469,10.2387084961,0.1,0.0,0.0,0.0,0.1,0.0,0.0,0.0,0.1
1452010258255923753,374,1452010258252872943,robocape,-0.0955064353127,11.8728791546,10.5573544687,0.0,10.0,0.0,0.0,0.0,10.0,0.0,0.0,0.0,10.0,-0.0579237537092,-0.00599211245268,0.00279631914458,1.0,0.0,0.0,0.0,1.0,0.0,0.0,0.0,1.0,0.0514929199219,-0.288599853516,10.2614611816,0.1,0.0,0.0,0.0,0.1,0.0,0.0,0.0,0.1
1452010258288870212,375,1452010258285753011,robocape,-0.208158176797,11.8415417725,10.5442903531,0.0,10.0,0.0,0.0,0.0,10.0,0.0,0.0,0.0,10.0,-0.0587227020362,-0.00599211245268,0.00253000303558,1.0,0.0,0.0,0.0,1.0,0.0,0.0,0.0,1.0,0.028740234375,-0.405955810547,10.2578686523,0.1,0.0,0.0,0.0,0.1,0.0,0.0,0.0,0.1
1452010258321879253,376,1452010258318790912,robocape,-0.318851595532,11.8080333536,10.5225818917,0.0,10.0,0.0,0.0,0.0,10.0,0.0,0.0,0.0,10.0,-0.0568584892732,-0.00719053494321,-0.00199737081756,1.0,0.0,0.0,0.0,1.0,0.0,0.0,0.0,1.0,0.112565917969,-0.631087646484,10.3369042969,0.1,0.0,0.0,0.0,0.1,0.0,0.0,0.0,0.1
1452010258355391379,377,1452010258352283000,robocape,-0.380474192903,11.7937201074,10.5014700714,0.0,10.0,0.0,0.0,0.0,10.0,0.0,0.0,0.0,10.0,-0.0312921428084,0.00292947719909,-0.00159789665405,1.0,0.0,0.0,0.0,1.0,0.0,0.0,0.0,1.0,0.198786621094,-0.950822753906,10.4135449219,0.1,0.0,0.0,0.0,0.1,0.0,0.0,0.0,0.1
1452010258388676254,378,1452010258385600090,robocape,-0.359208382778,11.8006096004,10.4927494966,0.0,10.0,0.0,0.0,0.0,10.0,0.0,0.0,0.0,10.0,0.0107858024148,0.0141147537774,0.00492684801665,1.0,0.0,0.0,0.0,1.0,0.0,0.0,0.0,1.0,0.21076171875,-0.896934814453,10.4315075684,0.1,0.0,0.0,0.0,0.1,0.0,0.0,0.0,0.1
1452010258421810212,379,1452010258418746948,robocape,-0.283176866131,11.8253791656,10.4887299955,0.0,10.0,0.0,0.0,0.0,10.0,0.0,0.0,0.0,10.0,0.0390153099697,0.0235689756472,0.00745685105222,1.0,0.0,0.0,0.0,1.0,0.0,0.0,0.0,1.0,0.130528564453,-0.643062744141,10.3452868652,0.1,0.0,0.0,0.0,0.1,0.0,0.0,0.0,0.1
1452010258455072087,380,1452010258452023983,robocape,-0.195377102134,11.8536156395,10.4857511953,0.0,10.0,0.0,0.0,0.0,10.0,0.0,0.0,0.0,10.0,0.0451405804768,0.0254331884103,0.00798948327024,1.0,0.0,0.0,0.0,1.0,0.0,0.0,0.0,1.0,0.0047900390625,-0.384400634766,10.2830163574,0.1,0.0,0.0,0.0,0.1,0.0,0.0,0.0,0.1
1452010258488500045,381,1452010258485419988,robocape,-0.118618283895,11.877280023,10.4779808497,0.0,10.0,0.0,0.0,0.0,10.0,0.0,0.0,0.0,10.0,0.0399474163512,0.0230363434292,0.00545948023466,1.0,0.0,0.0,0.0,1.0,0.0,0.0,0.0,1.0,0.0251477050781,-0.285007324219,10.2674487305,0.1,0.0,0.0,0.0,0.1,0.0,0.0,0.0,0.1
1452010258521702379,382,1452010258518682003,robocape,-0.0566070536016,11.8968633485,10.46951783,0.0,10.0,0.0,0.0,0.0,10.0,0.0,0.0,0.0,10.0,0.0323574072445,0.0209058145571,0.00506000607115,1.0,0.0,0.0,0.0,1.0,0.0,0.0,0.0,1.0,-0.00718505859375,-0.280217285156,10.2470910645,0.1,0.0,0.0,0.0,0.1,0.0,0.0,0.0,0.1
1452010258555461462,383,1452010258552454948,robocape,-0.0138359986205,11.9101103897,10.4606257196,0.0,10.0,0.0,0.0,0.0,10.0,0.0,0.0,0.0,10.0,0.0223705531567,0.0175768631945,0.00479368996214,1.0,0.0,0.0,0.0,1.0,0.0,0.0,0.0,1.0,-0.00119750976563,-0.271834716797,10.2746337891,0.1,0.0,0.0,0.0,0.1,0.0,0.0,0.0,0.1
1452010258588561045,384,1452010258585232019,robocape,0.0137850305443,11.9187998379,10.4512784414,0.0,10.0,0.0,0.0,0.0,10.0,0.0,0.0,0.0,10.0,0.0145142279409,0.0151800182135,0.00452737385313,1.0,0.0,0.0,0.0,1.0,0.0,0.0,0.0,1.0,0.00239501953125,-0.267044677734,10.2446960449,0.1,0.0,0.0,0.0,0.1,0.0,0.0,0.0,0.1
1452010258621844295,385,1452010258618820905,robocape,0.0271355954717,11.9229510663,10.4406985181,0.0,10.0,0.0,0.0,0.0,10.0,0.0,0.0,0.0,10.0,0.00719053494321,0.0127831732324,0.00386158358061,1.0,0.0,0.0,0.0,1.0,0.0,0.0,0.0,1.0,-0.0047900390625,-0.262254638672,10.2446960449,0.1,0.0,0.0,0.0,0.1,0.0,0.0,0.0,0.1
1452010258654876587,386,1452010258651880025,robocape,0.028736194839,11.9240737628,10.4299019033,0.0,10.0,0.0,0.0,0.0,10.0,0.0,0.0,0.0,10.0,0.00106526443603,0.0111852765783,0.00372842552611,1.0,0.0,0.0,0.0,1.0,0.0,0.0,0.0,1.0,0.00718505859375,-0.279019775391,10.2530786133,0.1,0.0,0.0,0.0,0.1,0.0,0.0,0.0,0.1
1452010258689255420,387,1452010258685756921,robocape,0.0190607837934,11.9221767449,10.4186304506,0.0,10.0,0.0,0.0,0.0,10.0,0.0,0.0,0.0,10.0,-0.00479368996214,0.00958737992429,0.0034621094171,1.0,0.0,0.0,0.0,1.0,0.0,0.0,0.0,1.0,0.0215551757813,-0.290994873047,10.2482885742,0.1,0.0,0.0,0.0,0.1,0.0,0.0,0.0,0.1
