%time,field.header.seq,field.header.stamp,field.header.frame_id,field.orientation.x,field.orientation.y,field.orientation.z,field.orientation.w,field.orientation_covariance0,field.orientation_covariance1,field.orientation_covariance2,field.orientation_covariance3,field.orientation_covariance4,field.orientation_covariance5,field.orientation_covariance6,field.orientation_covariance7,field.orientation_covariance8,field.angular_velocity.x,field.angular_velocity.y,field.angular_velocity.z,field.angular_velocity_covariance0,field.angular_velocity_covariance1,field.angular_velocity_covariance2,field.angular_velocity_covariance3,field.angular_velocity_covariance4,field.angular_velocity_covariance5,field.angular_velocity_covariance6,field.angular_velocity_covariance7,field.angular_velocity_covariance8,field.linear_acceleration.x,field.linear_acceleration.y,field.linear_acceleration.z,field.linear_acceleration_covariance0,field.linear_acceleration_covariance1,field.linear_acceleration_covariance2,field.linear_acceleration_covariance3,field.linear_acceleration_covariance4,field.linear_acceleration_covariance5,field.linear_acceleration_covariance6,field.linear_acceleration_covariance7,field.linear_acceleration_covariance8
1446040863793728308,1,1446040863790747880,robocape,-15.405823871,-15.7431636823,-91.7044618714,0.0,10.0,0.0,0.0,0.0,10.0,0.0,0.0,0.0,10.0,-0.177233370545,0.242081343088,-0.254731358266,1.0,0.0,0.0,0.0,1.0,0.0,0.0,0.0,1.0,0.150886230469,-0.201181640625,10.2985839844,0.1,0.0,0.0,0.0,0.1,0.0,0.0,0.0,0.1
1446040863827294891,2,1446040863824269056,robocape,-16.0673445404,-15.6894202557,-92.5437883077,0.0,10.0,0.0,0.0,0.0,10.0,0.0,0.0,0.0,10.0,-0.352735686381,0.140481747502,0.0173105470855,1.0,0.0,0.0,0.0,1.0,0.0,0.0,0.0,1.0,-0.0359252929688,-0.244291992188,10.1788330078,0.1,0.0,0.0,0.0,0.1,0.0,0.0,0.0,0.1
1446040863860649100,3,1446040863857558012,robocape,-16.8342305964,-15.8601630513,-93.3209312212,0.0,10.0,0.0,0.0,0.0,10.0,0.0,0.0,0.0,10.0,-0.39734363464,0.0211721306661,0.018242653467,1.0,0.0,0.0,0.0,1.0,0.0,0.0,0.0,1.0,0.603544921875,-1.73638916016,9.69024902344,0.1,0.0,0.0,0.0,0.1,0.0,0.0,0.0,0.1
1446040863895447975,4,1446040863892241001,robocape,-17.4244883384,-16.2102652438,-94.3462200775,0.0,10.0,0.0,0.0,0.0,10.0,0.0,0.0,0.0,10.0,-0.380432561718,-0.0275637172823,-0.270577166752,1.0,0.0,0.0,0.0,1.0,0.0,0.0,0.0,1.0,1.48970214844,-0.922082519531,9.47230224609,0.1,0.0,0.0,0.0,0.1,0.0,0.0,0.0,0.1
1446040863927364683,5,1446040863924348115,robocape,-17.3300493187,-16.4078873672,-95.7751843549,0.0,10.0,0.0,0.0,0.0,10.0,0.0,0.0,0.0,10.0,-0.110654343293,0.111719607729,-0.536493801596,1.0,0.0,0.0,0.0,1.0,0.0,0.0,0.0,1.0,2.44770996094,-3.6440222168,9.25076293945,0.1,0.0,0.0,0.0,0.1,0.0,0.0,0.0,0.1
1446040863961003308,6,1446040863957734107,robocape,-16.9893639884,-16.2048565828,-97.2812530706,0.0,10.0,0.0,0.0,0.0,10.0,0.0,0.0,0.0,10.0,0.0310258266994,0.317848276101,-0.421844716669,1.0,0.0,0.0,0.0,1.0,0.0,0.0,0.0,1.0,1.42503662109,-2.13635742188,9.08670410156,0.1,0.0,0.0,0.0,0.1,0.0,0.0,0.0,0.1
1446040863993403975,7,1446040863990454912,robocape,-16.4553462935,-16.0052940511,-98.5973943482,0.0,10.0,0.0,0.0,0.0,10.0,0.0,0.0,0.0,10.0,0.212387096934,0.277767701695,-0.13688648003,1.0,0.0,0.0,0.0,1.0,0.0,0.0,0.0,1.0,0.532891845703,-1.82141235352,8.15983154297,0.1,0.0,0.0,0.0,0.1,0.0,0.0,0.0,0.1
1446040864027200475,8,1446040864024197101,robocape,-15.8646962403,-15.8276909667,-99.758268479,0.0,10.0,0.0,0.0,0.0,10.0,0.0,0.0,0.0,10.0,0.300404570961,0.235689756472,0.0796285165934,1.0,0.0,0.0,0.0,1.0,0.0,0.0,0.0,1.0,1.25379272461,-1.27295288086,8.04846313477,0.1,0.0,0.0,0.0,0.1,0.0,0.0,0.0,0.1
1446040864060697183,9,1446040864057490110,robocape,-15.3665037616,-15.5745251834,-100.882071717,0.0,10.0,0.0,0.0,0.0,10.0,0.0,0.0,0.0,10.0,0.267115057335,0.263253473754,0.154197027116,1.0,0.0,0.0,0.0,1.0,0.0,0.0,0.0,1.0,1.49688720703,-0.427510986328,7.85326904297,0.1,0.0,0.0,0.0,0.1,0.0,0.0,0.0,0.1
1446040864093485558,10,1446040864090486049,robocape,-15.2764343317,-15.15756714,-101.990040003,0.0,10.0,0.0,0.0,0.0,10.0,0.0,0.0,0.0,10.0,0.0528637476381,0.341284093694,0.170708625874,1.0,0.0,0.0,0.0,1.0,0.0,0.0,0.0,1.0,1.03584594727,-0.499361572266,8.54782470703,0.1,0.0,0.0,0.0,0.1,0.0,0.0,0.0,0.1
1446040864127204641,11,1446040864124222993,robocape,-15.616311054,-14.5954195525,-102.995323568,0.0,10.0,0.0,0.0,0.0,10.0,0.0,0.0,0.0,10.0,-0.141413853883,0.396944160476,0.300404570961,1.0,0.0,0.0,0.0,1.0,0.0,0.0,0.0,1.0,0.277822265625,-0.511336669922,9.22082519531,0.1,0.0,0.0,0.0,0.1,0.0,0.0,0.0,0.1
1446040864160450516,12,1446040864157481908,robocape,-16.0283798697,-14.0783437124,-103.955799009,0.0,10.0,0.0,0.0,0.0,10.0,0.0,0.0,0.0,10.0,-0.160189139568,0.363255172687,0.364853069341,1.0,0.0,0.0,0.0,1.0,0.0,0.0,0.0,1.0,-0.443078613281,-1.85374511719,9.32261352539,0.1,0.0,0.0,0.0,0.1,0.0,0.0,0.0,0.1
1446040864193464516,13,1446040864190428972,robocape,-15.1276616302,-14.035420305,-105.112265856,0.0,10.0,0.0,0.0,0.0,10.0,0.0,0.0,0.0,10.0,0.501340075207,0.143544382755,0.22676816682,1.0,0.0,0.0,0.0,1.0,0.0,0.0,0.0,1.0,-1.7208215332,-3.68713256836,9.17531982422,0.1,0.0,0.0,0.0,0.1,0.0,0.0,0.0,0.1
1446040864227407725,14,1446040864224375963,robocape,-12.5727615488,-14.8423680428,-106.567767363,0.0,10.0,0.0,0.0,0.0,10.0,0.0,0.0,0.0,10.0,1.29402997367,-0.258326625738,-0.107458549985,1.0,0.0,0.0,0.0,1.0,0.0,0.0,0.0,1.0,-2.26928100586,-2.85007324219,8.67715576172,0.1,0.0,0.0,0.0,0.1,0.0,0.0,0.0,0.1
1446040864260673183,15,1446040864257472038,robocape,-8.92995398616,-16.4857197181,-108.234657648,0.0,10.0,0.0,0.0,0.0,10.0,0.0,0.0,0.0,10.0,1.78631530117,-0.691622935094,-0.3784351909,1.0,0.0,0.0,0.0,1.0,0.0,0.0,0.0,1.0,-0.829874267578,-0.476608886719,8.72505615234,0.1,0.0,0.0,0.0,0.1,0.0,0.0,0.0,0.1
1446040864293777391,16,1446040864290709972,robocape,-5.45969735337,-18.5499526377,-109.891802054,0.0,10.0,0.0,0.0,0.0,10.0,0.0,0.0,0.0,10.0,1.65542093359,-0.948351664177,-0.403335747093,1.0,0.0,0.0,0.0,1.0,0.0,0.0,0.0,1.0,0.558039550781,3.14346313477,9.29507080078,0.1,0.0,0.0,0.0,0.1,0.0,0.0,0.0,0.1
1446040864327247308,17,1446040864324206113,robocape,-3.55233648226,-20.4859428858,-111.240381081,0.0,10.0,0.0,0.0,0.0,10.0,0.0,0.0,0.0,10.0,0.878177369454,-0.910534776698,-0.120641197381,1.0,0.0,0.0,0.0,1.0,0.0,0.0,0.0,1.0,3.15424072266,3.50990112305,9.20525756836,0.1,0.0,0.0,0.0,0.1,0.0,0.0,0.0,0.1
1446040864360477308,18,1446040864357422113,robocape,-2.94580532665,-21.725221996,-112.37156247,0.0,10.0,0.0,0.0,0.0,10.0,0.0,0.0,0.0,10.0,0.251402406903,-0.543551178485,0.152066498244,1.0,0.0,0.0,0.0,1.0,0.0,0.0,0.0,1.0,3.38176757813,4.10266845703,8.88552246094,0.1,0.0,0.0,0.0,0.1,0.0,0.0,0.0,0.1
1446040864393738725,19,1446040864390427112,robocape,-4.08172942323,-22.4260504177,-113.150709602,0.0,10.0,0.0,0.0,0.0,10.0,0.0,0.0,0.0,10.0,-0.561926990007,-0.251801881067,0.463256871619,1.0,0.0,0.0,0.0,1.0,0.0,0.0,0.0,1.0,2.17707275391,3.67755249023,9.01724853516,0.1,0.0,0.0,0.0,0.1,0.0,0.0,0.0,0.1
1446040864427303183,20,1446040864424192905,robocape,-5.46664685699,-22.7541182907,-113.965991936,0.0,10.0,0.0,0.0,0.0,10.0,0.0,0.0,0.0,10.0,-0.693753463966,-0.0567253312187,0.445014218152,1.0,0.0,0.0,0.0,1.0,0.0,0.0,0.0,1.0,1.05380859375,1.4944921875,9.273515625,0.1,0.0,0.0,0.0,0.1,0.0,0.0,0.0,0.1
1446040864460895433,21,1446040864457793951,robocape,-6.61142794292,-22.8602470784,-114.969917958,0.0,10.0,0.0,0.0,0.0,10.0,0.0,0.0,0.0,10.0,-0.621714956479,0.0583232278727,0.274571908387,1.0,0.0,0.0,0.0,1.0,0.0,0.0,0.0,1.0,0.634680175781,0.859812011719,8.89151000977,0.1,0.0,0.0,0.0,0.1,0.0,0.0,0.0,0.1
1446040864493467808,22,1446040864490462064,robocape,-7.45974359327,-22.8278151258,-116.165363748,0.0,10.0,0.0,0.0,0.0,10.0,0.0,0.0,0.0,10.0,-0.523444312255,0.13422331894,0.103730124459,1.0,0.0,0.0,0.0,1.0,0.0,0.0,0.0,1.0,0.561632080078,-0.15328125,8.17420166016,0.1,0.0,0.0,0.0,0.1,0.0,0.0,0.0,0.1
1446040864533966808,23,1446040864530879974,robocape,-7.759353698,-22.6271695628,-117.622675776,0.0,10.0,0.0,0.0,0.0,10.0,0.0,0.0,0.0,10.0,-0.310657741158,0.230762908455,-0.104262756677,1.0,0.0,0.0,0.0,1.0,0.0,0.0,0.0,1.0,0.833466796875,-0.629890136719,8.24006469727,0.1,0.0,0.0,0.0,0.1,0.0,0.0,0.0,0.1
1446040864560584933,24,1446040864557487010,robocape,-7.83190103415,-22.1264932787,-119.216078009,0.0,10.0,0.0,0.0,0.0,10.0,0.0,0.0,0.0,10.0,-0.213718677479,0.39321573495,-0.139815957229,1.0,0.0,0.0,0.0,1.0,0.0,0.0,0.0,1.0,0.726888427734,0.05748046875,8.98132324219,0.1,0.0,0.0,0.0,0.1,0.0,0.0,0.0,0.1
1446040864593541142,25,1446040864590459108,robocape,-7.66845955285,-21.5068160051,-120.931769815,0.0,10.0,0.0,0.0,0.0,10.0,0.0,0.0,0.0,10.0,-0.117312246018,0.457131601112,-0.223971847676,1.0,0.0,0.0,0.0,1.0,0.0,0.0,0.0,1.0,0.413140869141,-0.184416503906,9.43637695313,0.1,0.0,0.0,0.0,0.1,0.0,0.0,0.0,0.1
1446040864627457392,26,1446040864624388933,robocape,-7.29318225732,-20.9206987031,-122.747638931,0.0,10.0,0.0,0.0,0.0,10.0,0.0,0.0,0.0,10.0,-0.0359526747161,0.4375573671,-0.344746203111,1.0,0.0,0.0,0.0,1.0,0.0,0.0,0.0,1.0,0.0790356445313,0.524509277344,10.4303100586,0.1,0.0,0.0,0.0,0.1,0.0,0.0,0.0,0.1
1446040864660650100,27,1446040864657607078,robocape,-6.90333118598,-20.5430331267,-124.587405834,0.0,10.0,0.0,0.0,0.0,10.0,0.0,0.0,0.0,10.0,-0.0442084740953,0.321976175791,-0.443549479553,1.0,0.0,0.0,0.0,1.0,0.0,0.0,0.0,1.0,-0.769998779297,0.323327636719,11.0613977051,0.1,0.0,0.0,0.0,0.1,0.0,0.0,0.0,0.1
1446040864693445392,28,1446040864690392971,robocape,-6.52991653916,-20.5882146859,-126.384300669,0.0,10.0,0.0,0.0,0.0,10.0,0.0,0.0,0.0,10.0,-0.0468716351854,0.0936101123163,-0.460460552475,1.0,0.0,0.0,0.0,1.0,0.0,0.0,0.0,1.0,-1.32085327148,-0.0993933105469,11.0446325684,0.1,0.0,0.0,0.0,0.1,0.0,0.0,0.0,0.1
1446040864727192642,29,1446040864724155902,robocape,-5.90377581969,-21.1360456859,-128.127482985,0.0,10.0,0.0,0.0,0.0,10.0,0.0,0.0,0.0,10.0,0.117578562127,-0.172972312801,-0.326636707698,1.0,0.0,0.0,0.0,1.0,0.0,0.0,0.0,1.0,-0.705333251953,-0.170046386719,11.0733728027,0.1,0.0,0.0,0.0,0.1,0.0,0.0,0.0,0.1
1446040864760397558,30,1446040864757380962,robocape,-4.98426353267,-22.0513783811,-129.860416121,0.0,10.0,0.0,0.0,0.0,10.0,0.0,0.0,0.0,10.0,0.291749297418,-0.368048862649,-0.192013914595,1.0,0.0,0.0,0.0,1.0,0.0,0.0,0.0,1.0,0.159268798828,0.147293701172,12.2840551758,0.1,0.0,0.0,0.0,0.1,0.0,0.0,0.0,0.1
1446040864793666183,31,1446040864790673017,robocape,-4.47956275628,-22.9391552733,-131.50181272,0.0,10.0,0.0,0.0,0.0,10.0,0.0,0.0,0.0,10.0,0.109455920802,-0.356863586071,-0.0145142279409,1.0,0.0,0.0,0.0,1.0,0.0,0.0,0.0,1.0,0.941242675781,0.413140869141,14.8670837402,0.1,0.0,0.0,0.0,0.1,0.0,0.0,0.0,0.1
1446040864827169850,32,1446040864824126005,robocape,-4.41191587946,-23.3552203379,-133.075855358,0.0,10.0,0.0,0.0,0.0,10.0,0.0,0.0,0.0,10.0,-0.0656469208705,-0.104928546949,0.238086601453,1.0,0.0,0.0,0.0,1.0,0.0,0.0,0.0,1.0,1.92080566406,-1.43940673828,15.2862121582,0.1,0.0,0.0,0.0,0.1,0.0,0.0,0.0,0.1
1446040864862356433,33,1446040864859143018,robocape,-3.90515864049,-23.1902254838,-134.831343743,0.0,10.0,0.0,0.0,0.0,10.0,0.0,0.0,0.0,10.0,0.143810698864,0.201468136464,0.252600829394,1.0,0.0,0.0,0.0,1.0,0.0,0.0,0.0,1.0,1.3064831543,-0.941242675781,14.4551403809,0.1,0.0,0.0,0.0,0.1,0.0,0.0,0.0,0.1
1446040864893405558,34,1446040864890383958,robocape,-3.23290438188,-22.7381765768,-136.729582119,0.0,10.0,0.0,0.0,0.0,10.0,0.0,0.0,0.0,10.0,0.170841783929,0.339553038985,0.0508663768205,1.0,0.0,0.0,0.0,1.0,0.0,0.0,0.0,1.0,0.889749755859,0.877774658203,13.8372253418,0.1,0.0,0.0,0.0,0.1,0.0,0.0,0.0,0.1
1446040864927129558,35,1446040864924094915,robocape,-2.75462595709,-22.1794475807,-138.699838696,0.0,10.0,0.0,0.0,0.0,10.0,0.0,0.0,0.0,10.0,-0.0031957933081,0.374440449265,-0.272308221461,1.0,0.0,0.0,0.0,1.0,0.0,0.0,0.0,1.0,0.601149902344,1.23343505859,12.8696374512,0.1,0.0,0.0,0.0,0.1,0.0,0.0,0.0,0.1
1446040864960905975,36,1446040864957796096,robocape,-2.68835582098,-21.7622428547,-140.610109405,0.0,10.0,0.0,0.0,0.0,10.0,0.0,0.0,0.0,10.0,-0.219044999659,0.290284558819,-0.33023197517,1.0,0.0,0.0,0.0,1.0,0.0,0.0,0.0,1.0,-0.0143701171875,0.213156738281,11.9739001465,0.1,0.0,0.0,0.0,0.1,0.0,0.0,0.0,0.1
1446040864993545808,37,1446040864990535020,robocape,-2.53148005347,-21.5522292367,-142.535617704,0.0,10.0,0.0,0.0,0.0,10.0,0.0,0.0,0.0,10.0,-0.168977571166,0.179097583308,-0.328900394625,1.0,0.0,0.0,0.0,1.0,0.0,0.0,0.0,1.0,-0.09580078125,-0.372425537109,10.5632336426,0.1,0.0,0.0,0.0,0.1,0.0,0.0,0.0,0.1
1446040865027396100,38,1446040865024036884,robocape,-2.41549517247,-21.54677332,-144.441845617,0.0,10.0,0.0,0.0,0.0,10.0,0.0,0.0,0.0,10.0,-0.172040206419,0.0712395591596,-0.252068197176,1.0,0.0,0.0,0.0,1.0,0.0,0.0,0.0,1.0,0.450263671875,0.123343505859,10.0063916016,0.1,0.0,0.0,0.0,0.1,0.0,0.0,0.0,0.1
1446040865060651350,39,1446040865057581901,robocape,-2.24023705487,-21.6055223026,-146.352128773,0.0,10.0,0.0,0.0,0.0,10.0,0.0,0.0,0.0,10.0,-0.115048559091,0.0394147841332,-0.114382768819,1.0,0.0,0.0,0.0,1.0,0.0,0.0,0.0,1.0,1.46455444336,0.149688720703,10.2123632813,0.1,0.0,0.0,0.0,0.1,0.0,0.0,0.0,0.1
1446040865093714642,40,1446040865090544939,robocape,-2.01590914809,-21.5381268545,-148.271868642,0.0,10.0,0.0,0.0,0.0,10.0,0.0,0.0,0.0,10.0,-0.0495347962755,0.108656972475,0.0964064314609,1.0,0.0,0.0,0.0,1.0,0.0,0.0,0.0,1.0,1.68369873047,-0.246687011719,10.7296875,0.1,0.0,0.0,0.0,0.1,0.0,0.0,0.0,0.1
1446040865127092600,41,1446040865124015092,robocape,-1.63236080617,-21.2528846487,-150.252819402,0.0,10.0,0.0,0.0,0.0,10.0,0.0,0.0,0.0,10.0,0.0364853069341,0.218911841605,0.137419112248,1.0,0.0,0.0,0.0,1.0,0.0,0.0,0.0,1.0,0.953217773438,-0.438288574219,10.9967321777,0.1,0.0,0.0,0.0,0.1,0.0,0.0,0.0,0.1
1446040865160661309,42,1446040865157627105,robocape,-1.16433492591,-20.9506345784,-152.27134442,0.0,10.0,0.0,0.0,0.0,10.0,0.0,0.0,0.0,10.0,0.0762995652308,0.220642896313,0.126633309833,1.0,0.0,0.0,0.0,1.0,0.0,0.0,0.0,1.0,0.0993933105469,-0.331710205078,10.499765625,0.1,0.0,0.0,0.0,0.1,0.0,0.0,0.0,0.1
1446040865193558184,43,1446040865190517902,robocape,-0.764330767335,-20.9073703412,-154.278410418,0.0,10.0,0.0,0.0,0.0,10.0,0.0,0.0,0.0,10.0,0.0523311154201,0.0801611488114,0.184823379651,1.0,0.0,0.0,0.0,1.0,0.0,0.0,0.0,1.0,-0.356857910156,-0.416733398438,10.039921875,0.1,0.0,0.0,0.0,0.1,0.0,0.0,0.0,0.1
1446040865227227559,44,1446040865224200010,robocape,-0.301145099535,-21.093256202,-156.309513144,0.0,10.0,0.0,0.0,0.0,10.0,0.0,0.0,0.0,10.0,0.0810932551929,-0.0459395288039,0.188818121287,1.0,0.0,0.0,0.0,1.0,0.0,0.0,0.0,1.0,-0.0490979003906,-0.233514404297,9.87945556641,0.1,0.0,0.0,0.0,0.1,0.0,0.0,0.0,0.1
1446040865260363059,45,1446040865257363080,robocape,0.210216263648,-21.2982413459,-158.379075103,0.0,10.0,0.0,0.0,0.0,10.0,0.0,0.0,0.0,10.0,0.08455536461,-0.0655137628159,0.108257498312,1.0,0.0,0.0,0.0,1.0,0.0,0.0,0.0,1.0,0.514929199219,-0.01916015625,9.94172607422,0.1,0.0,0.0,0.0,0.1,0.0,0.0,0.0,0.1
1446040865293779350,46,1446040865290772914,robocape,0.747082784186,-21.3890116202,-160.48205618,0.0,10.0,0.0,0.0,0.0,10.0,0.0,0.0,0.0,10.0,0.0825579937925,-0.015313176268,0.0536626959651,1.0,0.0,0.0,0.0,1.0,0.0,0.0,0.0,1.0,0.698148193359,-0.0538879394531,9.96807128906,0.1,0.0,0.0,0.0,0.1,0.0,0.0,0.0,0.1
1446040865327499475,47,1446040865324455976,robocape,1.34204661099,-21.3531120406,-162.617025702,0.0,10.0,0.0,0.0,0.0,10.0,0.0,0.0,0.0,10.0,0.107858024148,0.0420779452233,0.0454068965859,1.0,0.0,0.0,0.0,1.0,0.0,0.0,0.0,1.0,0.494571533203,-0.116158447266,9.87466552734,0.1,0.0,0.0,0.0,0.1,0.0,0.0,0.0,0.1
1446040865360504017,48,1446040865357489109,robocape,1.88083355207,-21.3187603732,-164.757311592,0.0,10.0,0.0,0.0,0.0,10.0,0.0,0.0,0.0,10.0,0.0760332491218,0.0323574072445,0.0367516230431,1.0,0.0,0.0,0.0,1.0,0.0,0.0,0.0,1.0,0.0622705078125,-0.116158447266,10.0027990723,0.1,0.0,0.0,0.0,0.1,0.0,0.0,0.0,0.1
1446040865393698809,49,1446040865390686988,robocape,2.44254112824,-21.3305248316,-166.916604218,0.0,10.0,0.0,0.0,0.0,10.0,0.0,0.0,0.0,10.0,0.0789627263208,-0.00199737081756,0.00213052887206,1.0,0.0,0.0,0.0,1.0,0.0,0.0,0.0,1.0,-0.0275427246094,-0.308957519531,10.1201550293,0.1,0.0,0.0,0.0,0.1,0.0,0.0,0.0,0.1
1446040865427314142,50,1446040865423835992,robocape,3.08327282046,-21.3415046843,-169.102202787,0.0,10.0,0.0,0.0,0.0,10.0,0.0,0.0,0.0,10.0,0.124635939016,-0.00958737992429,0.0422111032778,1.0,0.0,0.0,0.0,1.0,0.0,0.0,0.0,1.0,0.0431103515625,-0.09580078125,10.2099682617,0.1,0.0,0.0,0.0,0.1,0.0,0.0,0.0,0.1
1446040865460862267,51,1446040865457581996,robocape,3.65386096155,-21.3173501038,-171.283993969,0.0,10.0,0.0,0.0,0.0,10.0,0.0,0.0,0.0,10.0,0.107858024148,0.00439421579863,0.145941227736,1.0,0.0,0.0,0.0,1.0,0.0,0.0,0.0,1.0,0.192799072266,0.147293701172,10.1189575195,0.1,0.0,0.0,0.0,0.1,0.0,0.0,0.0,0.1
1446040865493822225,52,1446040865490710973,robocape,4.06835966152,-21.2569130024,-173.445250325,0.0,10.0,0.0,0.0,0.0,10.0,0.0,0.0,0.0,10.0,0.0363521488796,0.0178431793035,0.184290747433,1.0,0.0,0.0,0.0,1.0,0.0,0.0,0.0,1.0,0.276624755859,0.0622705078125,10.1057849121,0.1,0.0,0.0,0.0,0.1,0.0,0.0,0.0,0.1
1446040865534813684,53,1446040865530602931,robocape,4.38960903787,-21.1564921516,-175.595512128,0.0,10.0,0.0,0.0,0.0,10.0,0.0,0.0,0.0,10.0,-0.01744370514,0.0302268783724,0.142612276374,1.0,0.0,0.0,0.0,1.0,0.0,0.0,0.0,1.0,0.431103515625,-0.239501953125,10.0159716797,0.1,0.0,0.0,0.0,0.1,0.0,0.0,0.0,0.1
1446040865560837434,54,1446040865557576894,robocape,4.79924564542,-21.0163801456,-177.765237405,0.0,10.0,0.0,0.0,0.0,10.0,0.0,0.0,0.0,10.0,0.0251668723012,0.0420779452233,0.121573303762,1.0,0.0,0.0,0.0,1.0,0.0,0.0,0.0,1.0,0.492176513672,-0.397573242188,9.95489868164,0.1,0.0,0.0,0.0,0.1,0.0,0.0,0.0,0.1
1446040865593703267,55,1446040865590615987,robocape,5.35426514706,-20.841371655,-179.962090836,0.0,10.0,0.0,0.0,0.0,10.0,0.0,0.0,0.0,10.0,0.0972053797879,0.0498011123845,0.099602224769,1.0,0.0,0.0,0.0,1.0,0.0,0.0,0.0,1.0,0.541274414062,-0.282612304688,9.84353027344,0.1,0.0,0.0,0.0,0.1,0.0,0.0,0.0,0.1
1446040865627331309,56,1446040865623795986,robocape,5.85039416736,-20.660332565,177.85288225,0.0,10.0,0.0,0.0,0.0,10.0,0.0,0.0,0.0,10.0,0.0599211245268,0.0422111032778,0.0436758418773,1.0,0.0,0.0,0.0,1.0,0.0,0.0,0.0,1.0,0.473016357422,0.322130126953,10.2003881836,0.1,0.0,0.0,0.0,0.1,0.0,0.0,0.0,0.1
1446040865660476892,57,1446040865657397031,robocape,6.18584414907,-20.4621409318,175.700794778,0.0,10.0,0.0,0.0,0.0,10.0,0.0,0.0,0.0,10.0,-0.033023197517,0.0412789968962,-0.0387489938607,1.0,0.0,0.0,0.0,1.0,0.0,0.0,0.0,1.0,0.538879394531,0.292192382813,10.0686621094,0.1,0.0,0.0,0.0,0.1,0.0,0.0,0.0,0.1
1446040865693665350,58,1446040865690412998,robocape,6.57116894739,-20.4194542794,173.533535684,0.0,10.0,0.0,0.0,0.0,10.0,0.0,0.0,0.0,10.0,-0.00452737385313,-0.0467384771309,-0.0175768631945,1.0,0.0,0.0,0.0,1.0,0.0,0.0,0.0,1.0,-1.30408813477,-0.232316894531,10.826685791,0.1,0.0,0.0,0.0,0.1,0.0,0.0,0.0,0.1
1446040865727172934,59,1446040865723742961,robocape,6.97175234158,-20.5779448585,171.352851602,0.0,10.0,0.0,0.0,0.0,10.0,0.0,0.0,0.0,10.0,0.00625842856169,-0.158058610696,0.0194410759576,1.0,0.0,0.0,0.0,1.0,0.0,0.0,0.0,1.0,0.0179626464844,0.199984130859,10.0782421875,0.1,0.0,0.0,0.0,0.1,0.0,0.0,0.0,0.1
1446040865760437267,60,1446040865757297039,robocape,7.37137225497,-20.5181732596,169.193203869,0.0,10.0,0.0,0.0,0.0,10.0,0.0,0.0,0.0,10.0,0.00772316716123,-0.0516653251475,-0.00386158358061,1.0,0.0,0.0,0.0,1.0,0.0,0.0,0.0,1.0,2.31478637695,0.265847167969,10.1824255371,0.1,0.0,0.0,0.0,0.1,0.0,0.0,0.0,0.1
1446040865793596892,61,1446040865790613889,robocape,7.65186828978,-20.3009855826,167.077105667,0.0,10.0,0.0,0.0,0.0,10.0,0.0,0.0,0.0,10.0,-0.050200586548,0.0249005561922,-0.0308926686449,1.0,0.0,0.0,0.0,1.0,0.0,0.0,0.0,1.0,0.244291992188,0.795146484375,10.3141516113,0.1,0.0,0.0,0.0,0.1,0.0,0.0,0.0,0.1
1446040865827129059,62,1446040865823745965,robocape,7.8161573725,-20.0697802488,164.99643165,0.0,10.0,0.0,0.0,0.0,10.0,0.0,0.0,0.0,10.0,-0.0937432703708,0.0314253008629,0.0241016078652,1.0,0.0,0.0,0.0,1.0,0.0,0.0,0.0,1.0,0.687370605469,0.159268798828,9.87586303711,0.1,0.0,0.0,0.0,0.1,0.0,0.0,0.0,0.1
1446040865860538392,63,1446040865857393026,robocape,7.95256199516,-19.790960115,162.93827298,0.0,10.0,0.0,0.0,0.0,10.0,0.0,0.0,0.0,10.0,-0.105860653331,0.051798483202,0.00146473859954,1.0,0.0,0.0,0.0,1.0,0.0,0.0,0.0,1.0,0.378413085938,-0.504151611328,10.0638720703,0.1,0.0,0.0,0.0,0.1,0.0,0.0,0.0,0.1
1446040865894466559,64,1446040865890607118,robocape,8.19379547006,-19.4748105439,160.880925079,0.0,10.0,0.0,0.0,0.0,10.0,0.0,0.0,0.0,10.0,-0.0431432096593,0.0667121853065,0.0159789665405,1.0,0.0,0.0,0.0,1.0,0.0,0.0,0.0,1.0,0.377215576172,-0.724493408203,9.69024902344,0.1,0.0,0.0,0.0,0.1,0.0,0.0,0.0,0.1
1446040865926932101,65,1446040865923878908,robocape,8.52687843647,-19.0743606812,158.835062302,0.0,10.0,0.0,0.0,0.0,10.0,0.0,0.0,0.0,10.0,0.016644756813,0.106260127494,0.0375505713701,1.0,0.0,0.0,0.0,1.0,0.0,0.0,0.0,1.0,0.837059326172,-0.566422119141,9.82796264648,0.1,0.0,0.0,0.0,0.1,0.0,0.0,0.0,0.1
1446040865960839851,66,1446040865957366943,robocape,8.9249151853,-18.6042880732,156.805444326,0.0,10.0,0.0,0.0,0.0,10.0,0.0,0.0,0.0,10.0,0.0567253312187,0.136487005867,0.0226368692657,1.0,0.0,0.0,0.0,1.0,0.0,0.0,0.0,1.0,0.6514453125,-0.0203576660156,9.72377929688,0.1,0.0,0.0,0.0,0.1,0.0,0.0,0.0,0.1
1446040865993740934,67,1446040865990663051,robocape,9.25287435168,-18.0211483022,154.824510901,0.0,10.0,0.0,0.0,0.0,10.0,0.0,0.0,0.0,10.0,0.034088461953,0.193079179031,0.0287621397729,1.0,0.0,0.0,0.0,1.0,0.0,0.0,0.0,1.0,0.965192871094,0.0,9.9249609375,0.1,0.0,0.0,0.0,0.1,0.0,0.0,0.0,0.1
1446040866027002601,68,1446040866023895025,robocape,9.53482234354,-17.4612373371,152.871978855,0.0,10.0,0.0,0.0,0.0,10.0,0.0,0.0,0.0,10.0,0.016378440704,0.177366528599,0.0147805440499,1.0,0.0,0.0,0.0,1.0,0.0,0.0,0.0,1.0,0.132923583984,0.332907714844,9.99082397461,0.1,0.0,0.0,0.0,0.1,0.0,0.0,0.0,0.1
1446040866060589517,69,1446040866057374954,robocape,9.75767526296,-16.997068205,150.940605631,0.0,10.0,0.0,0.0,0.0,10.0,0.0,0.0,0.0,10.0,-0.0109189604693,0.124103306798,0.000266316109008,1.0,0.0,0.0,0.0,1.0,0.0,0.0,0.0,1.0,-0.211959228516,0.105380859375,10.4303100586,0.1,0.0,0.0,0.0,0.1,0.0,0.0,0.0,0.1
1446040866093643851,70,1446040866090565919,robocape,9.94392024391,-16.6104728348,149.031254126,0.0,10.0,0.0,0.0,0.0,10.0,0.0,0.0,0.0,10.0,-0.0223705531567,0.0820253615744,0.0122505410144,1.0,0.0,0.0,0.0,1.0,0.0,0.0,0.0,1.0,-0.0550854492188,-0.318537597656,10.1381176758,0.1,0.0,0.0,0.0,0.1,0.0,0.0,0.0,0.1
1446040866126934851,71,1446040866123855113,robocape,10.1665220824,-16.254055759,147.138191767,0.0,10.0,0.0,0.0,0.0,10.0,0.0,0.0,0.0,10.0,0.0033289513626,0.0637827081074,0.017710021249,1.0,0.0,0.0,0.0,1.0,0.0,0.0,0.0,1.0,-0.374820556641,-0.0682580566406,10.1057849121,0.1,0.0,0.0,0.0,0.1,0.0,0.0,0.0,0.1
1446040866160590476,72,1446040866157372951,robocape,10.3110239728,-15.8608619677,145.289301693,0.0,10.0,0.0,0.0,0.0,10.0,0.0,0.0,0.0,10.0,-0.0280963495003,0.0830906260105,0.0227700273202,1.0,0.0,0.0,0.0,1.0,0.0,0.0,0.0,1.0,0.215551757813,0.256267089844,9.97884887695,0.1,0.0,0.0,0.0,0.1,0.0,0.0,0.0,0.1
1446040866193586017,73,1446040866190521001,robocape,10.3752224009,-15.4982051129,143.47530444,0.0,10.0,0.0,0.0,0.0,10.0,0.0,0.0,0.0,10.0,-0.0639158661619,0.067377975579,0.0222373951022,1.0,0.0,0.0,0.0,1.0,0.0,0.0,0.0,1.0,-0.00359252929688,-0.108973388672,10.0279467773,0.1,0.0,0.0,0.0,0.1,0.0,0.0,0.0,0.1
1446040866226832434,74,1446040866223798990,robocape,10.4654988534,-15.1240325304,141.685830848,0.0,10.0,0.0,0.0,0.0,10.0,0.0,0.0,0.0,10.0,-0.0443416321498,0.0727042977592,0.0194410759576,1.0,0.0,0.0,0.0,1.0,0.0,0.0,0.0,1.0,0.341290283203,-0.439486083984,9.97765136719,0.1,0.0,0.0,0.0,0.1,0.0,0.0,0.0,0.1
1446040866260551976,75,1446040866257368087,robocape,10.6298250115,-14.7773214691,139.908927511,0.0,10.0,0.0,0.0,0.0,10.0,0.0,0.0,0.0,10.0,-0.00106526443603,0.0564590151097,0.016378440704,1.0,0.0,0.0,0.0,1.0,0.0,0.0,0.0,1.0,0.0407153320313,-0.474213867188,10.1476977539,0.1,0.0,0.0,0.0,0.1,0.0,0.0,0.0,0.1
1446040866299160101,76,1446040866296103000,robocape,10.8421655102,-14.4328551069,138.152785902,0.0,10.0,0.0,0.0,0.0,10.0,0.0,0.0,0.0,10.0,0.0295610880999,0.0536626959651,0.0135821215594,1.0,0.0,0.0,0.0,1.0,0.0,0.0,0.0,1.0,0.384400634766,-0.179626464844,9.95609619141,0.1,0.0,0.0,0.0,0.1,0.0,0.0,0.0,0.1
1446040866326817892,77,1446040866323790073,robocape,11.034109241,-14.0920595921,136.429749414,0.0,10.0,0.0,0.0,0.0,10.0,0.0,0.0,0.0,10.0,0.0263652947918,0.051798483202,0.0203731823391,1.0,0.0,0.0,0.0,1.0,0.0,0.0,0.0,1.0,0.0730480957031,-0.102985839844,10.1500927734,0.1,0.0,0.0,0.0,0.1,0.0,0.0,0.0,0.1
1446040866364059601,78,1446040866361021041,robocape,11.1989343366,-13.8005985665,134.731467222,0.0,10.0,0.0,0.0,0.0,10.0,0.0,0.0,0.0,10.0,0.0162452826495,0.0254331884103,0.016911072922,1.0,0.0,0.0,0.0,1.0,0.0,0.0,0.0,1.0,-0.328117675781,0.00598754882813,10.1465002441,0.1,0.0,0.0,0.0,0.1,0.0,0.0,0.0,0.1
1446040866393902559,79,1446040866390531063,robocape,11.3215511293,-13.5208549691,133.066560713,0.0,10.0,0.0,0.0,0.0,10.0,0.0,0.0,0.0,10.0,-0.000532632218016,0.0198405501211,0.016911072922,1.0,0.0,0.0,0.0,1.0,0.0,0.0,0.0,1.0,-0.449066162109,-0.112565917969,10.0087866211,0.1,0.0,0.0,0.0,0.1,0.0,0.0,0.0,0.1
1446040866426939184,80,1446040866423907995,robocape,11.4832236025,-13.2013289078,131.43347253,0.0,10.0,0.0,0.0,0.0,10.0,0.0,0.0,0.0,10.0,0.0270310850643,0.0410126807872,0.0213052887206,1.0,0.0,0.0,0.0,1.0,0.0,0.0,0.0,1.0,-0.857416992188,-0.204774169922,9.91418334961,0.1,0.0,0.0,0.0,0.1,0.0,0.0,0.0,0.1
1446040866461008392,81,1446040866457344055,robocape,11.6168871324,-12.865462128,129.830945132,0.0,10.0,0.0,0.0,0.0,10.0,0.0,0.0,0.0,10.0,0.015313176268,0.0492684801665,0.00306263525359,1.0,0.0,0.0,0.0,1.0,0.0,0.0,0.0,1.0,-0.391585693359,0.0778381347656,9.95849121094,0.1,0.0,0.0,0.0,0.1,0.0,0.0,0.0,0.1
1446040866493795559,82,1446040866490717887,robocape,11.6649660565,-12.5206763807,128.273413133,0.0,10.0,0.0,0.0,0.0,10.0,0.0,0.0,0.0,10.0,-0.0223705531567,0.0568584892732,0.0106526443603,1.0,0.0,0.0,0.0,1.0,0.0,0.0,0.0,1.0,-0.0203576660156,-0.0490979003906,10.080637207,0.1,0.0,0.0,0.0,0.1,0.0,0.0,0.0,0.1
1446040866534098351,83,1446040866530464887,robocape,11.7020038178,-12.198003121,126.743080963,0.0,10.0,0.0,0.0,0.0,10.0,0.0,0.0,0.0,10.0,-0.0238352917562,0.0467384771309,0.0103863282513,1.0,0.0,0.0,0.0,1.0,0.0,0.0,0.0,1.0,0.0131726074219,-0.0694555664063,10.0818347168,0.1,0.0,0.0,0.0,0.1,0.0,0.0,0.0,0.1
1446040866560552809,84,1446040866557172060,robocape,11.7389849006,-11.8961584657,125.238845076,0.0,10.0,0.0,0.0,0.0,10.0,0.0,0.0,0.0,10.0,-0.0197073920666,0.0372842552611,0.0109189604693,1.0,0.0,0.0,0.0,1.0,0.0,0.0,0.0,1.0,0.197589111328,-0.107775878906,10.0710571289,0.1,0.0,0.0,0.0,0.1,0.0,0.0,0.0,0.1
1446040866593552351,85,1446040866590465068,robocape,11.7612526722,-11.6263531787,123.761097596,0.0,10.0,0.0,0.0,0.0,10.0,0.0,0.0,0.0,10.0,-0.0235689756472,0.0222373951022,0.0130494893414,1.0,0.0,0.0,0.0,1.0,0.0,0.0,0.0,1.0,0.130528564453,-0.171243896484,10.2399060059,0.1,0.0,0.0,0.0,0.1,0.0,0.0,0.0,0.1
1446040866627069726,86,1446040866623895883,robocape,11.754203952,-11.3653241929,122.314133917,0.0,10.0,0.0,0.0,0.0,10.0,0.0,0.0,0.0,10.0,-0.0352868844435,0.0197073920666,0.0123836990689,1.0,0.0,0.0,0.0,1.0,0.0,0.0,0.0,1.0,0.01916015625,-0.188009033203,10.0267492676,0.1,0.0,0.0,0.0,0.1,0.0,0.0,0.0,0.1
1446040866660607601,87,1446040866657377958,robocape,11.7572961652,-11.1084102673,120.892543877,0.0,10.0,0.0,0.0,0.0,10.0,0.0,0.0,0.0,10.0,-0.0268979270098,0.0190416017941,0.00932106381528,1.0,0.0,0.0,0.0,1.0,0.0,0.0,0.0,1.0,-0.0407153320313,-0.152083740234,10.0159716797,0.1,0.0,0.0,0.0,0.1,0.0,0.0,0.0,0.1
1446040866693521018,88,1446040866690426111,robocape,11.7500323498,-10.8515288553,119.498639255,0.0,10.0,0.0,0.0,0.0,10.0,0.0,0.0,0.0,10.0,-0.0294279300454,0.0207726565026,0.00519316412565,1.0,0.0,0.0,0.0,1.0,0.0,0.0,0.0,1.0,0.076640625,-0.110170898438,10.0315393066,0.1,0.0,0.0,0.0,0.1,0.0,0.0,0.0,0.1
1446040866726952226,89,1446040866723741054,robocape,11.7215873786,-10.604084243,118.136579042,0.0,10.0,0.0,0.0,0.0,10.0,0.0,0.0,0.0,10.0,-0.0363521488796,0.0186421276306,0.0114515926873,1.0,0.0,0.0,0.0,1.0,0.0,0.0,0.0,1.0,0.0143701171875,-0.205971679688,10.0099841309,0.1,0.0,0.0,0.0,0.1,0.0,0.0,0.0,0.1
1446040866760792601,90,1446040866757608890,robocape,11.6814784863,-10.3584970761,116.801476193,0.0,10.0,0.0,0.0,0.0,10.0,0.0,0.0,0.0,10.0,-0.0399474163512,0.0197073920666,0.00798948327024,1.0,0.0,0.0,0.0,1.0,0.0,0.0,0.0,1.0,0.0347277832031,-0.2682421875,10.0135766602,0.1,0.0,0.0,0.0,0.1,0.0,0.0,0.0,0.1
1446040866794140309,91,1446040866791091918,robocape,11.6341183388,-10.1183723897,115.496681021,0.0,10.0,0.0,0.0,0.0,10.0,0.0,0.0,0.0,10.0,-0.0399474163512,0.0197073920666,0.0141147537774,1.0,0.0,0.0,0.0,1.0,0.0,0.0,0.0,1.0,0.0275427246094,-0.2682421875,10.0123791504,0.1,0.0,0.0,0.0,0.1,0.0,0.0,0.0,0.1
1446040866827483976,92,1446040866824364900,robocape,11.5864214807,-9.88256817708,114.216427243,0.0,10.0,0.0,0.0,0.0,10.0,0.0,0.0,0.0,10.0,-0.0379500455336,0.0194410759576,0.0110521185238,1.0,0.0,0.0,0.0,1.0,0.0,0.0,0.0,1.0,0.0239501953125,-0.294587402344,10.0183666992,0.1,0.0,0.0,0.0,0.1,0.0,0.0,0.0,0.1
1446040866862129934,93,1446040866858699083,robocape,11.5346396691,-9.64936538886,112.963964022,0.0,10.0,0.0,0.0,0.0,10.0,0.0,0.0,0.0,10.0,-0.0371510972066,0.0206394984481,0.0134489635049,1.0,0.0,0.0,0.0,1.0,0.0,0.0,0.0,1.0,0.0371228027344,-0.277822265625,10.0471069336,0.1,0.0,0.0,0.0,0.1,0.0,0.0,0.0,0.1
1446040866893658059,94,1446040866890618085,robocape,11.4706015388,-9.4231556389,111.736170326,0.0,10.0,0.0,0.0,0.0,10.0,0.0,0.0,0.0,10.0,-0.0416784710597,0.0191747598486,0.0109189604693,1.0,0.0,0.0,0.0,1.0,0.0,0.0,0.0,1.0,0.0443078613281,-0.279019775391,10.0638720703,0.1,0.0,0.0,0.0,0.1,0.0,0.0,0.0,0.1
1446040866926977476,95,1446040866923871040,robocape,11.3894549631,-9.20258541726,110.536480111,0.0,10.0,0.0,0.0,0.0,10.0,0.0,0.0,0.0,10.0,-0.0480700576759,0.0190416017941,0.0138484376684,1.0,0.0,0.0,0.0,1.0,0.0,0.0,0.0,1.0,0.0263452148438,-0.320932617188,10.024354248,0.1,0.0,0.0,0.0,0.1,0.0,0.0,0.0,0.1
1446040866961305934,96,1446040866957411050,robocape,11.2925966173,-8.98896712532,109.363170943,0.0,10.0,0.0,0.0,0.0,10.0,0.0,0.0,0.0,10.0,-0.0541953281831,0.0181094954125,0.015313176268,1.0,0.0,0.0,0.0,1.0,0.0,0.0,0.0,1.0,0.0335302734375,-0.310155029297,10.0423168945,0.1,0.0,0.0,0.0,0.1,0.0,0.0,0.0,0.1
1446040866993654309,97,1446040866990575075,robocape,11.1807173061,-8.78037519651,108.215158076,0.0,10.0,0.0,0.0,0.0,10.0,0.0,0.0,0.0,10.0,-0.0603205986903,0.0181094954125,0.0154463343225,1.0,0.0,0.0,0.0,1.0,0.0,0.0,0.0,1.0,0.0179626464844,-0.305364990234,10.0123791504,0.1,0.0,0.0,0.0,0.1,0.0,0.0,0.0,0.1
1446040867027277726,98,1446040867023869037,robocape,11.0663467014,-8.57674133461,107.087645775,0.0,10.0,0.0,0.0,0.0,10.0,0.0,0.0,0.0,10.0,-0.0607200728538,0.0175768631945,0.0109189604693,1.0,0.0,0.0,0.0,1.0,0.0,0.0,0.0,1.0,0.0467028808594,-0.409548339844,10.0303417969,0.1,0.0,0.0,0.0,0.1,0.0,0.0,0.0,0.1
1446040867060673351,99,1446040867057292938,robocape,10.966398952,-8.37516103227,105.980966348,0.0,10.0,0.0,0.0,0.0,10.0,0.0,0.0,0.0,10.0,-0.051798483202,0.0186421276306,0.00945422186978,1.0,0.0,0.0,0.0,1.0,0.0,0.0,0.0,1.0,0.0562829589844,-0.544866943359,10.060279541,0.1,0.0,0.0,0.0,0.1,0.0,0.0,0.0,0.1
1446040867093655059,100,1446040867090581893,robocape,10.9027019485,-8.17523108968,104.893787903,0.0,10.0,0.0,0.0,0.0,10.0,0.0,0.0,0.0,10.0,-0.0311589847539,0.0197073920666,0.00958737992429,1.0,0.0,0.0,0.0,1.0,0.0,0.0,0.0,1.0,0.0107775878906,-0.599952392578,10.0303417969,0.1,0.0,0.0,0.0,0.1,0.0,0.0,0.0,0.1
1446040867127172309,101,1446040867123697042,robocape,10.8697350952,-7.97516862604,103.827313716,0.0,10.0,0.0,0.0,0.0,10.0,0.0,0.0,0.0,10.0,-0.0131826473959,0.0217047628841,0.0107858024148,1.0,0.0,0.0,0.0,1.0,0.0,0.0,0.0,1.0,0.0802331542969,-0.483793945313,10.019564209,0.1,0.0,0.0,0.0,0.1,0.0,0.0,0.0,0.1
1446040867160575559,102,1446040867157392978,robocape,10.8459734436,-7.77948062623,102.778694887,0.0,10.0,0.0,0.0,0.0,10.0,0.0,0.0,0.0,10.0,-0.00732369299772,0.0209058145571,0.00692421883421,1.0,0.0,0.0,0.0,1.0,0.0,0.0,0.0,1.0,0.047900390625,-0.470621337891,10.0159716797,0.1,0.0,0.0,0.0,0.1,0.0,0.0,0.0,0.1
1446040867193678393,103,1446040867190557956,robocape,10.8362337491,-7.58603102665,101.750780986,0.0,10.0,0.0,0.0,0.0,10.0,0.0,0.0,0.0,10.0,0.00173105470855,0.0215716048296,0.00772316716123,1.0,0.0,0.0,0.0,1.0,0.0,0.0,0.0,1.0,0.0538879394531,-0.487386474609,10.0327368164,0.1,0.0,0.0,0.0,0.1,0.0,0.0,0.0,0.1
1446040867226924601,104,1446040867223666906,robocape,10.8378078455,-7.39460056149,100.74189244,0.0,10.0,0.0,0.0,0.0,10.0,0.0,0.0,0.0,10.0,0.00905474770627,0.0221042370477,0.00652474467069,1.0,0.0,0.0,0.0,1.0,0.0,0.0,0.0,1.0,0.0311352539063,-0.477806396484,10.0495019531,0.1,0.0,0.0,0.0,0.1,0.0,0.0,0.0,0.1
1446040867260544476,105,1446040867257400035,robocape,10.8469435378,-7.20533343775,99.7526740933,0.0,10.0,0.0,0.0,0.0,10.0,0.0,0.0,0.0,10.0,0.0145142279409,0.0226368692657,0.00639158661619,1.0,0.0,0.0,0.0,1.0,0.0,0.0,0.0,1.0,0.0455053710938,-0.452658691406,10.0267492676,0.1,0.0,0.0,0.0,0.1,0.0,0.0,0.0,0.1
1446040867293601393,106,1446040867290617942,robocape,10.8561196737,-7.01908117138,98.7833622214,0.0,10.0,0.0,0.0,0.0,10.0,0.0,0.0,0.0,10.0,0.0159789665405,0.0227700273202,0.00652474467069,1.0,0.0,0.0,0.0,1.0,0.0,0.0,0.0,1.0,0.0323327636719,-0.407153320313,10.0135766602,0.1,0.0,0.0,0.0,0.1,0.0,0.0,0.0,0.1
1446040867327028060,107,1446040867323774099,robocape,10.8558890469,-6.83650987252,97.8342622721,0.0,10.0,0.0,0.0,0.0,10.0,0.0,0.0,0.0,10.0,0.0123836990689,0.0226368692657,0.0067910607797,1.0,0.0,0.0,0.0,1.0,0.0,0.0,0.0,1.0,0.0227526855469,-0.379610595703,10.024354248,0.1,0.0,0.0,0.0,0.1,0.0,0.0,0.0,0.1
1446040867360394476,108,1446040867357227087,robocape,10.842478225,-6.65895363237,96.9049743627,0.0,10.0,0.0,0.0,0.0,10.0,0.0,0.0,0.0,10.0,0.0066579027252,0.0218379209386,0.00705737688871,1.0,0.0,0.0,0.0,1.0,0.0,0.0,0.0,1.0,0.0359252929688,-0.378413085938,10.0363293457,0.1,0.0,0.0,0.0,0.1,0.0,0.0,0.0,0.1
1446040867393645935,109,1446040867390503883,robocape,10.8104008999,-6.48521929,95.9953149707,0.0,10.0,0.0,0.0,0.0,10.0,0.0,0.0,0.0,10.0,-0.00213052887206,0.0217047628841,0.00692421883421,1.0,0.0,0.0,0.0,1.0,0.0,0.0,0.0,1.0,0.0263452148438,-0.382005615234,10.0375268555,0.1,0.0,0.0,0.0,0.1,0.0,0.0,0.0,0.1
1446040867426966310,110,1446040867423702955,robocape,10.7737802075,-6.31510284064,95.1037064103,0.0,10.0,0.0,0.0,0.0,10.0,0.0,0.0,0.0,10.0,-0.00359526747161,0.0215716048296,0.0067910607797,1.0,0.0,0.0,0.0,1.0,0.0,0.0,0.0,1.0,0.0550854492188,-0.451461181641,10.0435144043,0.1,0.0,0.0,0.0,0.1,0.0,0.0,0.0,0.1
1446040867460833810,111,1446040867457161903,robocape,10.7428177864,-6.14865094223,94.2290088843,0.0,10.0,0.0,0.0,0.0,10.0,0.0,0.0,0.0,10.0,0.000266316109008,0.0213052887206,0.0067910607797,1.0,0.0,0.0,0.0,1.0,0.0,0.0,0.0,1.0,0.0359252929688,-0.483793945313,10.0315393066,0.1,0.0,0.0,0.0,0.1,0.0,0.0,0.0,0.1
1446040867493829768,112,1446040867490606069,robocape,10.7243249769,-5.98363656516,93.3706464371,0.0,10.0,0.0,0.0,0.0,10.0,0.0,0.0,0.0,10.0,0.00772316716123,0.0221042370477,0.0067910607797,1.0,0.0,0.0,0.0,1.0,0.0,0.0,0.0,1.0,0.0562829589844,-0.467028808594,10.0411193848,0.1,0.0,0.0,0.0,0.1,0.0,0.0,0.0,0.1
1446040867533767560,113,1446040867530616998,robocape,10.714232659,-5.82082176204,92.5276736643,0.0,10.0,0.0,0.0,0.0,10.0,0.0,0.0,0.0,10.0,0.0129163312869,0.0223705531567,0.00599211245268,1.0,0.0,0.0,0.0,1.0,0.0,0.0,0.0,1.0,0.0598754882813,-0.445473632813,10.0291442871,0.1,0.0,0.0,0.0,0.1,0.0,0.0,0.0,0.1
1446040867560736976,114,1446040867557303905,robocape,10.7036119406,-5.6603630621,91.7018904175,0.0,10.0,0.0,0.0,0.0,10.0,0.0,0.0,0.0,10.0,0.0135821215594,0.0227700273202,0.00692421883421,1.0,0.0,0.0,0.0,1.0,0.0,0.0,0.0,1.0,0.0311352539063,-0.414338378906,10.0459094238,0.1,0.0,0.0,0.0,0.1,0.0,0.0,0.0,0.1
1446040867593931601,115,1446040867590696096,robocape,10.6875393376,-5.50435593537,90.8910518902,0.0,10.0,0.0,0.0,0.0,10.0,0.0,0.0,0.0,10.0,0.0113184346328,0.0218379209386,0.00585895439817,1.0,0.0,0.0,0.0,1.0,0.0,0.0,0.0,1.0,0.0335302734375,-0.401165771484,10.0423168945,0.1,0.0,0.0,0.0,0.1,0.0,0.0,0.0,0.1
1446040867626924101,116,1446040867623696088,robocape,10.6619100518,-5.34996404444,90.0971260019,0.0,10.0,0.0,0.0,0.0,10.0,0.0,0.0,0.0,10.0,0.00705737688871,0.0226368692657,0.00652474467069,1.0,0.0,0.0,0.0,1.0,0.0,0.0,0.0,1.0,0.0299377441406,-0.393980712891,10.024354248,0.1,0.0,0.0,0.0,0.1,0.0,0.0,0.0,0.1
1446040867660690101,117,1446040867657350063,robocape,10.6280191156,-5.20010180241,89.3188832934,0.0,10.0,0.0,0.0,0.0,10.0,0.0,0.0,0.0,10.0,0.0033289513626,0.0218379209386,0.00692421883421,1.0,0.0,0.0,0.0,1.0,0.0,0.0,0.0,1.0,0.0395178222656,-0.408350830078,10.0111816406,0.1,0.0,0.0,0.0,0.1,0.0,0.0,0.0,0.1
1446040867693873143,118,1446040867690633058,robocape,10.5865996851,-5.05311951586,88.5556328254,0.0,10.0,0.0,0.0,0.0,10.0,0.0,0.0,0.0,10.0,-0.000133158054504,0.0218379209386,0.0067910607797,1.0,0.0,0.0,0.0,1.0,0.0,0.0,0.0,1.0,0.047900390625,-0.404758300781,10.0375268555,0.1,0.0,0.0,0.0,0.1,0.0,0.0,0.0,0.1
1446040867726875018,119,1446040867723685026,robocape,10.541522836,-4.90871336565,87.8069006229,0.0,10.0,0.0,0.0,0.0,10.0,0.0,0.0,0.0,10.0,-0.00159789665405,0.0219710789932,0.0067910607797,1.0,0.0,0.0,0.0,1.0,0.0,0.0,0.0,1.0,0.0251477050781,-0.4215234375,10.0267492676,0.1,0.0,0.0,0.0,0.1,0.0,0.0,0.0,0.1
1446040867760944310,120,1446040867757637977,robocape,10.4958230548,-4.76688003248,87.0725075146,0.0,10.0,0.0,0.0,0.0,10.0,0.0,0.0,0.0,10.0,-0.00146473859954,0.0221042370477,0.00719053494321,1.0,0.0,0.0,0.0,1.0,0.0,0.0,0.0,1.0,0.0371228027344,-0.446671142578,10.0315393066,0.1,0.0,0.0,0.0,0.1,0.0,0.0,0.0,0.1
1446040867793880851,121,1446040867790678977,robocape,10.4561522141,-4.62918298073,86.350201051,0.0,10.0,0.0,0.0,0.0,10.0,0.0,0.0,0.0,10.0,0.00199737081756,0.0211721306661,0.00639158661619,1.0,0.0,0.0,0.0,1.0,0.0,0.0,0.0,1.0,0.0419128417969,-0.451461181641,10.039921875,0.1,0.0,0.0,0.0,0.1,0.0,0.0,0.0,0.1
1446040867826858851,122,1446040867823735952,robocape,10.4209754266,-4.49306306964,85.6413730042,0.0,10.0,0.0,0.0,0.0,10.0,0.0,0.0,0.0,10.0,0.00479368996214,0.0217047628841,0.0067910607797,1.0,0.0,0.0,0.0,1.0,0.0,0.0,0.0,1.0,0.0538879394531,-0.456251220703,10.0231567383,0.1,0.0,0.0,0.0,0.1,0.0,0.0,0.0,0.1
1446040867860845435,123,1446040867857424974,robocape,10.3920218056,-4.35870207307,84.9445916517,0.0,10.0,0.0,0.0,0.0,10.0,0.0,0.0,0.0,10.0,0.00838895743375,0.0219710789932,0.00625842856169,1.0,0.0,0.0,0.0,1.0,0.0,0.0,0.0,1.0,0.0347277832031,-0.445473632813,10.0578845215,0.1,0.0,0.0,0.0,0.1,0.0,0.0,0.0,0.1
1446040867894586310,124,1446040867891343116,robocape,10.3631828688,-4.22618677643,84.2603187276,0.0,10.0,0.0,0.0,0.0,10.0,0.0,0.0,0.0,10.0,0.00878843159726,0.0222373951022,0.00612527050718,1.0,0.0,0.0,0.0,1.0,0.0,0.0,0.0,1.0,0.0323327636719,-0.428708496094,10.0219592285,0.1,0.0,0.0,0.0,0.1,0.0,0.0,0.0,0.1
1446040867926866227,125,1446040867923727989,robocape,10.3313492031,-4.09618605808,83.5891590865,0.0,10.0,0.0,0.0,0.0,10.0,0.0,0.0,0.0,10.0,0.00759000910673,0.0222373951022,0.0067910607797,1.0,0.0,0.0,0.0,1.0,0.0,0.0,0.0,1.0,0.0335302734375,-0.419128417969,9.98723144531,0.1,0.0,0.0,0.0,0.1,0.0,0.0,0.0,0.1
1446040867961619477,126,1446040867957700014,robocape,10.2955532017,-3.96789612449,82.9297086594,0.0,10.0,0.0,0.0,0.0,10.0,0.0,0.0,0.0,10.0,0.00572579634367,0.0225037112112,0.00625842856169,1.0,0.0,0.0,0.0,1.0,0.0,0.0,0.0,1.0,0.0335302734375,-0.413140869141,10.0219592285,0.1,0.0,0.0,0.0,0.1,0.0,0.0,0.0,0.1
1446040867993742643,127,1446040867990473985,robocape,10.2562218225,-3.84274054921,82.2824065024,0.0,10.0,0.0,0.0,0.0,10.0,0.0,0.0,0.0,10.0,0.00412789968962,0.0221042370477,0.0066579027252,1.0,0.0,0.0,0.0,1.0,0.0,0.0,0.0,1.0,0.0419128417969,-0.425115966797,10.0363293457,0.1,0.0,0.0,0.0,0.1,0.0,0.0,0.0,0.1
1446040868027246060,128,1446040868023818969,robocape,10.2166922274,-3.72013326833,81.6468489407,0.0,10.0,0.0,0.0,0.0,10.0,0.0,0.0,0.0,10.0,0.00426105774413,0.0219710789932,0.00705737688871,1.0,0.0,0.0,0.0,1.0,0.0,0.0,0.0,1.0,0.0431103515625,-0.433498535156,10.0471069336,0.1,0.0,0.0,0.0,0.1,0.0,0.0,0.0,0.1
1446040868060899310,129,1446040868057075977,robocape,10.1779312671,-3.59978764583,81.021714728,0.0,10.0,0.0,0.0,0.0,10.0,0.0,0.0,0.0,10.0,0.00479368996214,0.0218379209386,0.00652474467069,1.0,0.0,0.0,0.0,1.0,0.0,0.0,0.0,1.0,0.0419128417969,-0.423918457031,10.0075891113,0.1,0.0,0.0,0.0,0.1,0.0,0.0,0.0,0.1
1446040868093706268,130,1446040868090454101,robocape,10.1400753076,-3.48133181697,80.4076593786,0.0,10.0,0.0,0.0,0.0,10.0,0.0,0.0,0.0,10.0,0.00545948023466,0.0219710789932,0.0067910607797,1.0,0.0,0.0,0.0,1.0,0.0,0.0,0.0,1.0,0.0455053710938,-0.437091064453,10.0303417969,0.1,0.0,0.0,0.0,0.1,0.0,0.0,0.0,0.1
1446040868126943060,131,1446040868123851060,robocape,10.1039569629,-3.36463709629,79.8040865453,0.0,10.0,0.0,0.0,0.0,10.0,0.0,0.0,0.0,10.0,0.00652474467069,0.0221042370477,0.0067910607797,1.0,0.0,0.0,0.0,1.0,0.0,0.0,0.0,1.0,0.0395178222656,-0.443078613281,10.0351318359,0.1,0.0,0.0,0.0,0.1,0.0,0.0,0.0,0.1
1446040868160848977,132,1446040868157250881,robocape,10.0690646273,-3.25046328429,79.2109439027,0.0,10.0,0.0,0.0,0.0,10.0,0.0,0.0,0.0,10.0,0.00732369299772,0.0218379209386,0.00705737688871,1.0,0.0,0.0,0.0,1.0,0.0,0.0,0.0,1.0,0.0502954101563,-0.427510986328,10.0051940918,0.1,0.0,0.0,0.0,0.1,0.0,0.0,0.0,0.1
1446040868193627477,133,1446040868190423011,robocape,10.0337630889,-3.13786435569,78.6274550617,0.0,10.0,0.0,0.0,0.0,10.0,0.0,0.0,0.0,10.0,0.00719053494321,0.0219710789932,0.0066579027252,1.0,0.0,0.0,0.0,1.0,0.0,0.0,0.0,1.0,0.0359252929688,-0.420325927734,10.0351318359,0.1,0.0,0.0,0.0,0.1,0.0,0.0,0.0,0.1
1446040868226758435,134,1446040868223711967,robocape,9.9957292107,-3.02670008953,78.0541273326,0.0,10.0,0.0,0.0,0.0,10.0,0.0,0.0,0.0,10.0,0.00585895439817,0.0222373951022,0.0067910607797,1.0,0.0,0.0,0.0,1.0,0.0,0.0,0.0,1.0,0.0347277832031,-0.4215234375,10.019564209,0.1,0.0,0.0,0.0,0.1,0.0,0.0,0.0,0.1
1446040868260940143,135,1446040868257369041,robocape,9.95599007038,-2.91798848256,77.4908105235,0.0,10.0,0.0,0.0,0.0,10.0,0.0,0.0,0.0,10.0,0.00506000607115,0.0219710789932,0.00719053494321,1.0,0.0,0.0,0.0,1.0,0.0,0.0,0.0,1.0,0.0263452148438,-0.419128417969,9.99920654297,0.1,0.0,0.0,0.0,0.1,0.0,0.0,0.0,0.1
1446040868293726477,136,1446040868290555000,robocape,9.91473703486,-2.81171078734,76.9361729503,0.0,10.0,0.0,0.0,0.0,10.0,0.0,0.0,0.0,10.0,0.00426105774413,0.0215716048296,0.0066579027252,1.0,0.0,0.0,0.0,1.0,0.0,0.0,0.0,1.0,0.0239501953125,-0.429906005859,10.0075891113,0.1,0.0,0.0,0.0,0.1,0.0,0.0,0.0,0.1
1446040868326745227,137,1446040868323739051,robocape,9.87363433152,-2.70725003308,76.3909320052,0.0,10.0,0.0,0.0,0.0,10.0,0.0,0.0,0.0,10.0,0.00439421579863,0.0215716048296,0.00692421883421,1.0,0.0,0.0,0.0,1.0,0.0,0.0,0.0,1.0,0.0323327636719,-0.44068359375,10.0279467773,0.1,0.0,0.0,0.0,0.1,0.0,0.0,0.0,0.1
1446040868360732185,138,1446040868357062101,robocape,9.8321879769,-2.60484762502,75.8550107893,0.0,10.0,0.0,0.0,0.0,10.0,0.0,0.0,0.0,10.0,0.00426105774413,0.0214384467751,0.00732369299772,1.0,0.0,0.0,0.0,1.0,0.0,0.0,0.0,1.0,0.0359252929688,-0.449066162109,10.0267492676,0.1,0.0,0.0,0.0,0.1,0.0,0.0,0.0,0.1
1446040868394208560,139,1446040868390511035,robocape,9.79356211176,-2.5042339734,75.3271198754,0.0,10.0,0.0,0.0,0.0,10.0,0.0,0.0,0.0,10.0,0.00572579634367,0.0213052887206,0.00692421883421,1.0,0.0,0.0,0.0,1.0,0.0,0.0,0.0,1.0,0.0347277832031,-0.447868652344,10.0171691895,0.1,0.0,0.0,0.0,0.1,0.0,0.0,0.0,0.1
1446040868426838602,140,1446040868423823118,robocape,9.75722627229,-2.40464372321,74.8073537784,0.0,10.0,0.0,0.0,0.0,10.0,0.0,0.0,0.0,10.0,0.00692421883421,0.0215716048296,0.0066579027252,1.0,0.0,0.0,0.0,1.0,0.0,0.0,0.0,1.0,0.0359252929688,-0.447868652344,10.0123791504,0.1,0.0,0.0,0.0,0.1,0.0,0.0,0.0,0.1
1446040868461395060,141,1446040868457206010,robocape,9.72303463808,-2.30629099079,74.2967736817,0.0,10.0,0.0,0.0,0.0,10.0,0.0,0.0,0.0,10.0,0.00812264132474,0.0218379209386,0.00745685105222,1.0,0.0,0.0,0.0,1.0,0.0,0.0,0.0,1.0,0.0359252929688,-0.433498535156,10.0291442871,0.1,0.0,0.0,0.0,0.1,0.0,0.0,0.0,0.1
1446040868493768143,142,1446040868490515947,robocape,9.68766200507,-2.20933743207,73.7936936093,0.0,10.0,0.0,0.0,0.0,10.0,0.0,0.0,0.0,10.0,0.00745685105222,0.0218379209386,0.00692421883421,1.0,0.0,0.0,0.0,1.0,0.0,0.0,0.0,1.0,0.0395178222656,-0.425115966797,10.0471069336,0.1,0.0,0.0,0.0,0.1,0.0,0.0,0.0,0.1
1446040868532484477,143,1446040868529257059,robocape,9.65037568871,-2.11375811415,73.2979592534,0.0,10.0,0.0,0.0,0.0,10.0,0.0,0.0,0.0,10.0,0.00639158661619,0.0218379209386,0.00639158661619,1.0,0.0,0.0,0.0,1.0,0.0,0.0,0.0,1.0,0.0383203125,-0.422720947266,10.0171691895,0.1,0.0,0.0,0.0,0.1,0.0,0.0,0.0,0.1
1446040868560866435,144,1446040868557022094,robocape,9.61203691526,-2.02009204402,72.8109065977,0.0,10.0,0.0,0.0,0.0,10.0,0.0,0.0,0.0,10.0,0.00585895439817,0.0217047628841,0.00719053494321,1.0,0.0,0.0,0.0,1.0,0.0,0.0,0.0,1.0,0.0359252929688,-0.434696044922,10.0351318359,0.1,0.0,0.0,0.0,0.1,0.0,0.0,0.0,0.1
1446040868593665852,145,1446040868590553045,robocape,9.57187452536,-1.92816948075,72.3304252779,0.0,10.0,0.0,0.0,0.0,10.0,0.0,0.0,0.0,10.0,0.00479368996214,0.0214384467751,0.00639158661619,1.0,0.0,0.0,0.0,1.0,0.0,0.0,0.0,1.0,0.0407153320313,-0.4215234375,10.0303417969,0.1,0.0,0.0,0.0,0.1,0.0,0.0,0.0,0.1
1446040868626775519,146,1446040868623680114,robocape,9.53198138537,-1.83730209584,71.8581765689,0.0,10.0,0.0,0.0,0.0,10.0,0.0,0.0,0.0,10.0,0.00492684801665,0.0217047628841,0.00705737688871,1.0,0.0,0.0,0.0,1.0,0.0,0.0,0.0,1.0,0.0323327636719,-0.44068359375,10.0255517578,0.1,0.0,0.0,0.0,0.1,0.0,0.0,0.0,0.1
1446040868660534519,147,1446040868657169103,robocape,9.49200751494,-1.74794688148,71.3925936586,0.0,10.0,0.0,0.0,0.0,10.0,0.0,0.0,0.0,10.0,0.00479368996214,0.0215716048296,0.0066579027252,1.0,0.0,0.0,0.0,1.0,0.0,0.0,0.0,1.0,0.0407153320313,-0.4215234375,10.0459094238,0.1,0.0,0.0,0.0,0.1,0.0,0.0,0.0,0.1
1446040868693657310,148,1446040868690608024,robocape,9.45442024126,-1.65889771689,70.9340815417,0.0,10.0,0.0,0.0,0.0,10.0,0.0,0.0,0.0,10.0,0.00599211245268,0.0221042370477,0.0066579027252,1.0,0.0,0.0,0.0,1.0,0.0,0.0,0.0,1.0,0.0455053710938,-0.428708496094,10.039921875,0.1,0.0,0.0,0.0,0.1,0.0,0.0,0.0,0.1
1446040868726751560,149,1446040868723705053,robocape,9.4182003008,-1.57091050283,70.4825818105,0.0,10.0,0.0,0.0,0.0,10.0,0.0,0.0,0.0,10.0,0.0066579027252,0.0222373951022,0.0067910607797,1.0,0.0,0.0,0.0,1.0,0.0,0.0,0.0,1.0,0.0347277832031,-0.441881103516,10.0123791504,0.1,0.0,0.0,0.0,0.1,0.0,0.0,0.0,0.1
1446040868760392227,150,1446040868757159948,robocape,9.38178561425,-1.4845944035,70.0385977971,0.0,10.0,0.0,0.0,0.0,10.0,0.0,0.0,0.0,10.0,0.00652474467069,0.0221042370477,0.00745685105222,1.0,0.0,0.0,0.0,1.0,0.0,0.0,0.0,1.0,0.047900390625,-0.433498535156,10.0207617188,0.1,0.0,0.0,0.0,0.1,0.0,0.0,0.0,0.1
1446040868801457560,151,1446040868798326015,robocape,9.34355429879,-1.40016703698,69.6006403994,0.0,10.0,0.0,0.0,0.0,10.0,0.0,0.0,0.0,10.0,0.00545948023466,0.0217047628841,0.00705737688871,1.0,0.0,0.0,0.0,1.0,0.0,0.0,0.0,1.0,0.0359252929688,-0.4215234375,10.0159716797,0.1,0.0,0.0,0.0,0.1,0.0,0.0,0.0,0.1
1446040868826698644,152,1446040868823734998,robocape,9.30599120389,-1.31668091087,69.1691093476,0.0,10.0,0.0,0.0,0.0,10.0,0.0,0.0,0.0,10.0,0.00572579634367,0.0218379209386,0.00705737688871,1.0,0.0,0.0,0.0,1.0,0.0,0.0,0.0,1.0,0.0562829589844,-0.422720947266,10.0219592285,0.1,0.0,0.0,0.0,0.1,0.0,0.0,0.0,0.1
1446040868860358810,153,1446040868857062101,robocape,9.26680962153,-1.23444000941,68.7442577365,0.0,10.0,0.0,0.0,0.0,10.0,0.0,0.0,0.0,10.0,0.00479368996214,0.0218379209386,0.00732369299772,1.0,0.0,0.0,0.0,1.0,0.0,0.0,0.0,1.0,0.0467028808594,-0.420325927734,10.0303417969,0.1,0.0,0.0,0.0,0.1,0.0,0.0,0.0,0.1
1446040868893634352,154,1446040868890599966,robocape,9.22935008311,-1.15404713891,68.3251964458,0.0,10.0,0.0,0.0,0.0,10.0,0.0,0.0,0.0,10.0,0.00559263828917,0.0214384467751,0.00719053494321,1.0,0.0,0.0,0.0,1.0,0.0,0.0,0.0,1.0,0.0395178222656,-0.447868652344,10.024354248,0.1,0.0,0.0,0.0,0.1,0.0,0.0,0.0,0.1
1446040868926691352,155,1446040868923703908,robocape,9.19183419274,-1.0737282318,67.9121137726,0.0,10.0,0.0,0.0,0.0,10.0,0.0,0.0,0.0,10.0,0.00545948023466,0.0219710789932,0.00705737688871,1.0,0.0,0.0,0.0,1.0,0.0,0.0,0.0,1.0,0.0395178222656,-0.439486083984,10.0207617188,0.1,0.0,0.0,0.0,0.1,0.0,0.0,0.0,0.1
1446040868961275060,156,1446040868957818031,robocape,9.15501957588,-0.99474103762,67.5048433769,0.0,10.0,0.0,0.0,0.0,10.0,0.0,0.0,0.0,10.0,0.00572579634367,0.0218379209386,0.00705737688871,1.0,0.0,0.0,0.0,1.0,0.0,0.0,0.0,1.0,0.0395178222656,-0.439486083984,10.024354248,0.1,0.0,0.0,0.0,0.1,0.0,0.0,0.0,0.1
1446040868993791769,157,1446040868990714073,robocape,9.11946881552,-0.917420855807,67.1024803795,0.0,10.0,0.0,0.0,0.0,10.0,0.0,0.0,0.0,10.0,0.00625842856169,0.0214384467751,0.00652474467069,1.0,0.0,0.0,0.0,1.0,0.0,0.0,0.0,1.0,0.0395178222656,-0.426313476563,10.0267492676,0.1,0.0,0.0,0.0,0.1,0.0,0.0,0.0,0.1
1446040869027284019,158,1446040869023960113,robocape,9.08281993316,-0.840983292678,66.7063477007,0.0,10.0,0.0,0.0,0.0,10.0,0.0,0.0,0.0,10.0,0.00559263828917,0.0215716048296,0.00692421883421,1.0,0.0,0.0,0.0,1.0,0.0,0.0,0.0,1.0,0.0275427246094,-0.437091064453,10.039921875,0.1,0.0,0.0,0.0,0.1,0.0,0.0,0.0,0.1
1446040869060676269,159,1446040869057251930,robocape,9.0464117528,-0.764449884891,66.3153322312,0.0,10.0,0.0,0.0,0.0,10.0,0.0,0.0,0.0,10.0,0.00559263828917,0.0221042370477,0.00652474467069,1.0,0.0,0.0,0.0,1.0,0.0,0.0,0.0,1.0,0.0323327636719,-0.433498535156,10.0231567383,0.1,0.0,0.0,0.0,0.1,0.0,0.0,0.0,0.1
1446040869093500560,160,1446040869090430021,robocape,9.01073203567,-0.688866533416,65.9295098648,0.0,10.0,0.0,0.0,0.0,10.0,0.0,0.0,0.0,10.0,0.00585895439817,0.0221042370477,0.00639158661619,1.0,0.0,0.0,0.0,1.0,0.0,0.0,0.0,1.0,0.0443078613281,-0.438288574219,10.0027990723,0.1,0.0,0.0,0.0,0.1,0.0,0.0,0.0,0.1
1446040869126871560,161,1446040869123810052,robocape,8.97443351187,-0.614732103973,65.5501867585,0.0,10.0,0.0,0.0,0.0,10.0,0.0,0.0,0.0,10.0,0.00545948023466,0.0219710789932,0.00732369299772,1.0,0.0,0.0,0.0,1.0,0.0,0.0,0.0,1.0,0.028740234375,-0.433498535156,10.0087866211,0.1,0.0,0.0,0.0,0.1,0.0,0.0,0.0,0.1
1446040869160479060,162,1446040869157387971,robocape,8.93762146637,-0.543792993077,65.1757364989,0.0,10.0,0.0,0.0,0.0,10.0,0.0,0.0,0.0,10.0,0.00506000607115,0.0207726565026,0.00732369299772,1.0,0.0,0.0,0.0,1.0,0.0,0.0,0.0,1.0,0.0347277832031,-0.44068359375,10.0087866211,0.1,0.0,0.0,0.0,0.1,0.0,0.0,0.0,0.1
1446040869193697810,163,1446040869190644025,robocape,8.90110596551,-0.472560087596,64.8054095095,0.0,10.0,0.0,0.0,0.0,10.0,0.0,0.0,0.0,10.0,0.00506000607115,0.0213052887206,0.00652474467069,1.0,0.0,0.0,0.0,1.0,0.0,0.0,0.0,1.0,0.0443078613281,-0.44068359375,10.0375268555,0.1,0.0,0.0,0.0,0.1,0.0,0.0,0.0,0.1
1446040869226797435,164,1446040869223716020,robocape,8.86728083927,-0.401901285516,64.4410832897,0.0,10.0,0.0,0.0,0.0,10.0,0.0,0.0,0.0,10.0,0.00639158661619,0.0215716048296,0.00732369299772,1.0,0.0,0.0,0.0,1.0,0.0,0.0,0.0,1.0,0.0419128417969,-0.434696044922,10.0183666992,0.1,0.0,0.0,0.0,0.1,0.0,0.0,0.0,0.1
1446040869260433644,165,1446040869257297992,robocape,8.83395988855,-0.331254706831,64.0811560186,0.0,10.0,0.0,0.0,0.0,10.0,0.0,0.0,0.0,10.0,0.00652474467069,0.0219710789932,0.00692421883421,1.0,0.0,0.0,0.0,1.0,0.0,0.0,0.0,1.0,0.0431103515625,-0.422720947266,10.0459094238,0.1,0.0,0.0,0.0,0.1,0.0,0.0,0.0,0.1
1446040869293612477,166,1446040869290604114,robocape,8.79962406218,-0.261397605,63.725660551,0.0,10.0,0.0,0.0,0.0,10.0,0.0,0.0,0.0,10.0,0.00585895439817,0.0219710789932,0.0066579027252,1.0,0.0,0.0,0.0,1.0,0.0,0.0,0.0,1.0,0.0215551757813,-0.416733398438,10.0303417969,0.1,0.0,0.0,0.0,0.1,0.0,0.0,0.0,0.1
1446040869326734977,167,1446040869323753118,robocape,8.76576557501,-0.194190953714,63.3749354495,0.0,10.0,0.0,0.0,0.0,10.0,0.0,0.0,0.0,10.0,0.00599211245268,0.0210389726116,0.00692421883421,1.0,0.0,0.0,0.0,1.0,0.0,0.0,0.0,1.0,0.047900390625,-0.423918457031,10.0171691895,0.1,0.0,0.0,0.0,0.1,0.0,0.0,0.0,0.1
1446040869360319644,168,1446040869357121944,robocape,8.73065324322,-0.126194391471,63.0284787538,0.0,10.0,0.0,0.0,0.0,10.0,0.0,0.0,0.0,10.0,0.00519316412565,0.0218379209386,0.00652474467069,1.0,0.0,0.0,0.0,1.0,0.0,0.0,0.0,1.0,0.0455053710938,-0.429906005859,10.0147741699,0.1,0.0,0.0,0.0,0.1,0.0,0.0,0.0,0.1
1446040869393607852,169,1446040869390618085,robocape,8.69526188218,-0.0588137757029,62.6869044156,0.0,10.0,0.0,0.0,0.0,10.0,0.0,0.0,0.0,10.0,0.00492684801665,0.0219710789932,0.0067910607797,1.0,0.0,0.0,0.0,1.0,0.0,0.0,0.0,1.0,0.0443078613281,-0.423918457031,10.0327368164,0.1,0.0,0.0,0.0,0.1,0.0,0.0,0.0,0.1
1446040869426843727,170,1446040869423799991,robocape,8.66061512965,0.00750498440011,62.3498381601,0.0,10.0,0.0,0.0,0.0,10.0,0.0,0.0,0.0,10.0,0.00519316412565,0.0218379209386,0.00692421883421,1.0,0.0,0.0,0.0,1.0,0.0,0.0,0.0,1.0,0.0383203125,-0.425115966797,10.0327368164,0.1,0.0,0.0,0.0,0.1,0.0,0.0,0.0,0.1
1446040869460636852,171,1446040869457355976,robocape,8.62622107687,0.0735974882137,62.0169425996,0.0,10.0,0.0,0.0,0.0,10.0,0.0,0.0,0.0,10.0,0.00519316412565,0.0221042370477,0.0067910607797,1.0,0.0,0.0,0.0,1.0,0.0,0.0,0.0,1.0,0.0538879394531,-0.434696044922,10.0363293457,0.1,0.0,0.0,0.0,0.1,0.0,0.0,0.0,0.1
1446040869493559436,172,1446040869490542888,robocape,8.59434916489,0.138989152211,61.6879937562,0.0,10.0,0.0,0.0,0.0,10.0,0.0,0.0,0.0,10.0,0.00639158661619,0.0221042370477,0.0066579027252,1.0,0.0,0.0,0.0,1.0,0.0,0.0,0.0,1.0,0.0275427246094,-0.435893554688,10.0291442871,0.1,0.0,0.0,0.0,0.1,0.0,0.0,0.0,0.1
1446040869533733394,173,1446040869530410051,robocape,8.56220988835,0.203404119787,61.3631527672,0.0,10.0,0.0,0.0,0.0,10.0,0.0,0.0,0.0,10.0,0.00612527050718,0.0219710789932,0.0066579027252,1.0,0.0,0.0,0.0,1.0,0.0,0.0,0.0,1.0,0.0263452148438,-0.44068359375,10.0315393066,0.1,0.0,0.0,0.0,0.1,0.0,0.0,0.0,0.1
1446040869560802102,174,1446040869557554960,robocape,8.53057032445,0.266895361135,61.0421304578,0.0,10.0,0.0,0.0,0.0,10.0,0.0,0.0,0.0,10.0,0.00625842856169,0.0218379209386,0.00652474467069,1.0,0.0,0.0,0.0,1.0,0.0,0.0,0.0,1.0,0.0455053710938,-0.438288574219,10.0363293457,0.1,0.0,0.0,0.0,0.1,0.0,0.0,0.0,0.1
1446040869593764644,175,1446040869590688943,robocape,8.4984018872,0.329125503626,60.725406475,0.0,10.0,0.0,0.0,0.0,10.0,0.0,0.0,0.0,10.0,0.00585895439817,0.0215716048296,0.0067910607797,1.0,0.0,0.0,0.0,1.0,0.0,0.0,0.0,1.0,0.0490979003906,-0.439486083984,10.0435144043,0.1,0.0,0.0,0.0,0.1,0.0,0.0,0.0,0.1
1446040869626815686,176,1446040869623750925,robocape,8.46573316622,0.391245471564,60.4122868449,0.0,10.0,0.0,0.0,0.0,10.0,0.0,0.0,0.0,10.0,0.00545948023466,0.0218379209386,0.00652474467069,1.0,0.0,0.0,0.0,1.0,0.0,0.0,0.0,1.0,0.0395178222656,-0.432301025391,10.0447119141,0.1,0.0,0.0,0.0,0.1,0.0,0.0,0.0,0.1
1446040869660687477,177,1446040869657680988,robocape,8.43254658656,0.451629665105,60.103252052,0.0,10.0,0.0,0.0,0.0,10.0,0.0,0.0,0.0,10.0,0.00506000607115,0.0213052887206,0.0067910607797,1.0,0.0,0.0,0.0,1.0,0.0,0.0,0.0,1.0,0.0323327636719,-0.425115966797,10.0339343262,0.1,0.0,0.0,0.0,0.1,0.0,0.0,0.0,0.1
1446040869693935894,178,1446040869690915107,robocape,8.39988156926,0.511969663502,59.7974531159,0.0,10.0,0.0,0.0,0.0,10.0,0.0,0.0,0.0,10.0,0.00519316412565,0.0215716048296,0.00639158661619,1.0,0.0,0.0,0.0,1.0,0.0,0.0,0.0,1.0,0.0514929199219,-0.431103515625,10.0279467773,0.1,0.0,0.0,0.0,0.1,0.0,0.0,0.0,0.1
1446040869727221936,179,1446040869724236965,robocape,8.36770278978,0.572613842744,59.495825497,0.0,10.0,0.0,0.0,0.0,10.0,0.0,0.0,0.0,10.0,0.00532632218016,0.0221042370477,0.0066579027252,1.0,0.0,0.0,0.0,1.0,0.0,0.0,0.0,1.0,0.0419128417969,-0.437091064453,10.0327368164,0.1,0.0,0.0,0.0,0.1,0.0,0.0,0.0,0.1
1446040869760892352,180,1446040869757865905,robocape,8.33475566339,0.631310563236,59.1980475053,0.0,10.0,0.0,0.0,0.0,10.0,0.0,0.0,0.0,10.0,0.00479368996214,0.0214384467751,0.00692421883421,1.0,0.0,0.0,0.0,1.0,0.0,0.0,0.0,1.0,0.028740234375,-0.434696044922,10.0303417969,0.1,0.0,0.0,0.0,0.1,0.0,0.0,0.0,0.1
1446040869793779352,181,1446040869790771007,robocape,8.30359515181,0.68979008153,58.903031891,0.0,10.0,0.0,0.0,0.0,10.0,0.0,0.0,0.0,10.0,0.00559263828917,0.0215716048296,0.00639158661619,1.0,0.0,0.0,0.0,1.0,0.0,0.0,0.0,1.0,0.0383203125,-0.437091064453,10.0506994629,0.1,0.0,0.0,0.0,0.1,0.0,0.0,0.0,0.1
1446040869826838769,182,1446040869823857069,robocape,8.2728988777,0.748234369572,58.6127159997,0.0,10.0,0.0,0.0,0.0,10.0,0.0,0.0,0.0,10.0,0.00572579634367,0.0219710789932,0.00719053494321,1.0,0.0,0.0,0.0,1.0,0.0,0.0,0.0,1.0,0.0323327636719,-0.425115966797,10.0171691895,0.1,0.0,0.0,0.0,0.1,0.0,0.0,0.0,0.1
1446040869860856061,183,1446040869857654094,robocape,8.24145357571,0.806726955666,58.3251278174,0.0,10.0,0.0,0.0,0.0,10.0,0.0,0.0,0.0,10.0,0.00519316412565,0.0222373951022,0.0066579027252,1.0,0.0,0.0,0.0,1.0,0.0,0.0,0.0,1.0,0.028740234375,-0.425115966797,10.0375268555,0.1,0.0,0.0,0.0,0.1,0.0,0.0,0.0,0.1
1446040869893741311,184,1446040869890705108,robocape,8.21250644657,0.863772059052,58.0414863721,0.0,10.0,0.0,0.0,0.0,10.0,0.0,0.0,0.0,10.0,0.00639158661619,0.0218379209386,0.00719053494321,1.0,0.0,0.0,0.0,1.0,0.0,0.0,0.0,1.0,0.0347277832031,-0.439486083984,10.0435144043,0.1,0.0,0.0,0.0,0.1,0.0,0.0,0.0,0.1
1446040869926818811,185,1446040869923832893,robocape,8.18330384635,0.921397567394,57.7604927257,0.0,10.0,0.0,0.0,0.0,10.0,0.0,0.0,0.0,10.0,0.00612527050718,0.0223705531567,0.0066579027252,1.0,0.0,0.0,0.0,1.0,0.0,0.0,0.0,1.0,0.028740234375,-0.439486083984,10.0495019531,0.1,0.0,0.0,0.0,0.1,0.0,0.0,0.0,0.1
1446040869960837477,186,1446040869957571029,robocape,8.15307262865,0.977685813498,57.4828539001,0.0,10.0,0.0,0.0,0.0,10.0,0.0,0.0,0.0,10.0,0.00545948023466,0.0219710789932,0.0067910607797,1.0,0.0,0.0,0.0,1.0,0.0,0.0,0.0,1.0,0.0227526855469,-0.437091064453,10.0435144043,0.1,0.0,0.0,0.0,0.1,0.0,0.0,0.0,0.1
1446040869993887353,187,1446040869990643978,robocape,8.12281431137,1.03380950504,57.2092156813,0.0,10.0,0.0,0.0,0.0,10.0,0.0,0.0,0.0,10.0,0.00532632218016,0.0222373951022,0.00732369299772,1.0,0.0,0.0,0.0,1.0,0.0,0.0,0.0,1.0,0.0467028808594,-0.419128417969,10.024354248,0.1,0.0,0.0,0.0,0.1,0.0,0.0,0.0,0.1
1446040870027171061,188,1446040870023813962,robocape,8.09280841863,1.08875349517,56.9380031199,0.0,10.0,0.0,0.0,0.0,10.0,0.0,0.0,0.0,10.0,0.00532632218016,0.0218379209386,0.00692421883421,1.0,0.0,0.0,0.0,1.0,0.0,0.0,0.0,1.0,0.0431103515625,-0.427510986328,10.0016015625,0.1,0.0,0.0,0.0,0.1,0.0,0.0,0.0,0.1
1446040870069283686,189,1446040870065968990,robocape,8.06355337948,1.14325291637,56.6694379679,0.0,10.0,0.0,0.0,0.0,10.0,0.0,0.0,0.0,10.0,0.00559263828917,0.0218379209386,0.0066579027252,1.0,0.0,0.0,0.0,1.0,0.0,0.0,0.0,1.0,0.0455053710938,-0.437091064453,10.019564209,0.1,0.0,0.0,0.0,0.1,0.0,0.0,0.0,0.1
1446040870093659811,190,1446040870090595960,robocape,8.03453758633,1.19728423919,56.403676402,0.0,10.0,0.0,0.0,0.0,10.0,0.0,0.0,0.0,10.0,0.00559263828917,0.0218379209386,0.00652474467069,1.0,0.0,0.0,0.0,1.0,0.0,0.0,0.0,1.0,0.0383203125,-0.420325927734,10.0363293457,0.1,0.0,0.0,0.0,0.1,0.0,0.0,0.0,0.1
1446040870126816394,191,1446040870123760938,robocape,8.00725397254,1.24984980123,56.1420935785,0.0,10.0,0.0,0.0,0.0,10.0,0.0,0.0,0.0,10.0,0.00639158661619,0.0214384467751,0.00745685105222,1.0,0.0,0.0,0.0,1.0,0.0,0.0,0.0,1.0,0.0502954101563,-0.432301025391,10.0315393066,0.1,0.0,0.0,0.0,0.1,0.0,0.0,0.0,0.1
1446040870160783436,192,1446040870157742023,robocape,7.9804579243,1.30254349878,55.8828644741,0.0,10.0,0.0,0.0,0.0,10.0,0.0,0.0,0.0,10.0,0.00652474467069,0.0217047628841,0.00705737688871,1.0,0.0,0.0,0.0,1.0,0.0,0.0,0.0,1.0,0.0395178222656,-0.432301025391,10.0171691895,0.1,0.0,0.0,0.0,0.1,0.0,0.0,0.0,0.1
1446040870193703894,193,1446040870190651893,robocape,7.9546487102,1.35562495057,55.6259582539,0.0,10.0,0.0,0.0,0.0,10.0,0.0,0.0,0.0,10.0,0.00692421883421,0.0221042370477,0.0066579027252,1.0,0.0,0.0,0.0,1.0,0.0,0.0,0.0,1.0,0.0490979003906,-0.422720947266,10.0016015625,0.1,0.0,0.0,0.0,0.1,0.0,0.0,0.0,0.1
1446040870227024811,194,1446040870223787069,robocape,7.92804942965,1.4082444197,55.3718717335,0.0,10.0,0.0,0.0,0.0,10.0,0.0,0.0,0.0,10.0,0.00639158661619,0.0221042370477,0.0066579027252,1.0,0.0,0.0,0.0,1.0,0.0,0.0,0.0,1.0,0.0443078613281,-0.437091064453,10.0183666992,0.1,0.0,0.0,0.0,0.1,0.0,0.0,0.0,0.1
1446040870260887519,195,1446040870257863998,robocape,7.90092023312,1.45947087737,55.1200370027,0.0,10.0,0.0,0.0,0.0,10.0,0.0,0.0,0.0,10.0,0.00599211245268,0.0215716048296,0.00639158661619,1.0,0.0,0.0,0.0,1.0,0.0,0.0,0.0,1.0,0.0371228027344,-0.414338378906,10.0495019531,0.1,0.0,0.0,0.0,0.1,0.0,0.0,0.0,0.1
1446040870293556186,196,1446040870290568113,robocape,7.87174311928,1.51093795625,54.8714456935,0.0,10.0,0.0,0.0,0.0,10.0,0.0,0.0,0.0,10.0,0.00479368996214,0.0219710789932,0.0066579027252,1.0,0.0,0.0,0.0,1.0,0.0,0.0,0.0,1.0,0.0431103515625,-0.420325927734,10.0782421875,0.1,0.0,0.0,0.0,0.1,0.0,0.0,0.0,0.1
1446040870326821644,197,1446040870323843955,robocape,7.84179011452,1.5622143955,54.6255602339,0.0,10.0,0.0,0.0,0.0,10.0,0.0,0.0,0.0,10.0,0.00426105774413,0.0221042370477,0.0066579027252,1.0,0.0,0.0,0.0,1.0,0.0,0.0,0.0,1.0,0.0311352539063,-0.422720947266,10.0183666992,0.1,0.0,0.0,0.0,0.1,0.0,0.0,0.0,0.1
1446040870360743978,198,1446040870357686042,robocape,7.81232508336,1.61199014138,54.3825522421,0.0,10.0,0.0,0.0,0.0,10.0,0.0,0.0,0.0,10.0,0.00439421579863,0.0215716048296,0.00692421883421,1.0,0.0,0.0,0.0,1.0,0.0,0.0,0.0,1.0,0.0347277832031,-0.431103515625,10.0087866211,0.1,0.0,0.0,0.0,0.1,0.0,0.0,0.0,0.1
1446040870393865394,199,1446040870390530109,robocape,7.78486056537,1.66157130589,54.142289453,0.0,10.0,0.0,0.0,0.0,10.0,0.0,0.0,0.0,10.0,0.00532632218016,0.0217047628841,0.00705737688871,1.0,0.0,0.0,0.0,1.0,0.0,0.0,0.0,1.0,0.0347277832031,-0.444276123047,10.0351318359,0.1,0.0,0.0,0.0,0.1,0.0,0.0,0.0,0.1
1446040870428704269,200,1446040870425714969,robocape,7.75736849844,1.71093023424,53.9049759469,0.0,10.0,0.0,0.0,0.0,10.0,0.0,0.0,0.0,10.0,0.00519316412565,0.0218379209386,0.00732369299772,1.0,0.0,0.0,0.0,1.0,0.0,0.0,0.0,1.0,0.0383203125,-0.435893554688,10.0626745605,0.1,0.0,0.0,0.0,0.1,0.0,0.0,0.0,0.1
1446040870460807269,201,1446040870457523107,robocape,7.73085763376,1.76042466158,53.669973448,0.0,10.0,0.0,0.0,0.0,10.0,0.0,0.0,0.0,10.0,0.00559263828917,0.0221042370477,0.00719053494321,1.0,0.0,0.0,0.0,1.0,0.0,0.0,0.0,1.0,0.0371228027344,-0.434696044922,10.0267492676,0.1,0.0,0.0,0.0,0.1,0.0,0.0,0.0,0.1
1446040870493707811,202,1446040870490617990,robocape,7.70557564241,1.80783424,53.436774855,0.0,10.0,0.0,0.0,0.0,10.0,0.0,0.0,0.0,10.0,0.00612527050718,0.0211721306661,0.00692421883421,1.0,0.0,0.0,0.0,1.0,0.0,0.0,0.0,1.0,0.0347277832031,-0.422720947266,10.0315393066,0.1,0.0,0.0,0.0,0.1,0.0,0.0,0.0,0.1
1446040870533584603,203,1446040870530411958,robocape,7.68076269814,1.85599340046,53.2069133019,0.0,10.0,0.0,0.0,0.0,10.0,0.0,0.0,0.0,10.0,0.00625842856169,0.0218379209386,0.00745685105222,1.0,0.0,0.0,0.0,1.0,0.0,0.0,0.0,1.0,0.0490979003906,-0.433498535156,10.0327368164,0.1,0.0,0.0,0.0,0.1,0.0,0.0,0.0,0.1
1446040870563291936,204,1446040870560283899,robocape,7.65590931937,1.90374507649,52.9796076565,0.0,10.0,0.0,0.0,0.0,10.0,0.0,0.0,0.0,10.0,0.00612527050718,0.0218379209386,0.00759000910673,1.0,0.0,0.0,0.0,1.0,0.0,0.0,0.0,1.0,0.0299377441406,-0.427510986328,10.0231567383,0.1,0.0,0.0,0.0,0.1,0.0,0.0,0.0,0.1
1446040870593649519,205,1446040870590517044,robocape,7.62974563792,1.95210261586,52.7533240632,0.0,10.0,0.0,0.0,0.0,10.0,0.0,0.0,0.0,10.0,0.00532632218016,0.0222373951022,0.0066579027252,1.0,0.0,0.0,0.0,1.0,0.0,0.0,0.0,1.0,0.0347277832031,-0.437091064453,10.0483044434,0.1,0.0,0.0,0.0,0.1,0.0,0.0,0.0,0.1
1446040870626852978,206,1446040870623800039,robocape,7.60203141115,2.00002286433,52.5297649233,0.0,10.0,0.0,0.0,0.0,10.0,0.0,0.0,0.0,10.0,0.00439421579863,0.0222373951022,0.00692421883421,1.0,0.0,0.0,0.0,1.0,0.0,0.0,0.0,1.0,0.0299377441406,-0.437091064453,10.039921875,0.1,0.0,0.0,0.0,0.1,0.0,0.0,0.0,0.1
1446040870660714353,207,1446040870657522916,robocape,7.57630360949,2.04657896001,52.3082928031,0.0,10.0,0.0,0.0,0.0,10.0,0.0,0.0,0.0,10.0,0.00532632218016,0.0217047628841,0.00692421883421,1.0,0.0,0.0,0.0,1.0,0.0,0.0,0.0,1.0,0.0251477050781,-0.444276123047,10.0219592285,0.1,0.0,0.0,0.0,0.1,0.0,0.0,0.0,0.1
1446040870693856520,208,1446040870690787076,robocape,7.55153820215,2.09366806916,52.0882864145,0.0,10.0,0.0,0.0,0.0,10.0,0.0,0.0,0.0,10.0,0.00572579634367,0.0221042370477,0.00639158661619,1.0,0.0,0.0,0.0,1.0,0.0,0.0,0.0,1.0,0.0275427246094,-0.435893554688,10.024354248,0.1,0.0,0.0,0.0,0.1,0.0,0.0,0.0,0.1
1446040870726833728,209,1446040870723788022,robocape,7.52723065379,2.13965765814,51.8703671146,0.0,10.0,0.0,0.0,0.0,10.0,0.0,0.0,0.0,10.0,0.00585895439817,0.0217047628841,0.00639158661619,1.0,0.0,0.0,0.0,1.0,0.0,0.0,0.0,1.0,0.0275427246094,-0.428708496094,10.0255517578,0.1,0.0,0.0,0.0,0.1,0.0,0.0,0.0,0.1
1446040870761351186,210,1446040870758260965,robocape,7.50338164944,2.18553052518,51.6548178531,0.0,10.0,0.0,0.0,0.0,10.0,0.0,0.0,0.0,10.0,0.00599211245268,0.0218379209386,0.00652474467069,1.0,0.0,0.0,0.0,1.0,0.0,0.0,0.0,1.0,0.0323327636719,-0.438288574219,10.0339343262,0.1,0.0,0.0,0.0,0.1,0.0,0.0,0.0,0.1
1446040870793650436,211,1446040870790652036,robocape,7.47923824092,2.23069282411,51.4421743187,0.0,10.0,0.0,0.0,0.0,10.0,0.0,0.0,0.0,10.0,0.00572579634367,0.0217047628841,0.00705737688871,1.0,0.0,0.0,0.0,1.0,0.0,0.0,0.0,1.0,0.0490979003906,-0.431103515625,10.0207617188,0.1,0.0,0.0,0.0,0.1,0.0,0.0,0.0,0.1
1446040870826759895,212,1446040870823781013,robocape,7.45478219467,2.27691359432,51.230934499,0.0,10.0,0.0,0.0,0.0,10.0,0.0,0.0,0.0,10.0,0.00545948023466,0.0223705531567,0.00652474467069,1.0,0.0,0.0,0.0,1.0,0.0,0.0,0.0,1.0,0.0215551757813,-0.433498535156,10.024354248,0.1,0.0,0.0,0.0,0.1,0.0,0.0,0.0,0.1
1446040870860691228,213,1446040870857482910,robocape,7.4307811863,2.32152232003,51.0217955294,0.0,10.0,0.0,0.0,0.0,10.0,0.0,0.0,0.0,10.0,0.00559263828917,0.0217047628841,0.0066579027252,1.0,0.0,0.0,0.0,1.0,0.0,0.0,0.0,1.0,0.0299377441406,-0.420325927734,10.0471069336,0.1,0.0,0.0,0.0,0.1,0.0,0.0,0.0,0.1
1446040870893627770,214,1446040870890595912,robocape,7.40800495241,2.36616421829,50.815724344,0.0,10.0,0.0,0.0,0.0,10.0,0.0,0.0,0.0,10.0,0.00612527050718,0.0219710789932,0.00732369299772,1.0,0.0,0.0,0.0,1.0,0.0,0.0,0.0,1.0,0.0335302734375,-0.44068359375,10.0471069336,0.1,0.0,0.0,0.0,0.1,0.0,0.0,0.0,0.1
1446040870926807395,215,1446040870923825979,robocape,7.38489686449,2.40892942654,50.6102103953,0.0,10.0,0.0,0.0,0.0,10.0,0.0,0.0,0.0,10.0,0.00585895439817,0.0210389726116,0.00652474467069,1.0,0.0,0.0,0.0,1.0,0.0,0.0,0.0,1.0,0.0335302734375,-0.427510986328,10.0411193848,0.1,0.0,0.0,0.0,0.1,0.0,0.0,0.0,0.1
1446040870960772478,216,1446040870957511901,robocape,7.36250770847,2.45199490701,50.4077486687,0.0,10.0,0.0,0.0,0.0,10.0,0.0,0.0,0.0,10.0,0.00612527050718,0.0214384467751,0.00719053494321,1.0,0.0,0.0,0.0,1.0,0.0,0.0,0.0,1.0,0.0395178222656,-0.435893554688,10.0135766602,0.1,0.0,0.0,0.0,0.1,0.0,0.0,0.0,0.1
1446040870993707686,217,1446040870990566968,robocape,7.34082314383,2.4957112228,50.2077117727,0.0,10.0,0.0,0.0,0.0,10.0,0.0,0.0,0.0,10.0,0.00639158661619,0.0219710789932,0.00745685105222,1.0,0.0,0.0,0.0,1.0,0.0,0.0,0.0,1.0,0.0311352539063,-0.439486083984,10.0087866211,0.1,0.0,0.0,0.0,0.1,0.0,0.0,0.0,0.1
1446040871026953686,218,1446040871023860931,robocape,7.31803890948,2.53882183583,50.008288788,0.0,10.0,0.0,0.0,0.0,10.0,0.0,0.0,0.0,10.0,0.00572579634367,0.0217047628841,0.0066579027252,1.0,0.0,0.0,0.0,1.0,0.0,0.0,0.0,1.0,0.0455053710938,-0.432301025391,10.0004040527,0.1,0.0,0.0,0.0,0.1,0.0,0.0,0.0,0.1
1446040871060942145,219,1446040871057651996,robocape,7.29518861033,2.58192858297,49.810553109,0.0,10.0,0.0,0.0,0.0,10.0,0.0,0.0,0.0,10.0,0.00559263828917,0.0218379209386,0.00652474467069,1.0,0.0,0.0,0.0,1.0,0.0,0.0,0.0,1.0,0.0467028808594,-0.415535888672,10.0387243652,0.1,0.0,0.0,0.0,0.1,0.0,0.0,0.0,0.1
1446040871093715353,220,1446040871090509891,robocape,7.27353354339,2.62528865899,49.6144791755,0.0,10.0,0.0,0.0,0.0,10.0,0.0,0.0,0.0,10.0,0.00612527050718,0.0221042370477,0.00639158661619,1.0,0.0,0.0,0.0,1.0,0.0,0.0,0.0,1.0,0.0443078613281,-0.427510986328,10.0087866211,0.1,0.0,0.0,0.0,0.1,0.0,0.0,0.0,0.1
1446040871126928020,221,1446040871123862028,robocape,7.25080582067,2.66629409283,49.4204368712,0.0,10.0,0.0,0.0,0.0,10.0,0.0,0.0,0.0,10.0,0.00545948023466,0.0210389726116,0.0066579027252,1.0,0.0,0.0,0.0,1.0,0.0,0.0,0.0,1.0,0.0359252929688,-0.432301025391,10.0219592285,0.1,0.0,0.0,0.0,0.1,0.0,0.0,0.0,0.1
1446040871160595395,222,1446040871157530069,robocape,7.22725828935,2.70778421454,49.228276422,0.0,10.0,0.0,0.0,0.0,10.0,0.0,0.0,0.0,10.0,0.00492684801665,0.0214384467751,0.0066579027252,1.0,0.0,0.0,0.0,1.0,0.0,0.0,0.0,1.0,0.0383203125,-0.432301025391,10.0123791504,0.1,0.0,0.0,0.0,0.1,0.0,0.0,0.0,0.1
1446040871193688436,223,1446040871190517902,robocape,7.20592658099,2.74923092497,49.0380646992,0.0,10.0,0.0,0.0,0.0,10.0,0.0,0.0,0.0,10.0,0.00599211245268,0.0215716048296,0.0067910607797,1.0,0.0,0.0,0.0,1.0,0.0,0.0,0.0,1.0,0.0455053710938,-0.44068359375,10.0159716797,0.1,0.0,0.0,0.0,0.1,0.0,0.0,0.0,0.1
1446040871227100103,224,1446040871224111080,robocape,7.18402298479,2.79038449302,48.8498020175,0.0,10.0,0.0,0.0,0.0,10.0,0.0,0.0,0.0,10.0,0.00559263828917,0.0215716048296,0.00692421883421,1.0,0.0,0.0,0.0,1.0,0.0,0.0,0.0,1.0,0.0299377441406,-0.416733398438,10.0375268555,0.1,0.0,0.0,0.0,0.1,0.0,0.0,0.0,0.1
1446040871261232770,225,1446040871258114099,robocape,7.16228704907,2.83288324178,48.6627722696,0.0,10.0,0.0,0.0,0.0,10.0,0.0,0.0,0.0,10.0,0.00559263828917,0.0223705531567,0.00652474467069,1.0,0.0,0.0,0.0,1.0,0.0,0.0,0.0,1.0,0.0275427246094,-0.433498535156,10.0027990723,0.1,0.0,0.0,0.0,0.1,0.0,0.0,0.0,0.1
1446040871293814103,226,1446040871290641069,robocape,7.14147425995,2.87443257161,48.4769069503,0.0,10.0,0.0,0.0,0.0,10.0,0.0,0.0,0.0,10.0,0.00599211245268,0.0219710789932,0.00625842856169,1.0,0.0,0.0,0.0,1.0,0.0,0.0,0.0,1.0,0.0311352539063,-0.429906005859,10.0099841309,0.1,0.0,0.0,0.0,0.1,0.0,0.0,0.0,0.1
1446040871326726103,227,1446040871323756933,robocape,7.12059522812,2.91591918097,48.2931480312,0.0,10.0,0.0,0.0,0.0,10.0,0.0,0.0,0.0,10.0,0.00585895439817,0.0221042370477,0.00652474467069,1.0,0.0,0.0,0.0,1.0,0.0,0.0,0.0,1.0,0.047900390625,-0.427510986328,10.0459094238,0.1,0.0,0.0,0.0,0.1,0.0,0.0,0.0,0.1
1446040871361997478,228,1446040871358536958,robocape,7.09937174133,2.95671647583,48.1105557247,0.0,10.0,0.0,0.0,0.0,10.0,0.0,0.0,0.0,10.0,0.00559263828917,0.0218379209386,0.00625842856169,1.0,0.0,0.0,0.0,1.0,0.0,0.0,0.0,1.0,0.0467028808594,-0.425115966797,10.0219592285,0.1,0.0,0.0,0.0,0.1,0.0,0.0,0.0,0.1
1446040871393776520,229,1446040871390435934,robocape,7.07709620493,2.99632760943,47.9307770261,0.0,10.0,0.0,0.0,0.0,10.0,0.0,0.0,0.0,10.0,0.00492684801665,0.0214384467751,0.00705737688871,1.0,0.0,0.0,0.0,1.0,0.0,0.0,0.0,1.0,0.0251477050781,-0.441881103516,10.0483044434,0.1,0.0,0.0,0.0,0.1,0.0,0.0,0.0,0.1
1446040871427093978,230,1446040871423963069,robocape,7.05523230102,3.03529287032,47.7518888563,0.0,10.0,0.0,0.0,0.0,10.0,0.0,0.0,0.0,10.0,0.00506000607115,0.0211721306661,0.0066579027252,1.0,0.0,0.0,0.0,1.0,0.0,0.0,0.0,1.0,0.0419128417969,-0.433498535156,10.0363293457,0.1,0.0,0.0,0.0,0.1,0.0,0.0,0.0,0.1
1446040871461052228,231,1446040871457747936,robocape,7.03306252837,3.07519020878,47.5753331875,0.0,10.0,0.0,0.0,0.0,10.0,0.0,0.0,0.0,10.0,0.00479368996214,0.0218379209386,0.00705737688871,1.0,0.0,0.0,0.0,1.0,0.0,0.0,0.0,1.0,0.0467028808594,-0.433498535156,10.0267492676,0.1,0.0,0.0,0.0,0.1,0.0,0.0,0.0,0.1
1446040871494123937,232,1446040871490709066,robocape,7.01080914883,3.1148860209,47.4001035317,0.0,10.0,0.0,0.0,0.0,10.0,0.0,0.0,0.0,10.0,0.00466053190764,0.0218379209386,0.00692421883421,1.0,0.0,0.0,0.0,1.0,0.0,0.0,0.0,1.0,0.028740234375,-0.451461181641,10.0087866211,0.1,0.0,0.0,0.0,0.1,0.0,0.0,0.0,0.1
1446040871533879937,233,1446040871530761003,robocape,6.99000039915,3.1540723954,47.2265489098,0.0,10.0,0.0,0.0,0.0,10.0,0.0,0.0,0.0,10.0,0.00532632218016,0.0217047628841,0.00705737688871,1.0,0.0,0.0,0.0,1.0,0.0,0.0,0.0,1.0,0.0299377441406,-0.446671142578,10.0267492676,0.1,0.0,0.0,0.0,0.1,0.0,0.0,0.0,0.1
1446040871560795312,234,1446040871557502031,robocape,6.97111297051,3.19234628534,47.0539532073,0.0,10.0,0.0,0.0,0.0,10.0,0.0,0.0,0.0,10.0,0.00625842856169,0.0213052887206,0.0067910607797,1.0,0.0,0.0,0.0,1.0,0.0,0.0,0.0,1.0,0.0335302734375,-0.437091064453,10.0578845215,0.1,0.0,0.0,0.0,0.1,0.0,0.0,0.0,0.1
1446040871593800187,235,1446040871590426921,robocape,6.95315561768,3.23188490431,46.8831848794,0.0,10.0,0.0,0.0,0.0,10.0,0.0,0.0,0.0,10.0,0.0066579027252,0.0221042370477,0.00692421883421,1.0,0.0,0.0,0.0,1.0,0.0,0.0,0.0,1.0,0.0203576660156,-0.437091064453,10.0207617188,0.1,0.0,0.0,0.0,0.1,0.0,0.0,0.0,0.1
1446040871626869312,236,1446040871623786926,robocape,6.93380592253,3.27057499669,46.7129681988,0.0,10.0,0.0,0.0,0.0,10.0,0.0,0.0,0.0,10.0,0.00585895439817,0.0217047628841,0.00639158661619,1.0,0.0,0.0,0.0,1.0,0.0,0.0,0.0,1.0,0.0275427246094,-0.428708496094,10.0255517578,0.1,0.0,0.0,0.0,0.1,0.0,0.0,0.0,0.1
1446040871660862770,237,1446040871657818078,robocape,6.91387733102,3.31024794839,46.544754226,0.0,10.0,0.0,0.0,0.0,10.0,0.0,0.0,0.0,10.0,0.00545948023466,0.0223705531567,0.0066579027252,1.0,0.0,0.0,0.0,1.0,0.0,0.0,0.0,1.0,0.0335302734375,-0.427510986328,10.0435144043,0.1,0.0,0.0,0.0,0.1,0.0,0.0,0.0,0.1
1446040871693891103,238,1446040871690514087,robocape,6.89437443519,3.34813701465,46.3782206282,0.0,10.0,0.0,0.0,0.0,10.0,0.0,0.0,0.0,10.0,0.00559263828917,0.0215716048296,0.00692421883421,1.0,0.0,0.0,0.0,1.0,0.0,0.0,0.0,1.0,0.0431103515625,-0.44068359375,10.0459094238,0.1,0.0,0.0,0.0,0.1,0.0,0.0,0.0,0.1
1446040871727880895,239,1446040871723754882,robocape,6.8732373596,3.38540870038,46.2124199579,0.0,10.0,0.0,0.0,0.0,10.0,0.0,0.0,0.0,10.0,0.00466053190764,0.0213052887206,0.00652474467069,1.0,0.0,0.0,0.0,1.0,0.0,0.0,0.0,1.0,0.0431103515625,-0.444276123047,10.0255517578,0.1,0.0,0.0,0.0,0.1,0.0,0.0,0.0,0.1
1446040871761003853,240,1446040871757683038,robocape,6.85178049161,3.42367393052,46.0485588837,0.0,10.0,0.0,0.0,0.0,10.0,0.0,0.0,0.0,10.0,0.00439421579863,0.0219710789932,0.0067910607797,1.0,0.0,0.0,0.0,1.0,0.0,0.0,0.0,1.0,0.047900390625,-0.431103515625,10.0351318359,0.1,0.0,0.0,0.0,0.1,0.0,0.0,0.0,0.1
1446040871793867145,241,1446040871790518045,robocape,6.83251785639,3.46170737281,45.8862319851,0.0,10.0,0.0,0.0,0.0,10.0,0.0,0.0,0.0,10.0,0.00545948023466,0.0219710789932,0.00692421883421,1.0,0.0,0.0,0.0,1.0,0.0,0.0,0.0,1.0,0.0490979003906,-0.453856201172,10.0375268555,0.1,0.0,0.0,0.0,0.1,0.0,0.0,0.0,0.1
1446040871826851020,242,1446040871823853969,robocape,6.81417623949,3.4990102075,45.725391518,0.0,10.0,0.0,0.0,0.0,10.0,0.0,0.0,0.0,10.0,0.00585895439817,0.0217047628841,0.00705737688871,1.0,0.0,0.0,0.0,1.0,0.0,0.0,0.0,1.0,0.0347277832031,-0.452658691406,10.0183666992,0.1,0.0,0.0,0.0,0.1,0.0,0.0,0.0,0.1
1446040871860679895,243,1446040871857177972,robocape,6.79692658113,3.53686958845,45.5641892126,0.0,10.0,0.0,0.0,0.0,10.0,0.0,0.0,0.0,10.0,0.00639158661619,0.0219710789932,0.00599211245268,1.0,0.0,0.0,0.0,1.0,0.0,0.0,0.0,1.0,0.0275427246094,-0.443078613281,10.0315393066,0.1,0.0,0.0,0.0,0.1,0.0,0.0,0.0,0.1
1446040871899586937,244,1446040871896476030,robocape,6.77963129941,3.57306616137,45.4056775336,0.0,10.0,0.0,0.0,0.0,10.0,0.0,0.0,0.0,10.0,0.00625842856169,0.0213052887206,0.00692421883421,1.0,0.0,0.0,0.0,1.0,0.0,0.0,0.0,1.0,0.0323327636719,-0.435893554688,10.0267492676,0.1,0.0,0.0,0.0,0.1,0.0,0.0,0.0,0.1
1446040871926817562,245,1446040871923831939,robocape,6.76300206689,3.61055918515,45.2488066998,0.0,10.0,0.0,0.0,0.0,10.0,0.0,0.0,0.0,10.0,0.00652474467069,0.0221042370477,0.00705737688871,1.0,0.0,0.0,0.0,1.0,0.0,0.0,0.0,1.0,0.0407153320313,-0.433498535156,10.0171691895,0.1,0.0,0.0,0.0,0.1,0.0,0.0,0.0,0.1
1446040871961283145,246,1446040871957988977,robocape,6.74522988168,3.64692074616,45.0926916945,0.0,10.0,0.0,0.0,0.0,10.0,0.0,0.0,0.0,10.0,0.00585895439817,0.0215716048296,0.0067910607797,1.0,0.0,0.0,0.0,1.0,0.0,0.0,0.0,1.0,0.0299377441406,-0.423918457031,10.0363293457,0.1,0.0,0.0,0.0,0.1,0.0,0.0,0.0,0.1
1446040871994209853,247,1446040871990617990,robocape,6.72761561194,3.68357467288,44.9380933103,0.0,10.0,0.0,0.0,0.0,10.0,0.0,0.0,0.0,10.0,0.00585895439817,0.0218379209386,0.00692421883421,1.0,0.0,0.0,0.0,1.0,0.0,0.0,0.0,1.0,0.0455053710938,-0.423918457031,10.0279467773,0.1,0.0,0.0,0.0,0.1,0.0,0.0,0.0,0.1
1446040872027067687,248,1446040872023760080,robocape,6.71014968238,3.72130710782,44.7848515494,0.0,10.0,0.0,0.0,0.0,10.0,0.0,0.0,0.0,10.0,0.00585895439817,0.0225037112112,0.00692421883421,1.0,0.0,0.0,0.0,1.0,0.0,0.0,0.0,1.0,0.0311352539063,-0.425115966797,10.0542919922,0.1,0.0,0.0,0.0,0.1,0.0,0.0,0.0,0.1
1446040872061023312,249,1446040872057339906,robocape,6.69357295852,3.758637913,44.63257307,0.0,10.0,0.0,0.0,0.0,10.0,0.0,0.0,0.0,10.0,0.00625842856169,0.0223705531567,0.0067910607797,1.0,0.0,0.0,0.0,1.0,0.0,0.0,0.0,1.0,0.0323327636719,-0.426313476563,10.024354248,0.1,0.0,0.0,0.0,0.1,0.0,0.0,0.0,0.1
1446040872093850145,250,1446040872090543031,robocape,6.67715066464,3.79422169046,44.4817812033,0.0,10.0,0.0,0.0,0.0,10.0,0.0,0.0,0.0,10.0,0.00625842856169,0.0215716048296,0.00705737688871,1.0,0.0,0.0,0.0,1.0,0.0,0.0,0.0,1.0,0.0383203125,-0.444276123047,10.0075891113,0.1,0.0,0.0,0.0,0.1,0.0,0.0,0.0,0.1
1446040872126907270,251,1446040872123840093,robocape,6.65905928534,3.83076235917,44.3314354467,0.0,10.0,0.0,0.0,0.0,10.0,0.0,0.0,0.0,10.0,0.00532632218016,0.0221042370477,0.00652474467069,1.0,0.0,0.0,0.0,1.0,0.0,0.0,0.0,1.0,0.0323327636719,-0.44068359375,10.024354248,0.1,0.0,0.0,0.0,0.1,0.0,0.0,0.0,0.1
1446040872160873604,252,1446040872157274007,robocape,6.64186642961,3.86637635736,44.1821792737,0.0,10.0,0.0,0.0,0.0,10.0,0.0,0.0,0.0,10.0,0.00572579634367,0.0217047628841,0.00652474467069,1.0,0.0,0.0,0.0,1.0,0.0,0.0,0.0,1.0,0.0311352539063,-0.431103515625,10.0363293457,0.1,0.0,0.0,0.0,0.1,0.0,0.0,0.0,0.1
1446040872193655020,253,1446040872190383911,robocape,6.62535189126,3.90198514384,44.0347503235,0.0,10.0,0.0,0.0,0.0,10.0,0.0,0.0,0.0,10.0,0.00599211245268,0.0218379209386,0.00692421883421,1.0,0.0,0.0,0.0,1.0,0.0,0.0,0.0,1.0,0.0383203125,-0.431103515625,10.0303417969,0.1,0.0,0.0,0.0,0.1,0.0,0.0,0.0,0.1
1446040872226815354,254,1446040872223750114,robocape,6.60922627971,3.9374300283,43.888458928,0.0,10.0,0.0,0.0,0.0,10.0,0.0,0.0,0.0,10.0,0.00612527050718,0.0218379209386,0.00692421883421,1.0,0.0,0.0,0.0,1.0,0.0,0.0,0.0,1.0,0.0395178222656,-0.425115966797,10.0315393066,0.1,0.0,0.0,0.0,0.1,0.0,0.0,0.0,0.1
1446040872261126854,255,1446040872257359981,robocape,6.59219094561,3.97305445918,43.7426823498,0.0,10.0,0.0,0.0,0.0,10.0,0.0,0.0,0.0,10.0,0.00559263828917,0.0219710789932,0.00652474467069,1.0,0.0,0.0,0.0,1.0,0.0,0.0,0.0,1.0,0.028740234375,-0.419128417969,10.0447119141,0.1,0.0,0.0,0.0,0.1,0.0,0.0,0.0,0.1
1446040872293765854,256,1446040872290539979,robocape,6.57577200637,4.00782284875,43.597507782,0.0,10.0,0.0,0.0,0.0,10.0,0.0,0.0,0.0,10.0,0.00585895439817,0.0215716048296,0.00625842856169,1.0,0.0,0.0,0.0,1.0,0.0,0.0,0.0,1.0,0.0407153320313,-0.428708496094,10.0004040527,0.1,0.0,0.0,0.0,0.1,0.0,0.0,0.0,0.1
1446040872326762020,257,1446040872323775053,robocape,6.55728242335,4.04250404928,43.4548030568,0.0,10.0,0.0,0.0,0.0,10.0,0.0,0.0,0.0,10.0,0.00466053190764,0.0217047628841,0.00705737688871,1.0,0.0,0.0,0.0,1.0,0.0,0.0,0.0,1.0,0.0395178222656,-0.443078613281,10.0267492676,0.1,0.0,0.0,0.0,0.1,0.0,0.0,0.0,0.1
1446040872360864104,258,1446040872357183933,robocape,6.53941442108,4.07683726415,43.3127144395,0.0,10.0,0.0,0.0,0.0,10.0,0.0,0.0,0.0,10.0,0.00492684801665,0.0215716048296,0.0067910607797,1.0,0.0,0.0,0.0,1.0,0.0,0.0,0.0,1.0,0.0431103515625,-0.439486083984,10.0530944824,0.1,0.0,0.0,0.0,0.1,0.0,0.0,0.0,0.1
1446040872394286645,259,1446040872390544891,robocape,6.52424661174,4.11067729228,43.1722927673,0.0,10.0,0.0,0.0,0.0,10.0,0.0,0.0,0.0,10.0,0.00625842856169,0.0214384467751,0.00719053494321,1.0,0.0,0.0,0.0,1.0,0.0,0.0,0.0,1.0,0.0311352539063,-0.431103515625,10.0351318359,0.1,0.0,0.0,0.0,0.1,0.0,0.0,0.0,0.1
1446040872432547145,260,1446040872429357051,robocape,6.50837062487,4.14659173594,43.031600477,0.0,10.0,0.0,0.0,0.0,10.0,0.0,0.0,0.0,10.0,0.00585895439817,0.0225037112112,0.00625842856169,1.0,0.0,0.0,0.0,1.0,0.0,0.0,0.0,1.0,0.0347277832031,-0.433498535156,10.0159716797,0.1,0.0,0.0,0.0,0.1,0.0,0.0,0.0,0.1
1446040872465673145,261,1446040872462523937,robocape,6.49341245286,4.18100453375,42.8924849838,0.0,10.0,0.0,0.0,0.0,10.0,0.0,0.0,0.0,10.0,0.00625842856169,0.0218379209386,0.0066579027252,1.0,0.0,0.0,0.0,1.0,0.0,0.0,0.0,1.0,0.0395178222656,-0.437091064453,10.0459094238,0.1,0.0,0.0,0.0,0.1,0.0,0.0,0.0,0.1
1446040872498087437,262,1446040872494851112,robocape,6.47804679255,4.21482669489,42.7539272875,0.0,10.0,0.0,0.0,0.0,10.0,0.0,0.0,0.0,10.0,0.00599211245268,0.0215716048296,0.00639158661619,1.0,0.0,0.0,0.0,1.0,0.0,0.0,0.0,1.0,0.047900390625,-0.444276123047,10.0483044434,0.1,0.0,0.0,0.0,0.1,0.0,0.0,0.0,0.1
1446040872532918729,263,1446040872529671907,robocape,6.46311207017,4.24888907499,42.6173154242,0.0,10.0,0.0,0.0,0.0,10.0,0.0,0.0,0.0,10.0,0.00612527050718,0.0218379209386,0.00692421883421,1.0,0.0,0.0,0.0,1.0,0.0,0.0,0.0,1.0,0.0455053710938,-0.438288574219,10.024354248,0.1,0.0,0.0,0.0,0.1,0.0,0.0,0.0,0.1
1446040872568215687,264,1446040872565021991,robocape,6.44752764823,4.28233468138,42.4814554255,0.0,10.0,0.0,0.0,0.0,10.0,0.0,0.0,0.0,10.0,0.00572579634367,0.0215716048296,0.0067910607797,1.0,0.0,0.0,0.0,1.0,0.0,0.0,0.0,1.0,0.0359252929688,-0.437091064453,10.0231567383,0.1,0.0,0.0,0.0,0.1,0.0,0.0,0.0,0.1
1446040872603120770,265,1446040872599693059,robocape,6.43230842339,4.31567005307,42.3463696987,0.0,10.0,0.0,0.0,0.0,10.0,0.0,0.0,0.0,10.0,0.00585895439817,0.0215716048296,0.0066579027252,1.0,0.0,0.0,0.0,1.0,0.0,0.0,0.0,1.0,0.0359252929688,-0.419128417969,10.0423168945,0.1,0.0,0.0,0.0,0.1,0.0,0.0,0.0,0.1
1446040872634162187,266,1446040872630954980,robocape,6.4159363152,4.34914783765,42.2120917577,0.0,10.0,0.0,0.0,0.0,10.0,0.0,0.0,0.0,10.0,0.00519316412565,0.0217047628841,0.00652474467069,1.0,0.0,0.0,0.0,1.0,0.0,0.0,0.0,1.0,0.0323327636719,-0.415535888672,10.0327368164,0.1,0.0,0.0,0.0,0.1,0.0,0.0,0.0,0.1
1446040872669342854,267,1446040872665949106,robocape,6.40022173234,4.38217624982,42.079198933,0.0,10.0,0.0,0.0,0.0,10.0,0.0,0.0,0.0,10.0,0.00545948023466,0.0215716048296,0.0067910607797,1.0,0.0,0.0,0.0,1.0,0.0,0.0,0.0,1.0,0.0359252929688,-0.428708496094,10.0363293457,0.1,0.0,0.0,0.0,0.1,0.0,0.0,0.0,0.1
1446040872705453604,268,1446040872701579093,robocape,6.38541522204,4.41475894126,41.9476744885,0.0,10.0,0.0,0.0,0.0,10.0,0.0,0.0,0.0,10.0,0.00585895439817,0.0214384467751,0.00705737688871,1.0,0.0,0.0,0.0,1.0,0.0,0.0,0.0,1.0,0.0335302734375,-0.428708496094,10.0267492676,0.1,0.0,0.0,0.0,0.1,0.0,0.0,0.0,0.1
1446040872736294895,269,1446040872733150959,robocape,6.37094664369,4.44880899167,41.8165725739,0.0,10.0,0.0,0.0,0.0,10.0,0.0,0.0,0.0,10.0,0.00599211245268,0.0222373951022,0.0066579027252,1.0,0.0,0.0,0.0,1.0,0.0,0.0,0.0,1.0,0.0179626464844,-0.428708496094,10.0423168945,0.1,0.0,0.0,0.0,0.1,0.0,0.0,0.0,0.1
1446040872760726687,270,1446040872757328033,robocape,6.35788650096,4.48266534833,41.6868336798,0.0,10.0,0.0,0.0,0.0,10.0,0.0,0.0,0.0,10.0,0.0066579027252,0.0222373951022,0.00692421883421,1.0,0.0,0.0,0.0,1.0,0.0,0.0,0.0,1.0,0.0323327636719,-0.427510986328,10.0255517578,0.1,0.0,0.0,0.0,0.1,0.0,0.0,0.0,0.1
1446040872793552396,271,1446040872790494918,robocape,6.34424706355,4.51573825526,41.5590880169,0.0,10.0,0.0,0.0,0.0,10.0,0.0,0.0,0.0,10.0,0.00625842856169,0.0219710789932,0.00759000910673,1.0,0.0,0.0,0.0,1.0,0.0,0.0,0.0,1.0,0.0407153320313,-0.429906005859,10.024354248,0.1,0.0,0.0,0.0,0.1,0.0,0.0,0.0,0.1
1446040872826909604,272,1446040872823926925,robocape,6.33110147908,4.54945179394,41.4303012632,0.0,10.0,0.0,0.0,0.0,10.0,0.0,0.0,0.0,10.0,0.00652474467069,0.0222373951022,0.00639158661619,1.0,0.0,0.0,0.0,1.0,0.0,0.0,0.0,1.0,0.0407153320313,-0.423918457031,10.0650695801,0.1,0.0,0.0,0.0,0.1,0.0,0.0,0.0,0.1
1446040872860354937,273,1446040872857194900,robocape,6.31629125896,4.58177658817,41.3023326624,0.0,10.0,0.0,0.0,0.0,10.0,0.0,0.0,0.0,10.0,0.00559263828917,0.0215716048296,0.00639158661619,1.0,0.0,0.0,0.0,1.0,0.0,0.0,0.0,1.0,0.0371228027344,-0.420325927734,10.0255517578,0.1,0.0,0.0,0.0,0.1,0.0,0.0,0.0,0.1
1446040872893719687,274,1446040872890618085,robocape,6.30059963824,4.61369435704,41.1754759518,0.0,10.0,0.0,0.0,0.0,10.0,0.0,0.0,0.0,10.0,0.00506000607115,0.0214384467751,0.00652474467069,1.0,0.0,0.0,0.0,1.0,0.0,0.0,0.0,1.0,0.0383203125,-0.426313476563,10.0303417969,0.1,0.0,0.0,0.0,0.1,0.0,0.0,0.0,0.1
1446040872926869437,275,1446040872923815965,robocape,6.2853541311,4.64559299937,41.0506350585,0.0,10.0,0.0,0.0,0.0,10.0,0.0,0.0,0.0,10.0,0.00519316412565,0.0215716048296,0.00719053494321,1.0,0.0,0.0,0.0,1.0,0.0,0.0,0.0,1.0,0.0371228027344,-0.445473632813,10.0315393066,0.1,0.0,0.0,0.0,0.1,0.0,0.0,0.0,0.1
1446040872960178604,276,1446040872957145929,robocape,6.26987315621,4.67858179016,40.9252068946,0.0,10.0,0.0,0.0,0.0,10.0,0.0,0.0,0.0,10.0,0.00506000607115,0.0221042370477,0.00625842856169,1.0,0.0,0.0,0.0,1.0,0.0,0.0,0.0,1.0,0.0407153320313,-0.439486083984,10.0099841309,0.1,0.0,0.0,0.0,0.1,0.0,0.0,0.0,0.1
1446040872993493937,277,1446040872990482091,robocape,6.25657678067,4.71160977263,40.801310586,0.0,10.0,0.0,0.0,0.0,10.0,0.0,0.0,0.0,10.0,0.00612527050718,0.0222373951022,0.0066579027252,1.0,0.0,0.0,0.0,1.0,0.0,0.0,0.0,1.0,0.0383203125,-0.446671142578,10.0267492676,0.1,0.0,0.0,0.0,0.1,0.0,0.0,0.0,0.1
1446040873027456812,278,1446040873023854017,robocape,6.24409402201,4.74284183079,40.6774355551,0.0,10.0,0.0,0.0,0.0,10.0,0.0,0.0,0.0,10.0,0.00652474467069,0.0213052887206,0.00625842856169,1.0,0.0,0.0,0.0,1.0,0.0,0.0,0.0,1.0,0.0490979003906,-0.437091064453,10.0375268555,0.1,0.0,0.0,0.0,0.1,0.0,0.0,0.0,0.1
1446040873060327271,279,1446040873057229995,robocape,6.23132507581,4.77526402663,40.5561110586,0.0,10.0,0.0,0.0,0.0,10.0,0.0,0.0,0.0,10.0,0.00625842856169,0.0221042370477,0.00719053494321,1.0,0.0,0.0,0.0,1.0,0.0,0.0,0.0,1.0,0.0347277832031,-0.426313476563,10.0087866211,0.1,0.0,0.0,0.0,0.1,0.0,0.0,0.0,0.1
1446040873093524354,280,1446040873090451955,robocape,6.21835990469,4.80715266322,40.43490819,0.0,10.0,0.0,0.0,0.0,10.0,0.0,0.0,0.0,10.0,0.00612527050718,0.0218379209386,0.0067910607797,1.0,0.0,0.0,0.0,1.0,0.0,0.0,0.0,1.0,0.0215551757813,-0.427510986328,10.024354248,0.1,0.0,0.0,0.0,0.1,0.0,0.0,0.0,0.1
1446040873126984479,281,1446040873123764038,robocape,6.20545357937,4.83901349651,40.3138634767,0.0,10.0,0.0,0.0,0.0,10.0,0.0,0.0,0.0,10.0,0.00612527050718,0.0218379209386,0.00639158661619,1.0,0.0,0.0,0.0,1.0,0.0,0.0,0.0,1.0,0.0299377441406,-0.439486083984,10.0231567383,0.1,0.0,0.0,0.0,0.1,0.0,0.0,0.0,0.1
1446040873160446937,282,1446040873157270908,robocape,6.19217671617,4.87044956465,40.1940696887,0.0,10.0,0.0,0.0,0.0,10.0,0.0,0.0,0.0,10.0,0.00585895439817,0.0217047628841,0.0066579027252,1.0,0.0,0.0,0.0,1.0,0.0,0.0,0.0,1.0,0.0431103515625,-0.437091064453,10.060279541,0.1,0.0,0.0,0.0,0.1,0.0,0.0,0.0,0.1
1446040873194719687,283,1446040873191567897,robocape,6.17899295726,4.90255735622,40.0749291218,0.0,10.0,0.0,0.0,0.0,10.0,0.0,0.0,0.0,10.0,0.00585895439817,0.0221042370477,0.00652474467069,1.0,0.0,0.0,0.0,1.0,0.0,0.0,0.0,1.0,0.0526904296875,-0.431103515625,10.0303417969,0.1,0.0,0.0,0.0,0.1,0.0,0.0,0.0,0.1
1446040873226779979,284,1446040873223706007,robocape,6.16600863971,4.93412485528,39.9579069733,0.0,10.0,0.0,0.0,0.0,10.0,0.0,0.0,0.0,10.0,0.00585895439817,0.0219710789932,0.00732369299772,1.0,0.0,0.0,0.0,1.0,0.0,0.0,0.0,1.0,0.0323327636719,-0.439486083984,10.0171691895,0.1,0.0,0.0,0.0,0.1,0.0,0.0,0.0,0.1
1446040873260410729,285,1446040873257186889,robocape,6.15457887478,4.96544650639,39.8407345901,0.0,10.0,0.0,0.0,0.0,10.0,0.0,0.0,0.0,10.0,0.0066579027252,0.0218379209386,0.0067910607797,1.0,0.0,0.0,0.0,1.0,0.0,0.0,0.0,1.0,0.0347277832031,-0.447868652344,10.0339343262,0.1,0.0,0.0,0.0,0.1,0.0,0.0,0.0,0.1
1446040873293485187,286,1446040873290482044,robocape,6.14295896891,4.996214738,39.7238554029,0.0,10.0,0.0,0.0,0.0,10.0,0.0,0.0,0.0,10.0,0.00652474467069,0.0215716048296,0.00652474467069,1.0,0.0,0.0,0.0,1.0,0.0,0.0,0.0,1.0,0.028740234375,-0.4215234375,10.0267492676,0.1,0.0,0.0,0.0,0.1,0.0,0.0,0.0,0.1
1446040873326777604,287,1446040873323796987,robocape,6.13121875671,5.0270707792,39.6082255214,0.0,10.0,0.0,0.0,0.0,10.0,0.0,0.0,0.0,10.0,0.00639158661619,0.0217047628841,0.0067910607797,1.0,0.0,0.0,0.0,1.0,0.0,0.0,0.0,1.0,0.0299377441406,-0.420325927734,10.0327368164,0.1,0.0,0.0,0.0,0.1,0.0,0.0,0.0,0.1
1446040873360322646,288,1446040873357134103,robocape,6.11856251576,5.05731792261,39.4933284885,0.0,10.0,0.0,0.0,0.0,10.0,0.0,0.0,0.0,10.0,0.00585895439817,0.0214384467751,0.0067910607797,1.0,0.0,0.0,0.0,1.0,0.0,0.0,0.0,1.0,0.0359252929688,-0.429906005859,10.0303417969,0.1,0.0,0.0,0.0,0.1,0.0,0.0,0.0,0.1
1446040873393479979,289,1446040873390466928,robocape,6.10528666522,5.08841047694,39.3797336374,0.0,10.0,0.0,0.0,0.0,10.0,0.0,0.0,0.0,10.0,0.00545948023466,0.0219710789932,0.00705737688871,1.0,0.0,0.0,0.0,1.0,0.0,0.0,0.0,1.0,0.0299377441406,-0.429906005859,10.019564209,0.1,0.0,0.0,0.0,0.1,0.0,0.0,0.0,0.1
1446040873426814937,290,1446040873423840045,robocape,6.09187967665,5.12012347138,39.2671762612,0.0,10.0,0.0,0.0,0.0,10.0,0.0,0.0,0.0,10.0,0.00532632218016,0.0223705531567,0.00719053494321,1.0,0.0,0.0,0.0,1.0,0.0,0.0,0.0,1.0,0.0371228027344,-0.428708496094,10.0171691895,0.1,0.0,0.0,0.0,0.1,0.0,0.0,0.0,0.1
1446040873460323646,291,1446040873457142114,robocape,6.07958015525,5.1507227341,39.1552537119,0.0,10.0,0.0,0.0,0.0,10.0,0.0,0.0,0.0,10.0,0.00585895439817,0.0218379209386,0.00719053494321,1.0,0.0,0.0,0.0,1.0,0.0,0.0,0.0,1.0,0.0359252929688,-0.435893554688,10.0542919922,0.1,0.0,0.0,0.0,0.1,0.0,0.0,0.0,0.1
1446040873493470021,292,1446040873490456104,robocape,6.06654863219,5.18108390484,39.043146889,0.0,10.0,0.0,0.0,0.0,10.0,0.0,0.0,0.0,10.0,0.00545948023466,0.0217047628841,0.0066579027252,1.0,0.0,0.0,0.0,1.0,0.0,0.0,0.0,1.0,0.0395178222656,-0.444276123047,10.0423168945,0.1,0.0,0.0,0.0,0.1,0.0,0.0,0.0,0.1
1446040873535455813,293,1446040873532180070,robocape,6.0558941593,5.21159595023,38.9317611114,0.0,10.0,0.0,0.0,0.0,10.0,0.0,0.0,0.0,10.0,0.0066579027252,0.0218379209386,0.0066579027252,1.0,0.0,0.0,0.0,1.0,0.0,0.0,0.0,1.0,0.0419128417969,-0.427510986328,10.0375268555,0.1,0.0,0.0,0.0,0.1,0.0,0.0,0.0,0.1
1446040873560410604,294,1446040873557173013,robocape,6.04379302399,5.24153427883,38.820842112,0.0,10.0,0.0,0.0,0.0,10.0,0.0,0.0,0.0,10.0,0.00585895439817,0.0215716048296,0.00652474467069,1.0,0.0,0.0,0.0,1.0,0.0,0.0,0.0,1.0,0.0455053710938,-0.420325927734,10.0219592285,0.1,0.0,0.0,0.0,0.1,0.0,0.0,0.0,0.1
1446040873593732313,295,1446040873590650081,robocape,6.0315061862,5.27294288421,38.7103170218,0.0,10.0,0.0,0.0,0.0,10.0,0.0,0.0,0.0,10.0,0.00572579634367,0.0223705531567,0.00625842856169,1.0,0.0,0.0,0.0,1.0,0.0,0.0,0.0,1.0,0.0323327636719,-0.429906005859,10.0303417969,0.1,0.0,0.0,0.0,0.1,0.0,0.0,0.0,0.1
1446040873626802813,296,1446040873623771905,robocape,6.01788306635,5.303602351,38.6015977308,0.0,10.0,0.0,0.0,0.0,10.0,0.0,0.0,0.0,10.0,0.00492684801665,0.0221042370477,0.00692421883421,1.0,0.0,0.0,0.0,1.0,0.0,0.0,0.0,1.0,0.0323327636719,-0.427510986328,10.0267492676,0.1,0.0,0.0,0.0,0.1,0.0,0.0,0.0,0.1
1446040873660380938,297,1446040873657144069,robocape,6.00507851738,5.3337162563,38.4930666954,0.0,10.0,0.0,0.0,0.0,10.0,0.0,0.0,0.0,10.0,0.00532632218016,0.0218379209386,0.0066579027252,1.0,0.0,0.0,0.0,1.0,0.0,0.0,0.0,1.0,0.0299377441406,-0.434696044922,10.0183666992,0.1,0.0,0.0,0.0,0.1,0.0,0.0,0.0,0.1
1446040873693484938,298,1446040873690418004,robocape,5.99211918966,5.36423692777,38.385268629,0.0,10.0,0.0,0.0,0.0,10.0,0.0,0.0,0.0,10.0,0.00519316412565,0.0221042370477,0.0066579027252,1.0,0.0,0.0,0.0,1.0,0.0,0.0,0.0,1.0,0.0347277832031,-0.419128417969,10.0459094238,0.1,0.0,0.0,0.0,0.1,0.0,0.0,0.0,0.1
1446040873726882646,299,1446040873723829030,robocape,5.97929065306,5.3943511268,38.2785803466,0.0,10.0,0.0,0.0,0.0,10.0,0.0,0.0,0.0,10.0,0.00519316412565,0.0219710789932,0.00692421883421,1.0,0.0,0.0,0.0,1.0,0.0,0.0,0.0,1.0,0.0311352539063,-0.438288574219,10.039921875,0.1,0.0,0.0,0.0,0.1,0.0,0.0,0.0,0.1
1446040873760275896,300,1446040873757227897,robocape,5.96773251158,5.4252683208,38.1714816381,0.0,10.0,0.0,0.0,0.0,10.0,0.0,0.0,0.0,10.0,0.00585895439817,0.0223705531567,0.00625842856169,1.0,0.0,0.0,0.0,1.0,0.0,0.0,0.0,1.0,0.0347277832031,-0.437091064453,10.0363293457,0.1,0.0,0.0,0.0,0.1,0.0,0.0,0.0,0.1
1446040873793583313,301,1446040873790606975,robocape,5.95630986596,5.45398948791,38.0655602621,0.0,10.0,0.0,0.0,0.0,10.0,0.0,0.0,0.0,10.0,0.00585895439817,0.0213052887206,0.0066579027252,1.0,0.0,0.0,0.0,1.0,0.0,0.0,0.0,1.0,0.0407153320313,-0.438288574219,10.0566870117,0.1,0.0,0.0,0.0,0.1,0.0,0.0,0.0,0.1
1446040873826850771,302,1446040873823857069,robocape,5.94607132452,5.48376608598,37.9613008279,0.0,10.0,0.0,0.0,0.0,10.0,0.0,0.0,0.0,10.0,0.00639158661619,0.0219710789932,0.00719053494321,1.0,0.0,0.0,0.0,1.0,0.0,0.0,0.0,1.0,0.0347277832031,-0.432301025391,10.039921875,0.1,0.0,0.0,0.0,0.1,0.0,0.0,0.0,0.1
1446040873860485938,303,1446040873857301950,robocape,5.93534980376,5.51253082532,37.8569297825,0.0,10.0,0.0,0.0,0.0,10.0,0.0,0.0,0.0,10.0,0.00612527050718,0.0214384467751,0.0067910607797,1.0,0.0,0.0,0.0,1.0,0.0,0.0,0.0,1.0,0.0335302734375,-0.431103515625,10.0171691895,0.1,0.0,0.0,0.0,0.1,0.0,0.0,0.0,0.1
1446040873901914521,304,1446040873898328065,robocape,5.92400105858,5.54240986586,37.7537720482,0.0,10.0,0.0,0.0,0.0,10.0,0.0,0.0,0.0,10.0,0.00572579634367,0.0221042370477,0.00705737688871,1.0,0.0,0.0,0.0,1.0,0.0,0.0,0.0,1.0,0.0251477050781,-0.434696044922,10.0231567383,0.1,0.0,0.0,0.0,0.1,0.0,0.0,0.0,0.1
1446040873936094771,305,1446040873932750940,robocape,5.91213069557,5.57108218976,37.6500144118,0.0,10.0,0.0,0.0,0.0,10.0,0.0,0.0,0.0,10.0,0.00545948023466,0.0214384467751,0.00639158661619,1.0,0.0,0.0,0.0,1.0,0.0,0.0,0.0,1.0,0.0275427246094,-0.425115966797,10.0483044434,0.1,0.0,0.0,0.0,0.1,0.0,0.0,0.0,0.1
1446040873969002813,306,1446040873965779066,robocape,5.90037065945,5.59989101009,37.547141173,0.0,10.0,0.0,0.0,0.0,10.0,0.0,0.0,0.0,10.0,0.00545948023466,0.0215716048296,0.00652474467069,1.0,0.0,0.0,0.0,1.0,0.0,0.0,0.0,1.0,0.0455053710938,-0.427510986328,10.0303417969,0.1,0.0,0.0,0.0,0.1,0.0,0.0,0.0,0.1
1446040874001091479,307,1446040873997906923,robocape,5.88981309298,5.62922616845,37.4460847324,0.0,10.0,0.0,0.0,0.0,10.0,0.0,0.0,0.0,10.0,0.00599211245268,0.0219710789932,0.00719053494321,1.0,0.0,0.0,0.0,1.0,0.0,0.0,0.0,1.0,0.0383203125,-0.431103515625,10.0411193848,0.1,0.0,0.0,0.0,0.1,0.0,0.0,0.0,0.1
1446040874032531479,308,1446040874029381036,robocape,5.88003255553,5.65730105582,37.3448483782,0.0,10.0,0.0,0.0,0.0,10.0,0.0,0.0,0.0,10.0,0.00639158661619,0.0213052887206,0.0067910607797,1.0,0.0,0.0,0.0,1.0,0.0,0.0,0.0,1.0,0.0431103515625,-0.416733398438,10.0099841309,0.1,0.0,0.0,0.0,0.1,0.0,0.0,0.0,0.1
1446040874062673604,309,1446040874059432029,robocape,5.87036989799,5.68448207541,37.2446188583,0.0,10.0,0.0,0.0,0.0,10.0,0.0,0.0,0.0,10.0,0.00639158661619,0.0209058145571,0.00705737688871,1.0,0.0,0.0,0.0,1.0,0.0,0.0,0.0,1.0,0.0407153320313,-0.44068359375,10.0339343262,0.1,0.0,0.0,0.0,0.1,0.0,0.0,0.0,0.1
1446040874095344396,310,1446040874092047929,robocape,5.86050274979,5.71289990439,37.1446476628,0.0,10.0,0.0,0.0,0.0,10.0,0.0,0.0,0.0,10.0,0.00625842856169,0.0215716048296,0.0067910607797,1.0,0.0,0.0,0.0,1.0,0.0,0.0,0.0,1.0,0.047900390625,-0.429906005859,10.039921875,0.1,0.0,0.0,0.0,0.1,0.0,0.0,0.0,0.1
1446040874128956188,311,1446040874125727891,robocape,5.84869375215,5.74148773994,37.0453194314,0.0,10.0,0.0,0.0,0.0,10.0,0.0,0.0,0.0,10.0,0.00519316412565,0.0217047628841,0.0067910607797,1.0,0.0,0.0,0.0,1.0,0.0,0.0,0.0,1.0,0.0419128417969,-0.427510986328,10.0495019531,0.1,0.0,0.0,0.0,0.1,0.0,0.0,0.0,0.1
1446040874166148229,312,1446040874162688970,robocape,5.836928959,5.76979711064,36.9461089118,0.0,10.0,0.0,0.0,0.0,10.0,0.0,0.0,0.0,10.0,0.00519316412565,0.0215716048296,0.00652474467069,1.0,0.0,0.0,0.0,1.0,0.0,0.0,0.0,1.0,0.0407153320313,-0.434696044922,10.0315393066,0.1,0.0,0.0,0.0,0.1,0.0,0.0,0.0,0.1
1446040874193851438,313,1446040874190639019,robocape,5.8245535513,5.79819153371,36.8482026202,0.0,10.0,0.0,0.0,0.0,10.0,0.0,0.0,0.0,10.0,0.00479368996214,0.0217047628841,0.00692421883421,1.0,0.0,0.0,0.0,1.0,0.0,0.0,0.0,1.0,0.0455053710938,-0.4215234375,10.0063916016,0.1,0.0,0.0,0.0,0.1,0.0,0.0,0.0,0.1
1446040874226813730,314,1446040874223793029,robocape,5.81273130923,5.82681192632,36.7504365642,0.0,10.0,0.0,0.0,0.0,10.0,0.0,0.0,0.0,10.0,0.00506000607115,0.0218379209386,0.0066579027252,1.0,0.0,0.0,0.0,1.0,0.0,0.0,0.0,1.0,0.0431103515625,-0.426313476563,10.0219592285,0.1,0.0,0.0,0.0,0.1,0.0,0.0,0.0,0.1
1446040874260581896,315,1446040874257282972,robocape,5.80231975343,5.85501371235,36.6539004788,0.0,10.0,0.0,0.0,0.0,10.0,0.0,0.0,0.0,10.0,0.00572579634367,0.0217047628841,0.00705737688871,1.0,0.0,0.0,0.0,1.0,0.0,0.0,0.0,1.0,0.0431103515625,-0.428708496094,10.0471069336,0.1,0.0,0.0,0.0,0.1,0.0,0.0,0.0,0.1
1446040874293504646,316,1446040874290524005,robocape,5.79218156301,5.88372408361,36.5572864825,0.0,10.0,0.0,0.0,0.0,10.0,0.0,0.0,0.0,10.0,0.00585895439817,0.0219710789932,0.0066579027252,1.0,0.0,0.0,0.0,1.0,0.0,0.0,0.0,1.0,0.0455053710938,-0.435893554688,10.0267492676,0.1,0.0,0.0,0.0,0.1,0.0,0.0,0.0,0.1
1446040874326721271,317,1446040874323760986,robocape,5.78434460555,5.91394854024,36.4606537498,0.0,10.0,0.0,0.0,0.0,10.0,0.0,0.0,0.0,10.0,0.00705737688871,0.0227700273202,0.00625842856169,1.0,0.0,0.0,0.0,1.0,0.0,0.0,0.0,1.0,0.0275427246094,-0.428708496094,10.0255517578,0.1,0.0,0.0,0.0,0.1,0.0,0.0,0.0,0.1
1446040874360580688,318,1446040874357243061,robocape,5.77477281173,5.94185309464,36.3641888239,0.0,10.0,0.0,0.0,0.0,10.0,0.0,0.0,0.0,10.0,0.00612527050718,0.0215716048296,0.00612527050718,1.0,0.0,0.0,0.0,1.0,0.0,0.0,0.0,1.0,0.0251477050781,-0.425115966797,10.0219592285,0.1,0.0,0.0,0.0,0.1,0.0,0.0,0.0,0.1
1446040874394135980,319,1446040874390678882,robocape,5.76384887014,5.97032414228,36.2692779422,0.0,10.0,0.0,0.0,0.0,10.0,0.0,0.0,0.0,10.0,0.00532632218016,0.0219710789932,0.0066579027252,1.0,0.0,0.0,0.0,1.0,0.0,0.0,0.0,1.0,0.0395178222656,-0.423918457031,10.0303417969,0.1,0.0,0.0,0.0,0.1,0.0,0.0,0.0,0.1
1446040874426729105,320,1446040874423712015,robocape,5.75306616482,5.99812874043,36.1755638367,0.0,10.0,0.0,0.0,0.0,10.0,0.0,0.0,0.0,10.0,0.00532632218016,0.0217047628841,0.00705737688871,1.0,0.0,0.0,0.0,1.0,0.0,0.0,0.0,1.0,0.0395178222656,-0.433498535156,10.0518969727,0.1,0.0,0.0,0.0,0.1,0.0,0.0,0.0,0.1
1446040874460445438,321,1446040874457035064,robocape,5.74253641148,6.02722788061,36.0815735293,0.0,10.0,0.0,0.0,0.0,10.0,0.0,0.0,0.0,10.0,0.00545948023466,0.0223705531567,0.00652474467069,1.0,0.0,0.0,0.0,1.0,0.0,0.0,0.0,1.0,0.0347277832031,-0.429906005859,10.0147741699,0.1,0.0,0.0,0.0,0.1,0.0,0.0,0.0,0.1
1446040874494008980,322,1446040874490910053,robocape,5.73156773117,6.05448554515,35.9879858494,0.0,10.0,0.0,0.0,0.0,10.0,0.0,0.0,0.0,10.0,0.00519316412565,0.0214384467751,0.00652474467069,1.0,0.0,0.0,0.0,1.0,0.0,0.0,0.0,1.0,0.0431103515625,-0.431103515625,10.0207617188,0.1,0.0,0.0,0.0,0.1,0.0,0.0,0.0,0.1
1446040874533961813,323,1446040874530875921,robocape,5.72127778412,6.0825640901,35.8959295845,0.0,10.0,0.0,0.0,0.0,10.0,0.0,0.0,0.0,10.0,0.00545948023466,0.0219710789932,0.00705737688871,1.0,0.0,0.0,0.0,1.0,0.0,0.0,0.0,1.0,0.0431103515625,-0.452658691406,10.0075891113,0.1,0.0,0.0,0.0,0.1,0.0,0.0,0.0,0.1
1446040874560542896,324,1446040874557153940,robocape,5.71178206702,6.11112624162,35.803972863,0.0,10.0,0.0,0.0,0.0,10.0,0.0,0.0,0.0,10.0,0.00585895439817,0.0222373951022,0.0067910607797,1.0,0.0,0.0,0.0,1.0,0.0,0.0,0.0,1.0,0.0431103515625,-0.433498535156,10.0183666992,0.1,0.0,0.0,0.0,0.1,0.0,0.0,0.0,0.1
1446040874593844896,325,1446040874590796947,robocape,5.70336749045,6.1388567898,35.7124689665,0.0,10.0,0.0,0.0,0.0,10.0,0.0,0.0,0.0,10.0,0.00639158661619,0.0218379209386,0.0067910607797,1.0,0.0,0.0,0.0,1.0,0.0,0.0,0.0,1.0,0.0419128417969,-0.434696044922,10.0351318359,0.1,0.0,0.0,0.0,0.1,0.0,0.0,0.0,0.1
1446040874626961438,326,1446040874623925924,robocape,5.69603979281,6.16726954723,35.6215351964,0.0,10.0,0.0,0.0,0.0,10.0,0.0,0.0,0.0,10.0,0.00692421883421,0.0222373951022,0.0067910607797,1.0,0.0,0.0,0.0,1.0,0.0,0.0,0.0,1.0,0.0395178222656,-0.433498535156,10.0279467773,0.1,0.0,0.0,0.0,0.1,0.0,0.0,0.0,0.1
1446040874660796730,327,1446040874657264947,robocape,5.68935172549,6.19552473119,35.531800821,0.0,10.0,0.0,0.0,0.0,10.0,0.0,0.0,0.0,10.0,0.00719053494321,0.0222373951022,0.00719053494321,1.0,0.0,0.0,0.0,1.0,0.0,0.0,0.0,1.0,0.0359252929688,-0.428708496094,10.0123791504,0.1,0.0,0.0,0.0,0.1,0.0,0.0,0.0,0.1
1446040874693893271,328,1446040874690886974,robocape,5.6808401895,6.22334403931,35.4413968262,0.0,10.0,0.0,0.0,0.0,10.0,0.0,0.0,0.0,10.0,0.00625842856169,0.0219710789932,0.00652474467069,1.0,0.0,0.0,0.0,1.0,0.0,0.0,0.0,1.0,0.0419128417969,-0.425115966797,10.0159716797,0.1,0.0,0.0,0.0,0.1,0.0,0.0,0.0,0.1
1446040874727059896,329,1446040874724076032,robocape,5.67156612699,6.25042021604,35.3507553235,0.0,10.0,0.0,0.0,0.0,10.0,0.0,0.0,0.0,10.0,0.00585895439817,0.0215716048296,0.00612527050718,1.0,0.0,0.0,0.0,1.0,0.0,0.0,0.0,1.0,0.0538879394531,-0.4215234375,10.0183666992,0.1,0.0,0.0,0.0,0.1,0.0,0.0,0.0,0.1
1446040874760702271,330,1446040874757158041,robocape,5.66105379615,6.2776800035,35.2627488153,0.0,10.0,0.0,0.0,0.0,10.0,0.0,0.0,0.0,10.0,0.00506000607115,0.0218379209386,0.00732369299772,1.0,0.0,0.0,0.0,1.0,0.0,0.0,0.0,1.0,0.0502954101563,-0.425115966797,10.0471069336,0.1,0.0,0.0,0.0,0.1,0.0,0.0,0.0,0.1
1446040874793582605,331,1446040874790580034,robocape,5.65227555117,6.30551090828,35.174102556,0.0,10.0,0.0,0.0,0.0,10.0,0.0,0.0,0.0,10.0,0.00599211245268,0.0221042370477,0.0066579027252,1.0,0.0,0.0,0.0,1.0,0.0,0.0,0.0,1.0,0.028740234375,-0.425115966797,10.0291442871,0.1,0.0,0.0,0.0,0.1,0.0,0.0,0.0,0.1
1446040874826967230,332,1446040874823981046,robocape,5.64305836881,6.33301924879,35.085932126,0.0,10.0,0.0,0.0,0.0,10.0,0.0,0.0,0.0,10.0,0.00572579634367,0.0219710789932,0.0066579027252,1.0,0.0,0.0,0.0,1.0,0.0,0.0,0.0,1.0,0.0467028808594,-0.4215234375,10.0339343262,0.1,0.0,0.0,0.0,0.1,0.0,0.0,0.0,0.1
1446040874860550105,333,1446040874857131004,robocape,5.63413195919,6.35897496736,34.997896207,0.0,10.0,0.0,0.0,0.0,10.0,0.0,0.0,0.0,10.0,0.00585895439817,0.0211721306661,0.00652474467069,1.0,0.0,0.0,0.0,1.0,0.0,0.0,0.0,1.0,0.0455053710938,-0.4215234375,10.0303417969,0.1,0.0,0.0,0.0,0.1,0.0,0.0,0.0,0.1
1446040874894906772,334,1446040874891674995,robocape,5.6243435675,6.38654485618,34.9111867283,0.0,10.0,0.0,0.0,0.0,10.0,0.0,0.0,0.0,10.0,0.00532632218016,0.0221042370477,0.00692421883421,1.0,0.0,0.0,0.0,1.0,0.0,0.0,0.0,1.0,0.0490979003906,-0.444276123047,10.0351318359,0.1,0.0,0.0,0.0,0.1,0.0,0.0,0.0,0.1
1446040874927112897,335,1446040874924110889,robocape,5.61439612118,6.414017234,34.825185628,0.0,10.0,0.0,0.0,0.0,10.0,0.0,0.0,0.0,10.0,0.00519316412565,0.0221042370477,0.00705737688871,1.0,0.0,0.0,0.0,1.0,0.0,0.0,0.0,1.0,0.0371228027344,-0.433498535156,10.0375268555,0.1,0.0,0.0,0.0,0.1,0.0,0.0,0.0,0.1
1446040874960623355,336,1446040874957112073,robocape,5.60464804317,6.44055172953,34.7384162371,0.0,10.0,0.0,0.0,0.0,10.0,0.0,0.0,0.0,10.0,0.00532632218016,0.0215716048296,0.00639158661619,1.0,0.0,0.0,0.0,1.0,0.0,0.0,0.0,1.0,0.0263452148438,-0.428708496094,10.0231567383,0.1,0.0,0.0,0.0,0.1,0.0,0.0,0.0,0.1
1446040874994081022,337,1446040874990995883,robocape,5.59478877397,6.46693717287,34.6528157633,0.0,10.0,0.0,0.0,0.0,10.0,0.0,0.0,0.0,10.0,0.00519316412565,0.0215716048296,0.0067910607797,1.0,0.0,0.0,0.0,1.0,0.0,0.0,0.0,1.0,0.0359252929688,-0.4215234375,10.0135766602,0.1,0.0,0.0,0.0,0.1,0.0,0.0,0.0,0.1
1446040875027218647,338,1446040875023885965,robocape,5.58401744209,6.49423671854,34.5679987379,0.0,10.0,0.0,0.0,0.0,10.0,0.0,0.0,0.0,10.0,0.00466053190764,0.0221042370477,0.00692421883421,1.0,0.0,0.0,0.0,1.0,0.0,0.0,0.0,1.0,0.0311352539063,-0.428708496094,10.0171691895,0.1,0.0,0.0,0.0,0.1,0.0,0.0,0.0,0.1
1446040875060813188,339,1446040875057286977,robocape,5.57328934367,6.52074035883,34.48334876,0.0,10.0,0.0,0.0,0.0,10.0,0.0,0.0,0.0,10.0,0.00466053190764,0.0217047628841,0.0067910607797,1.0,0.0,0.0,0.0,1.0,0.0,0.0,0.0,1.0,0.0335302734375,-0.425115966797,10.0471069336,0.1,0.0,0.0,0.0,0.1,0.0,0.0,0.0,0.1
1446040875093729397,340,1446040875090641975,robocape,5.56313947534,6.54717802382,34.3991499679,0.0,10.0,0.0,0.0,0.0,10.0,0.0,0.0,0.0,10.0,0.00492684801665,0.0217047628841,0.0067910607797,1.0,0.0,0.0,0.0,1.0,0.0,0.0,0.0,1.0,0.0227526855469,-0.427510986328,10.0207617188,0.1,0.0,0.0,0.0,0.1,0.0,0.0,0.0,0.1
1446040875127032397,341,1446040875123980998,robocape,5.55301246155,6.57385751866,34.3149584426,0.0,10.0,0.0,0.0,0.0,10.0,0.0,0.0,0.0,10.0,0.00492684801665,0.0218379209386,0.00652474467069,1.0,0.0,0.0,0.0,1.0,0.0,0.0,0.0,1.0,0.0359252929688,-0.435893554688,10.0411193848,0.1,0.0,0.0,0.0,0.1,0.0,0.0,0.0,0.1
1446040875160804855,342,1446040875157330989,robocape,5.54467176326,6.59951907188,34.2306594892,0.0,10.0,0.0,0.0,0.0,10.0,0.0,0.0,0.0,10.0,0.00585895439817,0.0213052887206,0.00625842856169,1.0,0.0,0.0,0.0,1.0,0.0,0.0,0.0,1.0,0.0490979003906,-0.443078613281,10.0339343262,0.1,0.0,0.0,0.0,0.1,0.0,0.0,0.0,0.1
1446040875193646105,343,1446040875190604925,robocape,5.53718154996,6.62534335527,34.1470555079,0.0,10.0,0.0,0.0,0.0,10.0,0.0,0.0,0.0,10.0,0.00625842856169,0.0214384467751,0.00639158661619,1.0,0.0,0.0,0.0,1.0,0.0,0.0,0.0,1.0,0.0323327636719,-0.426313476563,10.0423168945,0.1,0.0,0.0,0.0,0.1,0.0,0.0,0.0,0.1
1446040875227001563,344,1446040875223984003,robocape,5.53054526405,6.65233738998,34.0642189443,0.0,10.0,0.0,0.0,0.0,10.0,0.0,0.0,0.0,10.0,0.0066579027252,0.0221042370477,0.00652474467069,1.0,0.0,0.0,0.0,1.0,0.0,0.0,0.0,1.0,0.0371228027344,-0.431103515625,10.0483044434,0.1,0.0,0.0,0.0,0.1,0.0,0.0,0.0,0.1
1446040875260472063,345,1446040875257045030,robocape,5.5239611854,6.67826103748,33.9817431531,0.0,10.0,0.0,0.0,0.0,10.0,0.0,0.0,0.0,10.0,0.0066579027252,0.0215716048296,0.00652474467069,1.0,0.0,0.0,0.0,1.0,0.0,0.0,0.0,1.0,0.0323327636719,-0.44068359375,10.0447119141,0.1,0.0,0.0,0.0,0.1,0.0,0.0,0.0,0.1
1446040875293811730,346,1446040875290764093,robocape,5.51788888516,6.70390475604,33.9015611943,0.0,10.0,0.0,0.0,0.0,10.0,0.0,0.0,0.0,10.0,0.0067910607797,0.0215716048296,0.00759000910673,1.0,0.0,0.0,0.0,1.0,0.0,0.0,0.0,1.0,0.0323327636719,-0.439486083984,10.0495019531,0.1,0.0,0.0,0.0,0.1,0.0,0.0,0.0,0.1
1446040875326974563,347,1446040875323973894,robocape,5.51250731749,6.72962598618,33.8206324058,0.0,10.0,0.0,0.0,0.0,10.0,0.0,0.0,0.0,10.0,0.00719053494321,0.0215716048296,0.00692421883421,1.0,0.0,0.0,0.0,1.0,0.0,0.0,0.0,1.0,0.0263452148438,-0.438288574219,10.0099841309,0.1,0.0,0.0,0.0,0.1,0.0,0.0,0.0,0.1
1446040875360430980,348,1446040875357050895,robocape,5.504370596,6.75531737404,33.7399189483,0.0,10.0,0.0,0.0,0.0,10.0,0.0,0.0,0.0,10.0,0.00572579634367,0.0215716048296,0.0067910607797,1.0,0.0,0.0,0.0,1.0,0.0,0.0,0.0,1.0,0.028740234375,-0.438288574219,10.0363293457,0.1,0.0,0.0,0.0,0.1,0.0,0.0,0.0,0.1
1446040875393789063,349,1446040875390775918,robocape,5.49518498266,6.78156248869,33.6587422903,0.0,10.0,0.0,0.0,0.0,10.0,0.0,0.0,0.0,10.0,0.00519316412565,0.0218379209386,0.00625842856169,1.0,0.0,0.0,0.0,1.0,0.0,0.0,0.0,1.0,0.0383203125,-0.4215234375,10.0291442871,0.1,0.0,0.0,0.0,0.1,0.0,0.0,0.0,0.1
1446040875426927188,350,1446040875423902034,robocape,5.48694437053,6.80660212925,33.5790691038,0.0,10.0,0.0,0.0,0.0,10.0,0.0,0.0,0.0,10.0,0.00559263828917,0.0213052887206,0.00692421883421,1.0,0.0,0.0,0.0,1.0,0.0,0.0,0.0,1.0,0.0514929199219,-0.431103515625,10.0159716797,0.1,0.0,0.0,0.0,0.1,0.0,0.0,0.0,0.1
1446040875460483480,351,1446040875457087039,robocape,5.47958293606,6.83253589415,33.5003463067,0.0,10.0,0.0,0.0,0.0,10.0,0.0,0.0,0.0,10.0,0.00599211245268,0.0218379209386,0.00719053494321,1.0,0.0,0.0,0.0,1.0,0.0,0.0,0.0,1.0,0.0203576660156,-0.427510986328,10.0279467773,0.1,0.0,0.0,0.0,0.1,0.0,0.0,0.0,0.1
1446040875493764772,352,1446040875490678071,robocape,5.47144017712,6.85798922881,33.4212985784,0.0,10.0,0.0,0.0,0.0,10.0,0.0,0.0,0.0,10.0,0.00559263828917,0.0215716048296,0.0067910607797,1.0,0.0,0.0,0.0,1.0,0.0,0.0,0.0,1.0,0.0323327636719,-0.426313476563,10.0483044434,0.1,0.0,0.0,0.0,0.1,0.0,0.0,0.0,0.1
1446040875533618397,353,1446040875530437946,robocape,5.46211674072,6.883106145,33.3428824691,0.0,10.0,0.0,0.0,0.0,10.0,0.0,0.0,0.0,10.0,0.00492684801665,0.0214384467751,0.00692421883421,1.0,0.0,0.0,0.0,1.0,0.0,0.0,0.0,1.0,0.0443078613281,-0.419128417969,10.0267492676,0.1,0.0,0.0,0.0,0.1,0.0,0.0,0.0,0.1
1446040875560731313,354,1446040875557399988,robocape,5.45225540198,6.90825400123,33.2662947136,0.0,10.0,0.0,0.0,0.0,10.0,0.0,0.0,0.0,10.0,0.00452737385313,0.0215716048296,0.00772316716123,1.0,0.0,0.0,0.0,1.0,0.0,0.0,0.0,1.0,0.0371228027344,-0.423918457031,10.0375268555,0.1,0.0,0.0,0.0,0.1,0.0,0.0,0.0,0.1
1446040875593877272,355,1446040875590682983,robocape,5.44030599132,6.93398473422,33.1889849527,0.0,10.0,0.0,0.0,0.0,10.0,0.0,0.0,0.0,10.0,0.0034621094171,0.0218379209386,0.00705737688871,1.0,0.0,0.0,0.0,1.0,0.0,0.0,0.0,1.0,0.0347277832031,-0.431103515625,10.019564209,0.1,0.0,0.0,0.0,0.1,0.0,0.0,0.0,0.1
1446040875627148355,356,1446040875623904943,robocape,5.4295840423,6.95926003421,33.1110851019,0.0,10.0,0.0,0.0,0.0,10.0,0.0,0.0,0.0,10.0,0.00412789968962,0.0215716048296,0.00652474467069,1.0,0.0,0.0,0.0,1.0,0.0,0.0,0.0,1.0,0.0419128417969,-0.434696044922,10.0423168945,0.1,0.0,0.0,0.0,0.1,0.0,0.0,0.0,0.1
1446040875660303522,357,1446040875657234907,robocape,5.4189600077,6.98520524289,33.0338705798,0.0,10.0,0.0,0.0,0.0,10.0,0.0,0.0,0.0,10.0,0.00412789968962,0.0219710789932,0.0066579027252,1.0,0.0,0.0,0.0,1.0,0.0,0.0,0.0,1.0,0.0347277832031,-0.44068359375,10.0351318359,0.1,0.0,0.0,0.0,0.1,0.0,0.0,0.0,0.1
1446040875693765647,358,1446040875690701961,robocape,5.41042213732,7.0103346359,32.9569730249,0.0,10.0,0.0,0.0,0.0,10.0,0.0,0.0,0.0,10.0,0.00519316412565,0.0215716048296,0.0066579027252,1.0,0.0,0.0,0.0,1.0,0.0,0.0,0.0,1.0,0.0407153320313,-0.439486083984,10.0506994629,0.1,0.0,0.0,0.0,0.1,0.0,0.0,0.0,0.1
1446040875726888105,359,1446040875723845958,robocape,5.40576890239,7.0353785131,32.8806677309,0.0,10.0,0.0,0.0,0.0,10.0,0.0,0.0,0.0,10.0,0.00719053494321,0.0215716048296,0.0067910607797,1.0,0.0,0.0,0.0,1.0,0.0,0.0,0.0,1.0,0.0419128417969,-0.449066162109,10.0255517578,0.1,0.0,0.0,0.0,0.1,0.0,0.0,0.0,0.1
1446040875760190064,360,1446040875757136106,robocape,5.4016747577,7.06087147607,32.8047808761,0.0,10.0,0.0,0.0,0.0,10.0,0.0,0.0,0.0,10.0,0.00745685105222,0.0218379209386,0.0067910607797,1.0,0.0,0.0,0.0,1.0,0.0,0.0,0.0,1.0,0.0347277832031,-0.443078613281,10.0339343262,0.1,0.0,0.0,0.0,0.1,0.0,0.0,0.0,0.1
1446040875794121605,361,1446040875791076898,robocape,5.39993523453,7.08653280047,32.7295105561,0.0,10.0,0.0,0.0,0.0,10.0,0.0,0.0,0.0,10.0,0.00865527354276,0.0219710789932,0.00692421883421,1.0,0.0,0.0,0.0,1.0,0.0,0.0,0.0,1.0,0.0395178222656,-0.432301025391,10.0351318359,0.1,0.0,0.0,0.0,0.1,0.0,0.0,0.0,0.1
1446040875826792189,362,1446040875823808908,robocape,5.3969450099,7.11241958796,32.6544117107,0.0,10.0,0.0,0.0,0.0,10.0,0.0,0.0,0.0,10.0,0.00798948327024,0.0221042370477,0.0067910607797,1.0,0.0,0.0,0.0,1.0,0.0,0.0,0.0,1.0,0.0311352539063,-0.411943359375,10.0147741699,0.1,0.0,0.0,0.0,0.1,0.0,0.0,0.0,0.1
1446040875860156314,363,1446040875857175111,robocape,5.39042487743,7.13802901641,32.5794613741,0.0,10.0,0.0,0.0,0.0,10.0,0.0,0.0,0.0,10.0,0.00612527050718,0.0219710789932,0.0066579027252,1.0,0.0,0.0,0.0,1.0,0.0,0.0,0.0,1.0,0.0275427246094,-0.417930908203,10.0363293457,0.1,0.0,0.0,0.0,0.1,0.0,0.0,0.0,0.1
1446040875893933772,364,1446040875890917062,robocape,5.38015313606,7.16257865256,32.5048367577,0.0,10.0,0.0,0.0,0.0,10.0,0.0,0.0,0.0,10.0,0.00412789968962,0.0214384467751,0.0066579027252,1.0,0.0,0.0,0.0,1.0,0.0,0.0,0.0,1.0,0.028740234375,-0.415535888672,10.0483044434,0.1,0.0,0.0,0.0,0.1,0.0,0.0,0.0,0.1
1446040875926808605,365,1446040875923806905,robocape,5.36713879172,7.18810954729,32.4304418322,0.0,10.0,0.0,0.0,0.0,10.0,0.0,0.0,0.0,10.0,0.00266316109008,0.0219710789932,0.00652474467069,1.0,0.0,0.0,0.0,1.0,0.0,0.0,0.0,1.0,0.0299377441406,-0.432301025391,10.0423168945,0.1,0.0,0.0,0.0,0.1,0.0,0.0,0.0,0.1
1446040875960111814,366,1446040875957106113,robocape,5.35241833655,7.21308038943,32.356387228,0.0,10.0,0.0,0.0,0.0,10.0,0.0,0.0,0.0,10.0,0.00173105470855,0.0217047628841,0.00652474467069,1.0,0.0,0.0,0.0,1.0,0.0,0.0,0.0,1.0,0.0347277832031,-0.438288574219,10.0267492676,0.1,0.0,0.0,0.0,0.1,0.0,0.0,0.0,0.1
1446040875993917939,367,1446040875990818977,robocape,5.34050037963,7.23779469687,32.2821846688,0.0,10.0,0.0,0.0,0.0,10.0,0.0,0.0,0.0,10.0,0.0031957933081,0.0215716048296,0.00625842856169,1.0,0.0,0.0,0.0,1.0,0.0,0.0,0.0,1.0,0.0443078613281,-0.45984375,10.0075891113,0.1,0.0,0.0,0.0,0.1,0.0,0.0,0.0,0.1
1446040876026936230,368,1446040876023828983,robocape,5.33306152751,7.26184053514,32.2092148137,0.0,10.0,0.0,0.0,0.0,10.0,0.0,0.0,0.0,10.0,0.00545948023466,0.0213052887206,0.0067910607797,1.0,0.0,0.0,0.0,1.0,0.0,0.0,0.0,1.0,0.0311352539063,-0.447868652344,10.0387243652,0.1,0.0,0.0,0.0,0.1,0.0,0.0,0.0,0.1
1446040876060183980,369,1446040876057113885,robocape,5.32711981354,7.28692174132,32.1359590684,0.0,10.0,0.0,0.0,0.0,10.0,0.0,0.0,0.0,10.0,0.00625842856169,0.0218379209386,0.00639158661619,1.0,0.0,0.0,0.0,1.0,0.0,0.0,0.0,1.0,0.0467028808594,-0.446671142578,10.0291442871,0.1,0.0,0.0,0.0,0.1,0.0,0.0,0.0,0.1
1446040876101923647,370,1446040876098690986,robocape,5.32361922563,7.31184113031,32.0639836245,0.0,10.0,0.0,0.0,0.0,10.0,0.0,0.0,0.0,10.0,0.00745685105222,0.0218379209386,0.00692421883421,1.0,0.0,0.0,0.0,1.0,0.0,0.0,0.0,1.0,0.0359252929688,-0.441881103516,10.0291442871,0.1,0.0,0.0,0.0,0.1,0.0,0.0,0.0,0.1
1446040876127007730,371,1446040876123936891,robocape,5.31979278322,7.33631354522,31.9913818883,0.0,10.0,0.0,0.0,0.0,10.0,0.0,0.0,0.0,10.0,0.00732369299772,0.0215716048296,0.00639158661619,1.0,0.0,0.0,0.0,1.0,0.0,0.0,0.0,1.0,0.01916015625,-0.423918457031,10.024354248,0.1,0.0,0.0,0.0,0.1,0.0,0.0,0.0,0.1
1446040876160441814,372,1446040876157381057,robocape,5.31578239601,7.36020611504,31.9193324559,0.0,10.0,0.0,0.0,0.0,10.0,0.0,0.0,0.0,10.0,0.00719053494321,0.0213052887206,0.00652474467069,1.0,0.0,0.0,0.0,1.0,0.0,0.0,0.0,1.0,0.0371228027344,-0.438288574219,10.0315393066,0.1,0.0,0.0,0.0,0.1,0.0,0.0,0.0,0.1
1446040876193914480,373,1446040876190907955,robocape,5.30779548921,7.38427801279,31.8479149774,0.0,10.0,0.0,0.0,0.0,10.0,0.0,0.0,0.0,10.0,0.00506000607115,0.0214384467751,0.0066579027252,1.0,0.0,0.0,0.0,1.0,0.0,0.0,0.0,1.0,0.0371228027344,-0.416733398438,10.0506994629,0.1,0.0,0.0,0.0,0.1,0.0,0.0,0.0,0.1
1446040876226877980,374,1446040876223830938,robocape,5.29995073878,7.40847070453,31.7775656481,0.0,10.0,0.0,0.0,0.0,10.0,0.0,0.0,0.0,10.0,0.00506000607115,0.0215716048296,0.00705737688871,1.0,0.0,0.0,0.0,1.0,0.0,0.0,0.0,1.0,0.0383203125,-0.433498535156,10.0483044434,0.1,0.0,0.0,0.0,0.1,0.0,0.0,0.0,0.1
1446040876260569772,375,1446040876257523059,robocape,5.29232229049,7.43193812217,31.7067891542,0.0,10.0,0.0,0.0,0.0,10.0,0.0,0.0,0.0,10.0,0.00519316412565,0.0211721306661,0.0066579027252,1.0,0.0,0.0,0.0,1.0,0.0,0.0,0.0,1.0,0.0311352539063,-0.431103515625,10.0315393066,0.1,0.0,0.0,0.0,0.1,0.0,0.0,0.0,0.1
1446040876294161814,376,1446040876291121959,robocape,5.28592588622,7.45518505886,31.6356161817,0.0,10.0,0.0,0.0,0.0,10.0,0.0,0.0,0.0,10.0,0.00585895439817,0.0210389726116,0.00625842856169,1.0,0.0,0.0,0.0,1.0,0.0,0.0,0.0,1.0,0.0227526855469,-0.446671142578,10.0219592285,0.1,0.0,0.0,0.0,0.1,0.0,0.0,0.0,0.1
1446040876326944856,377,1446040876323931932,robocape,5.28164169067,7.47936334553,31.5650772682,0.0,10.0,0.0,0.0,0.0,10.0,0.0,0.0,0.0,10.0,0.00692421883421,0.0215716048296,0.00639158661619,1.0,0.0,0.0,0.0,1.0,0.0,0.0,0.0,1.0,0.0299377441406,-0.449066162109,10.0339343262,0.1,0.0,0.0,0.0,0.1,0.0,0.0,0.0,0.1
1446040876360218731,378,1446040876357222080,robocape,5.27838912787,7.5040223677,31.494666922,0.0,10.0,0.0,0.0,0.0,10.0,0.0,0.0,0.0,10.0,0.00745685105222,0.0218379209386,0.00625842856169,1.0,0.0,0.0,0.0,1.0,0.0,0.0,0.0,1.0,0.0383203125,-0.447868652344,10.0483044434,0.1,0.0,0.0,0.0,0.1,0.0,0.0,0.0,0.1
1446040876394670481,379,1446040876390861034,robocape,5.274727606,7.52832743722,31.4250474946,0.0,10.0,0.0,0.0,0.0,10.0,0.0,0.0,0.0,10.0,0.00719053494321,0.0217047628841,0.00652474467069,1.0,0.0,0.0,0.0,1.0,0.0,0.0,0.0,1.0,0.0347277832031,-0.431103515625,10.019564209,0.1,0.0,0.0,0.0,0.1,0.0,0.0,0.0,0.1
1446040876426888897,380,1446040876423865079,robocape,5.27133905492,7.55361704361,31.3555918067,0.0,10.0,0.0,0.0,0.0,10.0,0.0,0.0,0.0,10.0,0.00732369299772,0.0222373951022,0.00639158661619,1.0,0.0,0.0,0.0,1.0,0.0,0.0,0.0,1.0,0.0359252929688,-0.425115966797,10.019564209,0.1,0.0,0.0,0.0,0.1,0.0,0.0,0.0,0.1
1446040876464043481,381,1446040876460467100,robocape,5.26639262363,7.57844514637,31.2878742192,0.0,10.0,0.0,0.0,0.0,10.0,0.0,0.0,0.0,10.0,0.00639158661619,0.0221042370477,0.00719053494321,1.0,0.0,0.0,0.0,1.0,0.0,0.0,0.0,1.0,0.01916015625,-0.427510986328,10.0147741699,0.1,0.0,0.0,0.0,0.1,0.0,0.0,0.0,0.1
1446040876496977314,382,1446040876493841886,robocape,5.26089042066,7.60254861784,31.2197134649,0.0,10.0,0.0,0.0,0.0,10.0,0.0,0.0,0.0,10.0,0.00612527050718,0.0217047628841,0.0067910607797,1.0,0.0,0.0,0.0,1.0,0.0,0.0,0.0,1.0,0.0323327636719,-0.427510986328,10.039921875,0.1,0.0,0.0,0.0,0.1,0.0,0.0,0.0,0.1
1446040876531405147,383,1446040876528242111,robocape,5.25349711116,7.62652519223,31.1525946703,0.0,10.0,0.0,0.0,0.0,10.0,0.0,0.0,0.0,10.0,0.00506000607115,0.0217047628841,0.00719053494321,1.0,0.0,0.0,0.0,1.0,0.0,0.0,0.0,1.0,0.0419128417969,-0.438288574219,10.0051940918,0.1,0.0,0.0,0.0,0.1,0.0,0.0,0.0,0.1
1446040876568022397,384,1446040876564522027,robocape,5.24897162885,7.65067572835,31.0860233307,0.0,10.0,0.0,0.0,0.0,10.0,0.0,0.0,0.0,10.0,0.00652474467069,0.0218379209386,0.00732369299772,1.0,0.0,0.0,0.0,1.0,0.0,0.0,0.0,1.0,0.0383203125,-0.433498535156,10.0183666992,0.1,0.0,0.0,0.0,0.1,0.0,0.0,0.0,0.1
1446040876600236689,385,1446040876597152948,robocape,5.24323576823,7.67474074452,31.0178569247,0.0,10.0,0.0,0.0,0.0,10.0,0.0,0.0,0.0,10.0,0.00599211245268,0.0217047628841,0.00625842856169,1.0,0.0,0.0,0.0,1.0,0.0,0.0,0.0,1.0,0.0419128417969,-0.432301025391,10.0279467773,0.1,0.0,0.0,0.0,0.1,0.0,0.0,0.0,0.1
1446040876632212231,386,1446040876629087924,robocape,5.23791908015,7.69865113838,30.9509510295,0.0,10.0,0.0,0.0,0.0,10.0,0.0,0.0,0.0,10.0,0.00612527050718,0.0217047628841,0.0067910607797,1.0,0.0,0.0,0.0,1.0,0.0,0.0,0.0,1.0,0.0323327636719,-0.432301025391,10.0111816406,0.1,0.0,0.0,0.0,0.1,0.0,0.0,0.0,0.1
1446040876666563231,387,1446040876663019895,robocape,5.2323338231,7.72256769723,30.8838819142,0.0,10.0,0.0,0.0,0.0,10.0,0.0,0.0,0.0,10.0,0.00599211245268,0.0217047628841,0.00652474467069,1.0,0.0,0.0,0.0,1.0,0.0,0.0,0.0,1.0,0.0323327636719,-0.447868652344,10.0471069336,0.1,0.0,0.0,0.0,0.1,0.0,0.0,0.0,0.1
1446040876700113606,388,1446040876697005987,robocape,5.22635305181,7.74713889581,30.8176526088,0.0,10.0,0.0,0.0,0.0,10.0,0.0,0.0,0.0,10.0,0.00572579634367,0.0221042370477,0.0067910607797,1.0,0.0,0.0,0.0,1.0,0.0,0.0,0.0,1.0,0.0299377441406,-0.425115966797,10.0171691895,0.1,0.0,0.0,0.0,0.1,0.0,0.0,0.0,0.1
1446040876732408481,389,1446040876729135990,robocape,5.22082996566,7.77123723016,30.7509755808,0.0,10.0,0.0,0.0,0.0,10.0,0.0,0.0,0.0,10.0,0.00599211245268,0.0218379209386,0.00639158661619,1.0,0.0,0.0,0.0,1.0,0.0,0.0,0.0,1.0,0.0395178222656,-0.431103515625,10.0315393066,0.1,0.0,0.0,0.0,0.1,0.0,0.0,0.0,0.1
1446040876762422897,390,1446040876759305000,robocape,5.21373611835,7.79591130323,30.6858545474,0.0,10.0,0.0,0.0,0.0,10.0,0.0,0.0,0.0,10.0,0.00506000607115,0.0222373951022,0.00705737688871,1.0,0.0,0.0,0.0,1.0,0.0,0.0,0.0,1.0,0.0335302734375,-0.427510986328,10.039921875,0.1,0.0,0.0,0.0,0.1,0.0,0.0,0.0,0.1
