%time,field.header.seq,field.header.stamp,field.header.frame_id,field.orientation.x,field.orientation.y,field.orientation.z,field.orientation.w,field.orientation_covariance0,field.orientation_covariance1,field.orientation_covariance2,field.orientation_covariance3,field.orientation_covariance4,field.orientation_covariance5,field.orientation_covariance6,field.orientation_covariance7,field.orientation_covariance8,field.angular_velocity.x,field.angular_velocity.y,field.angular_velocity.z,field.angular_velocity_covariance0,field.angular_velocity_covariance1,field.angular_velocity_covariance2,field.angular_velocity_covariance3,field.angular_velocity_covariance4,field.angular_velocity_covariance5,field.angular_velocity_covariance6,field.angular_velocity_covariance7,field.angular_velocity_covariance8,field.linear_acceleration.x,field.linear_acceleration.y,field.linear_acceleration.z,field.linear_acceleration_covariance0,field.linear_acceleration_covariance1,field.linear_acceleration_covariance2,field.linear_acceleration_covariance3,field.linear_acceleration_covariance4,field.linear_acceleration_covariance5,field.linear_acceleration_covariance6,field.linear_acceleration_covariance7,field.linear_acceleration_covariance8
1446037646652329424,1,1446037646645590066,robocape,8.54428079623,8.85911971784,-5.99741775548,0.0,10.0,0.0,0.0,0.0,10.0,0.0,0.0,0.0,10.0,0.0203731823391,0.06711165947,-0.0316916169719,1.0,0.0,0.0,0.0,1.0,0.0,0.0,0.0,1.0,0.341290283203,0.4981640625,10.2363134766,0.1,0.0,0.0,0.0,0.1,0.0,0.0,0.0,0.1
1446037646675068049,2,1446037646671941995,robocape,8.78081988275,8.96585720516,-6.18978732031,0.0,10.0,0.0,0.0,0.0,10.0,0.0,0.0,0.0,10.0,0.14900386299,0.0490021640575,-0.113850136601,1.0,0.0,0.0,0.0,1.0,0.0,0.0,0.0,1.0,0.148491210938,-0.445473632813,10.0674645996,0.1,0.0,0.0,0.0,0.1,0.0,0.0,0.0,0.1
1446037646696808966,3,1446037646693703889,robocape,9.00724783057,9.0299602733,-6.25691715482,0.0,10.0,0.0,0.0,0.0,10.0,0.0,0.0,0.0,10.0,0.133424370613,0.0362189908251,-0.0463390029674,1.0,0.0,0.0,0.0,1.0,0.0,0.0,0.0,1.0,0.419128417969,0.438288574219,10.0291442871,0.1,0.0,0.0,0.0,0.1,0.0,0.0,0.0,0.1
1446037646735824299,4,1446037646726368904,robocape,9.18389339427,9.07302478809,-6.21714603202,0.0,10.0,0.0,0.0,0.0,10.0,0.0,0.0,0.0,10.0,0.0982706442239,0.033555829735,0.0102531701968,1.0,0.0,0.0,0.0,1.0,0.0,0.0,0.0,1.0,-0.0778381347656,-0.289797363281,9.93334350586,0.1,0.0,0.0,0.0,0.1,0.0,0.0,0.0,0.1
1446037646764235383,5,1446037646761195898,robocape,9.55165757655,9.269007064,-6.54849355588,0.0,10.0,0.0,0.0,0.0,10.0,0.0,0.0,0.0,10.0,0.232094489,0.0836232582285,-0.194277601521,1.0,0.0,0.0,0.0,1.0,0.0,0.0,0.0,1.0,0.170046386719,-0.00718505859375,9.93454101563,0.1,0.0,0.0,0.0,0.1,0.0,0.0,0.0,0.1
1446037646797583508,6,1446037646794476985,robocape,10.0336085971,9.47713109602,-7.07800566951,0.0,10.0,0.0,0.0,0.0,10.0,0.0,0.0,0.0,10.0,0.311456689485,0.0724379816502,-0.298407200143,1.0,0.0,0.0,0.0,1.0,0.0,0.0,0.0,1.0,0.267044677734,0.886157226563,10.2195483398,0.1,0.0,0.0,0.0,0.1,0.0,0.0,0.0,0.1
1446037646830784216,7,1446037646827397108,robocape,10.3824337926,9.62897557584,-7.71511079393,0.0,10.0,0.0,0.0,0.0,10.0,0.0,0.0,0.0,10.0,0.25246767134,0.0315584589174,-0.349007260855,1.0,0.0,0.0,0.0,1.0,0.0,0.0,0.0,1.0,0.150886230469,1.49568969727,10.1057849121,0.1,0.0,0.0,0.0,0.1,0.0,0.0,0.0,0.1
1446037646864349674,8,1446037646861340045,robocape,10.3272910276,9.74050746712,-8.29533197307,0.0,10.0,0.0,0.0,0.0,10.0,0.0,0.0,0.0,10.0,0.0347542522255,0.0137152796139,-0.31545143112,1.0,0.0,0.0,0.0,1.0,0.0,0.0,0.0,1.0,0.108973388672,2.85606079102,9.9285534668,0.1,0.0,0.0,0.0,0.1,0.0,0.0,0.0,0.1
1446037646900074174,9,1446037646896568059,robocape,9.45910584331,9.74581703039,-8.21207223867,0.0,10.0,0.0,0.0,0.0,10.0,0.0,0.0,0.0,10.0,-0.456865285003,0.0146473859954,0.0372842552611,1.0,0.0,0.0,0.0,1.0,0.0,0.0,0.0,1.0,0.24908203125,1.12326416016,10.0183666992,0.1,0.0,0.0,0.0,0.1,0.0,0.0,0.0,0.1
1446037646932843758,10,1446037646928347110,robocape,8.6470205657,9.75152527222,-8.24829376519,0.0,10.0,0.0,0.0,0.0,10.0,0.0,0.0,0.0,10.0,-0.416518394488,0.00532632218016,-0.0242347659197,1.0,0.0,0.0,0.0,1.0,0.0,0.0,0.0,1.0,0.0754431152344,0.143701171875,9.96926879883,0.1,0.0,0.0,0.0,0.1,0.0,0.0,0.0,0.1
1446037646966013466,11,1446037646962949991,robocape,7.84512660471,9.74437570359,-8.35630702798,0.0,10.0,0.0,0.0,0.0,10.0,0.0,0.0,0.0,10.0,-0.404933643747,-0.00599211245268,-0.0603205986903,1.0,0.0,0.0,0.0,1.0,0.0,0.0,0.0,1.0,-0.198786621094,0.250279541016,10.0051940918,0.1,0.0,0.0,0.0,0.1,0.0,0.0,0.0,0.1
1446037646995806841,12,1446037646992712974,robocape,7.11085826011,9.75333635629,-8.51188858852,0.0,10.0,0.0,0.0,0.0,10.0,0.0,0.0,0.0,10.0,-0.365252543504,0.000532632218016,-0.0865527354276,1.0,0.0,0.0,0.0,1.0,0.0,0.0,0.0,1.0,0.258662109375,-0.765208740234,10.0506994629,0.1,0.0,0.0,0.0,0.1,0.0,0.0,0.0,0.1
1446037647029280883,13,1446037647026182889,robocape,6.61904724116,9.75580338182,-8.64580484886,0.0,10.0,0.0,0.0,0.0,10.0,0.0,0.0,0.0,10.0,-0.239950814216,0.000133158054504,-0.0759000910673,1.0,0.0,0.0,0.0,1.0,0.0,0.0,0.0,1.0,0.141306152344,-0.9580078125,9.97166381836,0.1,0.0,0.0,0.0,0.1,0.0,0.0,0.0,0.1
1446037647062772174,14,1446037647059664011,robocape,6.27863681161,9.74886800145,-8.57595980866,0.0,10.0,0.0,0.0,0.0,10.0,0.0,0.0,0.0,10.0,-0.179230741362,0.00732369299772,0.0294279300454,1.0,0.0,0.0,0.0,1.0,0.0,0.0,0.0,1.0,0.282612304688,-1.29331054688,10.019564209,0.1,0.0,0.0,0.0,0.1,0.0,0.0,0.0,0.1
1446037647095931258,15,1446037647092838048,robocape,6.43589929649,9.77886283107,-8.5830836756,0.0,10.0,0.0,0.0,0.0,10.0,0.0,0.0,0.0,10.0,0.0896153706812,0.0238352917562,-0.0138484376684,1.0,0.0,0.0,0.0,1.0,0.0,0.0,0.0,1.0,0.365240478516,-2.1459375,9.92256591797,0.1,0.0,0.0,0.0,0.1,0.0,0.0,0.0,0.1
1446037647129589091,16,1446037647126096010,robocape,7.0437596338,9.84445561099,-8.69597418723,0.0,10.0,0.0,0.0,0.0,10.0,0.0,0.0,0.0,10.0,0.33702303595,0.0376837294246,-0.0721716655411,1.0,0.0,0.0,0.0,1.0,0.0,0.0,0.0,1.0,0.349672851562,-0.647852783203,9.96926879883,0.1,0.0,0.0,0.0,0.1,0.0,0.0,0.0,0.1
1446037647162538008,17,1446037647159240961,robocape,7.78053895374,9.9055954341,-8.87775290568,0.0,10.0,0.0,0.0,0.0,10.0,0.0,0.0,0.0,10.0,0.412390494799,0.0308926686449,-0.108523814421,1.0,0.0,0.0,0.0,1.0,0.0,0.0,0.0,1.0,-0.0778381347656,0.864602050781,10.0542919922,0.1,0.0,0.0,0.0,0.1,0.0,0.0,0.0,0.1
1446037647195930758,18,1446037647192822933,robocape,7.77073866632,9.89894841718,-8.56830373173,0.0,10.0,0.0,0.0,0.0,10.0,0.0,0.0,0.0,10.0,-0.0264984528463,0.0253000303558,0.151533866026,1.0,0.0,0.0,0.0,1.0,0.0,0.0,0.0,1.0,-0.228724365234,2.23096069336,10.0423168945,0.1,0.0,0.0,0.0,0.1,0.0,0.0,0.0,0.1
1446037647228972633,19,1446037647225964069,robocape,7.69505606386,9.89433075226,-8.38299747511,0.0,10.0,0.0,0.0,0.0,10.0,0.0,0.0,0.0,10.0,-0.04966795433,0.0178431793035,0.0878843159726,1.0,0.0,0.0,0.0,1.0,0.0,0.0,0.0,1.0,0.372425537109,-0.949625244141,10.0183666992,0.1,0.0,0.0,0.0,0.1,0.0,0.0,0.0,0.1
1446037647262281924,20,1446037647259262084,robocape,7.5736852554,9.89972333111,-8.3038804394,0.0,10.0,0.0,0.0,0.0,10.0,0.0,0.0,0.0,10.0,-0.0639158661619,0.015845808486,0.032756881408,1.0,0.0,0.0,0.0,1.0,0.0,0.0,0.0,1.0,0.0586779785156,1.4944921875,9.95729370117,0.1,0.0,0.0,0.0,0.1,0.0,0.0,0.0,0.1
1446037647296291799,21,1446037647292995929,robocape,7.38283033432,9.8929773296,-8.1764252356,0.0,10.0,0.0,0.0,0.0,10.0,0.0,0.0,0.0,10.0,-0.105194863058,0.0122505410144,0.0588558600908,1.0,0.0,0.0,0.0,1.0,0.0,0.0,0.0,1.0,0.165256347656,-0.468226318359,10.0016015625,0.1,0.0,0.0,0.0,0.1,0.0,0.0,0.0,0.1
1446037647328816674,22,1446037647325794935,robocape,7.48151941408,9.93885805948,-8.42907727073,0.0,10.0,0.0,0.0,0.0,10.0,0.0,0.0,0.0,10.0,0.0828243099015,0.0165115987585,-0.141547011938,1.0,0.0,0.0,0.0,1.0,0.0,0.0,0.0,1.0,0.0371228027344,0.0874182128906,9.99920654297,0.1,0.0,0.0,0.0,0.1,0.0,0.0,0.0,0.1
1446037647362536508,23,1446037647359456062,robocape,7.28772753279,9.92806828079,-8.34074729319,0.0,10.0,0.0,0.0,0.0,10.0,0.0,0.0,0.0,10.0,-0.103197492241,0.00759000910673,0.0388821519152,1.0,0.0,0.0,0.0,1.0,0.0,0.0,0.0,1.0,0.0814306640625,1.75195678711,9.94172607422,0.1,0.0,0.0,0.0,0.1,0.0,0.0,0.0,0.1
1446037647396128925,24,1446037647392672061,robocape,6.9273479702,9.91936723138,-8.26280622825,0.0,10.0,0.0,0.0,0.0,10.0,0.0,0.0,0.0,10.0,-0.190149701832,0.00732369299772,0.0339553038985,1.0,0.0,0.0,0.0,1.0,0.0,0.0,0.0,1.0,0.213156738281,-0.847836914063,10.019564209,0.1,0.0,0.0,0.0,0.1,0.0,0.0,0.0,0.1
1446037647429125383,25,1446037647425828933,robocape,6.69238689839,9.92472228332,-8.2416563405,0.0,10.0,0.0,0.0,0.0,10.0,0.0,0.0,0.0,10.0,-0.119043300727,0.0115847507418,0.0034621094171,1.0,0.0,0.0,0.0,1.0,0.0,0.0,0.0,1.0,0.0371228027344,-0.05748046875,10.039921875,0.1,0.0,0.0,0.0,0.1,0.0,0.0,0.0,0.1
1446037647464969633,26,1446037647461905002,robocape,6.61647566084,9.9316848388,-8.20540432725,0.0,10.0,0.0,0.0,0.0,10.0,0.0,0.0,0.0,10.0,-0.0368847810976,0.0137152796139,0.0107858024148,1.0,0.0,0.0,0.0,1.0,0.0,0.0,0.0,1.0,0.314945068359,-1.48610961914,9.98004638672,0.1,0.0,0.0,0.0,0.1,0.0,0.0,0.0,0.1
1446037647496333758,27,1446037647492773056,robocape,6.73146832812,9.96080965977,-8.16782644624,0.0,10.0,0.0,0.0,0.0,10.0,0.0,0.0,0.0,10.0,0.0635163919984,0.0259658206283,0.00958737992429,1.0,0.0,0.0,0.0,1.0,0.0,0.0,0.0,1.0,0.17244140625,0.21076171875,10.0207617188,0.1,0.0,0.0,0.0,0.1,0.0,0.0,0.0,0.1
1446037647529235466,28,1446037647526010036,robocape,6.94408435673,9.97320185133,-8.02677705406,0.0,10.0,0.0,0.0,0.0,10.0,0.0,0.0,0.0,10.0,0.105328021113,0.0235689756472,0.0637827081074,1.0,0.0,0.0,0.0,1.0,0.0,0.0,0.0,1.0,0.166453857422,-1.57352783203,9.94771362305,0.1,0.0,0.0,0.0,0.1,0.0,0.0,0.0,0.1
1446037647570171883,29,1446037647566951036,robocape,7.52862764092,10.0300230998,-8.24373972699,0.0,10.0,0.0,0.0,0.0,10.0,0.0,0.0,0.0,10.0,0.335291981241,0.0263652947918,-0.124902255125,1.0,0.0,0.0,0.0,1.0,0.0,0.0,0.0,1.0,-0.0239501953125,0.946032714844,10.019564209,0.1,0.0,0.0,0.0,0.1,0.0,0.0,0.0,0.1
1446037647596152050,30,1446037647592736959,robocape,7.85360856846,10.0824356153,-8.51662496884,0.0,10.0,0.0,0.0,0.0,10.0,0.0,0.0,0.0,10.0,0.204663929773,0.0189084437396,-0.153264920734,1.0,0.0,0.0,0.0,1.0,0.0,0.0,0.0,1.0,0.00718505859375,1.16876953125,9.8447277832,0.1,0.0,0.0,0.0,0.1,0.0,0.0,0.0,0.1
1446037647629707508,31,1446037647626089096,robocape,7.56832966966,10.0861383918,-8.45385995407,0.0,10.0,0.0,0.0,0.0,10.0,0.0,0.0,0.0,10.0,-0.148737546881,0.0135821215594,0.0247673981377,1.0,0.0,0.0,0.0,1.0,0.0,0.0,0.0,1.0,0.0455053710938,2.42136474609,9.95370117188,0.1,0.0,0.0,0.0,0.1,0.0,0.0,0.0,0.1
1446037647662829675,32,1446037647659600973,robocape,6.75937568309,10.02522862,-7.95345684569,0.0,10.0,0.0,0.0,0.0,10.0,0.0,0.0,0.0,10.0,-0.466319506873,0.00439421579863,0.256462412975,1.0,0.0,0.0,0.0,1.0,0.0,0.0,0.0,1.0,0.217946777344,-0.290994873047,10.060279541,0.1,0.0,0.0,0.0,0.1,0.0,0.0,0.0,0.1
1446037647696141883,33,1446037647692902088,robocape,6.39895953667,10.0047254894,-7.78152435171,0.0,10.0,0.0,0.0,0.0,10.0,0.0,0.0,0.0,10.0,-0.199470765647,0.00612527050718,0.083490100174,1.0,0.0,0.0,0.0,1.0,0.0,0.0,0.0,1.0,0.112565917969,-2.58063354492,9.886640625,0.1,0.0,0.0,0.0,0.1,0.0,0.0,0.0,0.1
1446037647729093716,34,1446037647726075887,robocape,6.73130119223,10.0660759981,-8.07433827068,0.0,10.0,0.0,0.0,0.0,10.0,0.0,0.0,0.0,10.0,0.208791829462,0.0250337142467,-0.162985458713,1.0,0.0,0.0,0.0,1.0,0.0,0.0,0.0,1.0,0.290994873047,-0.676593017578,10.0147741699,0.1,0.0,0.0,0.0,0.1,0.0,0.0,0.0,0.1
1446037647763602341,35,1446037647760471105,robocape,7.0995500015,10.1277778503,-8.44970903992,0.0,10.0,0.0,0.0,0.0,10.0,0.0,0.0,0.0,10.0,0.23622238869,0.0197073920666,-0.206261826427,1.0,0.0,0.0,0.0,1.0,0.0,0.0,0.0,1.0,0.148491210938,0.493374023438,10.0411193848,0.1,0.0,0.0,0.0,0.1,0.0,0.0,0.0,0.1
1446037647797320508,36,1446037647793940067,robocape,6.96266222195,10.154604239,-8.5548480426,0.0,10.0,0.0,0.0,0.0,10.0,0.0,0.0,0.0,10.0,-0.0551274345646,0.015845808486,-0.0636495500529,1.0,0.0,0.0,0.0,1.0,0.0,0.0,0.0,1.0,0.0622705078125,1.66932861328,9.92735595703,0.1,0.0,0.0,0.0,0.1,0.0,0.0,0.0,0.1
1446037647830321466,37,1446037647827224969,robocape,6.61872454894,10.150754209,-8.58932281129,0.0,10.0,0.0,0.0,0.0,10.0,0.0,0.0,0.0,10.0,-0.171108100038,0.0034621094171,-0.0246342400832,1.0,0.0,0.0,0.0,1.0,0.0,0.0,0.0,1.0,0.135318603516,0.0922082519531,10.0111816406,0.1,0.0,0.0,0.0,0.1,0.0,0.0,0.0,0.1
1446037647863712008,38,1446037647860569953,robocape,6.12176889354,10.1151765573,-8.3802122023,0.0,10.0,0.0,0.0,0.0,10.0,0.0,0.0,0.0,10.0,-0.275104540605,-0.000399474163512,0.10346380835,1.0,0.0,0.0,0.0,1.0,0.0,0.0,0.0,1.0,0.0407153320313,-0.623902587891,10.1225500488,0.1,0.0,0.0,0.0,0.1,0.0,0.0,0.0,0.1
1446037647897382008,39,1446037647894139051,robocape,5.99710345297,10.1278887783,-8.37980367674,0.0,10.0,0.0,0.0,0.0,10.0,0.0,0.0,0.0,10.0,-0.0596548084178,0.0147805440499,-0.00798948327024,1.0,0.0,0.0,0.0,1.0,0.0,0.0,0.0,1.0,0.310155029297,-0.760418701172,9.95489868164,0.1,0.0,0.0,0.0,0.1,0.0,0.0,0.0,0.1
1446037647931344675,40,1446037647928194999,robocape,5.91263691313,10.1234017898,-8.15874542683,0.0,10.0,0.0,0.0,0.0,10.0,0.0,0.0,0.0,10.0,-0.0595216503633,0.016911072922,0.106925917767,1.0,0.0,0.0,0.0,1.0,0.0,0.0,0.0,1.0,0.279019775391,-1.00830322266,9.96088623047,0.1,0.0,0.0,0.0,0.1,0.0,0.0,0.0,0.1
1446037647964290258,41,1446037647961155891,robocape,5.99028510374,10.1214103058,-7.75164045069,0.0,10.0,0.0,0.0,0.0,10.0,0.0,0.0,0.0,10.0,0.00812264132474,0.0279631914458,0.202666558955,1.0,0.0,0.0,0.0,1.0,0.0,0.0,0.0,1.0,0.228724365234,-0.877774658203,10.0506994629,0.1,0.0,0.0,0.0,0.1,0.0,0.0,0.0,0.1
1446037647997755425,42,1446037647994443893,robocape,6.28544789154,10.1185759763,-7.19933646569,0.0,10.0,0.0,0.0,0.0,10.0,0.0,0.0,0.0,10.0,0.108923288584,0.0363521488796,0.277368227532,1.0,0.0,0.0,0.0,1.0,0.0,0.0,0.0,1.0,0.358055419922,-1.19032470703,9.99321899414,0.1,0.0,0.0,0.0,0.1,0.0,0.0,0.0,0.1
1446037648032940966,43,1446037648029046058,robocape,6.87680621969,10.0986685189,-6.61170788616,0.0,10.0,0.0,0.0,0.0,10.0,0.0,0.0,0.0,10.0,0.261788735155,0.032490565299,0.296143513217,1.0,0.0,0.0,0.0,1.0,0.0,0.0,0.0,1.0,0.140108642578,-1.44539428711,9.91298583984,0.1,0.0,0.0,0.0,0.1,0.0,0.0,0.0,0.1
1446037648066765842,44,1446037648062290906,robocape,7.98594309504,10.1482646019,-6.54108118328,0.0,10.0,0.0,0.0,0.0,10.0,0.0,0.0,0.0,10.0,0.584430701218,0.0420779452233,0.0242347659197,1.0,0.0,0.0,0.0,1.0,0.0,0.0,0.0,1.0,-0.0981958007813,-0.716110839844,9.82796264648,0.1,0.0,0.0,0.0,0.1,0.0,0.0,0.0,0.1
1446037648099168925,45,1446037648095345973,robocape,9.4484410019,10.2551141213,-7.03424807312,0.0,10.0,0.0,0.0,0.0,10.0,0.0,0.0,0.0,10.0,0.827310992633,0.031957933081,-0.271775589243,1.0,0.0,0.0,0.0,1.0,0.0,0.0,0.0,1.0,0.0490979003906,1.4178515625,9.8519128418,0.1,0.0,0.0,0.0,0.1,0.0,0.0,0.0,0.1
1446037648134415758,46,1446037648129793882,robocape,10.3261745186,10.3156042158,-7.29661650046,0.0,10.0,0.0,0.0,0.0,10.0,0.0,0.0,0.0,10.0,0.499076388281,0.0211721306661,-0.149669653262,1.0,0.0,0.0,0.0,1.0,0.0,0.0,0.0,1.0,-0.182021484375,3.06083496094,10.0351318359,0.1,0.0,0.0,0.0,0.1,0.0,0.0,0.0,0.1
1446037648165572467,47,1446037648161227941,robocape,10.4471533316,10.3309910538,-7.19459815054,0.0,10.0,0.0,0.0,0.0,10.0,0.0,0.0,0.0,10.0,0.0641821822709,0.0264984528463,0.0426105774413,1.0,0.0,0.0,0.0,1.0,0.0,0.0,0.0,1.0,0.481398925781,1.54359008789,9.9596887207,0.1,0.0,0.0,0.0,0.1,0.0,0.0,0.0,0.1
1446037648198207633,48,1446037648195153951,robocape,10.4648243227,10.3544783641,-7.2868290365,0.0,10.0,0.0,0.0,0.0,10.0,0.0,0.0,0.0,10.0,0.0286289817184,0.0127831732324,-0.0568584892732,1.0,0.0,0.0,0.0,1.0,0.0,0.0,0.0,1.0,0.201181640625,1.28612548828,9.93214599609,0.1,0.0,0.0,0.0,0.1,0.0,0.0,0.0,0.1
1446037648232872633,49,1446037648229196071,robocape,10.2229698361,10.3895440743,-7.48891682151,0.0,10.0,0.0,0.0,0.0,10.0,0.0,0.0,0.0,10.0,-0.0978711700604,0.00798948327024,-0.113184346328,1.0,0.0,0.0,0.0,1.0,0.0,0.0,0.0,1.0,0.0275427246094,1.90044799805,9.93573852539,0.1,0.0,0.0,0.0,0.1,0.0,0.0,0.0,0.1
1446037648266469592,50,1446037648262810945,robocape,9.63244467197,10.3658725591,-7.36803805435,0.0,10.0,0.0,0.0,0.0,10.0,0.0,0.0,0.0,10.0,-0.314386166684,0.00439421579863,0.0584563859272,1.0,0.0,0.0,0.0,1.0,0.0,0.0,0.0,1.0,0.0407153320313,0.731678466797,10.0351318359,0.1,0.0,0.0,0.0,0.1,0.0,0.0,0.0,0.1
1446037648299493425,51,1446037648295288085,robocape,9.13542697441,10.3668568134,-7.41571782942,0.0,10.0,0.0,0.0,0.0,10.0,0.0,0.0,0.0,10.0,-0.248739245813,0.0034621094171,-0.0302268783724,1.0,0.0,0.0,0.0,1.0,0.0,0.0,0.0,1.0,0.106578369141,-0.136516113281,10.0291442871,0.1,0.0,0.0,0.0,0.1,0.0,0.0,0.0,0.1
1446037648332015175,52,1446037648328428983,robocape,8.79928851486,10.387794089,-7.60085923373,0.0,10.0,0.0,0.0,0.0,10.0,0.0,0.0,0.0,10.0,-0.150601759644,0.00412789968962,-0.102931176132,1.0,0.0,0.0,0.0,1.0,0.0,0.0,0.0,1.0,0.0550854492188,1.02866088867,10.0099841309,0.1,0.0,0.0,0.0,0.1,0.0,0.0,0.0,0.1
1446037648366859508,53,1446037648363367080,robocape,7.9384056568,10.3311057321,-7.27067803398,0.0,10.0,0.0,0.0,0.0,10.0,0.0,0.0,0.0,10.0,-0.478170573724,-0.000399474163512,0.16911072922,1.0,0.0,0.0,0.0,1.0,0.0,0.0,0.0,1.0,-0.0143701171875,0.0981958007813,10.0303417969,0.1,0.0,0.0,0.0,0.1,0.0,0.0,0.0,0.1
1446037648398484925,54,1446037648394968986,robocape,7.46183602673,10.2926084072,-7.03515909943,0.0,10.0,0.0,0.0,0.0,10.0,0.0,0.0,0.0,10.0,-0.266582425117,0.00239684498107,0.118111194345,1.0,0.0,0.0,0.0,1.0,0.0,0.0,0.0,1.0,0.009580078125,-2.01900146484,9.92735595703,0.1,0.0,0.0,0.0,0.1,0.0,0.0,0.0,0.1
1446037648433405758,55,1446037648429946899,robocape,7.71620426728,10.3396039273,-7.13833580254,0.0,10.0,0.0,0.0,0.0,10.0,0.0,0.0,0.0,10.0,0.151267549917,0.0272974011733,-0.0637827081074,1.0,0.0,0.0,0.0,1.0,0.0,0.0,0.0,1.0,0.541274414062,-0.779578857422,9.98363891602,0.1,0.0,0.0,0.0,0.1,0.0,0.0,0.0,0.1
1446037648466263758,56,1446037648462845087,robocape,7.93451029071,10.3369790738,-6.91218375938,0.0,10.0,0.0,0.0,0.0,10.0,0.0,0.0,0.0,10.0,0.10053433115,0.0231695014837,0.108923288584,1.0,0.0,0.0,0.0,1.0,0.0,0.0,0.0,1.0,0.276624755859,-1.04662353516,9.89143066406,0.1,0.0,0.0,0.0,0.1,0.0,0.0,0.0,0.1
1446037648498624675,57,1446037648495182037,robocape,8.48722439547,10.3783218188,-6.90743984388,0.0,10.0,0.0,0.0,0.0,10.0,0.0,0.0,0.0,10.0,0.298806674307,0.032490565299,-0.00892158965177,1.0,0.0,0.0,0.0,1.0,0.0,0.0,0.0,1.0,-0.211959228516,0.451461181641,10.0051940918,0.1,0.0,0.0,0.0,0.1,0.0,0.0,0.0,0.1
1446037648532271300,58,1446037648529118061,robocape,8.70794360644,10.3475660188,-6.46291221756,0.0,10.0,0.0,0.0,0.0,10.0,0.0,0.0,0.0,10.0,0.0812264132474,0.0263652947918,0.22290658324,1.0,0.0,0.0,0.0,1.0,0.0,0.0,0.0,1.0,0.126936035156,1.56035522461,10.1237475586,0.1,0.0,0.0,0.0,0.1,0.0,0.0,0.0,0.1
1446037648566190592,59,1446037648562853097,robocape,8.73703658215,10.300271189,-5.95830838019,0.0,10.0,0.0,0.0,0.0,10.0,0.0,0.0,0.0,10.0,-0.0254331884103,0.0221042370477,0.255796622702,1.0,0.0,0.0,0.0,1.0,0.0,0.0,0.0,1.0,0.398770751953,-1.00710571289,10.0578845215,0.1,0.0,0.0,0.0,0.1,0.0,0.0,0.0,0.1
1446037648598828800,60,1446037648595772027,robocape,9.19861614352,10.3437217413,-6.09345919607,0.0,10.0,0.0,0.0,0.0,10.0,0.0,0.0,0.0,10.0,0.265117686517,0.0225037112112,-0.0798948327024,1.0,0.0,0.0,0.0,1.0,0.0,0.0,0.0,1.0,0.142503662109,-0.417930908203,10.0590820312,0.1,0.0,0.0,0.0,0.1,0.0,0.0,0.0,0.1
1446037648632537883,61,1446037648628954887,robocape,9.36501377653,10.3330941683,-5.87272491414,0.0,10.0,0.0,0.0,0.0,10.0,0.0,0.0,0.0,10.0,0.0751011427402,0.0215716048296,0.107192233876,1.0,0.0,0.0,0.0,1.0,0.0,0.0,0.0,1.0,0.0275427246094,1.15080688477,9.98603393555,0.1,0.0,0.0,0.0,0.1,0.0,0.0,0.0,0.1
1446037648664679300,62,1446037648661350965,robocape,9.37316015543,10.2887516277,-5.4829382237,0.0,10.0,0.0,0.0,0.0,10.0,0.0,0.0,0.0,10.0,-0.0247673981377,0.0173105470855,0.197073920666,1.0,0.0,0.0,0.0,1.0,0.0,0.0,0.0,1.0,0.0227526855469,-0.0467028808594,9.98363891602,0.1,0.0,0.0,0.0,0.1,0.0,0.0,0.0,0.1
1446037648699132717,63,1446037648695792913,robocape,9.4998712446,10.2726036239,-5.27450404791,0.0,10.0,0.0,0.0,0.0,10.0,0.0,0.0,0.0,10.0,0.0555269087282,0.0178431793035,0.10199906975,1.0,0.0,0.0,0.0,1.0,0.0,0.0,0.0,1.0,0.108973388672,-0.0610729980469,10.0231567383,0.1,0.0,0.0,0.0,0.1,0.0,0.0,0.0,0.1
1446037648732310883,64,1446037648729198932,robocape,9.85052191759,10.2852745193,-5.23810691602,0.0,10.0,0.0,0.0,0.0,10.0,0.0,0.0,0.0,10.0,0.19068233405,0.0197073920666,0.0111852765783,1.0,0.0,0.0,0.0,1.0,0.0,0.0,0.0,1.0,0.156873779297,-0.386795654297,10.0662670898,0.1,0.0,0.0,0.0,0.1,0.0,0.0,0.0,0.1
1446037648766366759,65,1446037648763190984,robocape,10.6018375695,10.3818312953,-5.65571696502,0.0,10.0,0.0,0.0,0.0,10.0,0.0,0.0,0.0,10.0,0.447544221188,0.0247673981377,-0.22943132791,1.0,0.0,0.0,0.0,1.0,0.0,0.0,0.0,1.0,0.17244140625,-0.379610595703,10.0219592285,0.1,0.0,0.0,0.0,0.1,0.0,0.0,0.0,0.1
1446037648796719259,66,1446037648793621063,robocape,11.2548635063,10.4766282712,-6.11039473619,0.0,10.0,0.0,0.0,0.0,10.0,0.0,0.0,0.0,10.0,0.401072060166,0.017710021249,-0.248872403868,1.0,0.0,0.0,0.0,1.0,0.0,0.0,0.0,1.0,0.0419128417969,1.64058837891,9.95609619141,0.1,0.0,0.0,0.0,0.1,0.0,0.0,0.0,0.1
1446037648830584009,67,1446037648827565908,robocape,11.3421258243,10.5285742492,-6.37133781189,0.0,10.0,0.0,0.0,0.0,10.0,0.0,0.0,0.0,10.0,0.083223784065,0.0107858024148,-0.1448759633,1.0,0.0,0.0,0.0,1.0,0.0,0.0,0.0,1.0,-0.174836425781,2.99377441406,10.0111816406,0.1,0.0,0.0,0.0,0.1,0.0,0.0,0.0,0.1
1446037648863361675,68,1446037648860220909,robocape,10.942289662,10.5277329639,-6.26938009141,0.0,10.0,0.0,0.0,0.0,10.0,0.0,0.0,0.0,10.0,-0.211055516389,0.016644756813,0.0464721610219,1.0,0.0,0.0,0.0,1.0,0.0,0.0,0.0,1.0,0.578397216797,1.31486572266,10.0159716797,0.1,0.0,0.0,0.0,0.1,0.0,0.0,0.0,0.1
1446037648896610217,69,1446037648893520116,robocape,10.254824812,10.448132858,-5.76907887323,0.0,10.0,0.0,0.0,0.0,10.0,0.0,0.0,0.0,10.0,-0.403202589038,0.0105194863058,0.258060309629,1.0,0.0,0.0,0.0,1.0,0.0,0.0,0.0,1.0,0.243094482422,0.0107775878906,9.89502319336,0.1,0.0,0.0,0.0,0.1,0.0,0.0,0.0,0.1
1446037648930143467,70,1446037648927131891,robocape,9.97156455182,10.4638531549,-5.78157836253,0.0,10.0,0.0,0.0,0.0,10.0,0.0,0.0,0.0,10.0,-0.138883850848,0.0147805440499,-0.0130494893414,1.0,0.0,0.0,0.0,1.0,0.0,0.0,0.0,1.0,-0.240699462891,-0.380808105469,10.0099841309,0.1,0.0,0.0,0.0,0.1,0.0,0.0,0.0,0.1
1446037648963211884,71,1446037648959955930,robocape,9.65476023415,10.4335342693,-5.52245820182,0.0,10.0,0.0,0.0,0.0,10.0,0.0,0.0,0.0,10.0,-0.183624957161,0.0138484376684,0.129829103141,1.0,0.0,0.0,0.0,1.0,0.0,0.0,0.0,1.0,0.0419128417969,-0.0922082519531,9.99561401367,0.1,0.0,0.0,0.0,0.1,0.0,0.0,0.0,0.1
1446037648996059467,72,1446037648992887973,robocape,9.7807827078,10.4828817528,-5.7216557592,0.0,10.0,0.0,0.0,0.0,10.0,0.0,0.0,0.0,10.0,0.0953411670248,0.018242653467,-0.112119081892,1.0,0.0,0.0,0.0,1.0,0.0,0.0,0.0,1.0,0.258662109375,-0.844244384766,10.0938098145,0.1,0.0,0.0,0.0,0.1,0.0,0.0,0.0,0.1
1446037649029307592,73,1446037649026197910,robocape,9.90505388156,10.5274519453,-5.8854394821,0.0,10.0,0.0,0.0,0.0,10.0,0.0,0.0,0.0,10.0,0.0912132673352,0.0186421276306,-0.0938764284253,1.0,0.0,0.0,0.0,1.0,0.0,0.0,0.0,1.0,0.108973388672,1.44898681641,9.96926879883,0.1,0.0,0.0,0.0,0.1,0.0,0.0,0.0,0.1
1446037649062885425,74,1446037649059828996,robocape,9.50149067217,10.4518144367,-5.29910567802,0.0,10.0,0.0,0.0,0.0,10.0,0.0,0.0,0.0,10.0,-0.261921893209,0.017177389031,0.300937203179,1.0,0.0,0.0,0.0,1.0,0.0,0.0,0.0,1.0,0.09580078125,0.142503662109,9.98603393555,0.1,0.0,0.0,0.0,0.1,0.0,0.0,0.0,0.1
1446037649095831467,75,1446037649092742919,robocape,9.60998876297,10.4534083579,-5.19159751543,0.0,10.0,0.0,0.0,0.0,10.0,0.0,0.0,0.0,10.0,0.0556600667827,0.0190416017941,0.0490021640575,1.0,0.0,0.0,0.0,1.0,0.0,0.0,0.0,1.0,0.0706530761719,-1.3412109375,10.0171691895,0.1,0.0,0.0,0.0,0.1,0.0,0.0,0.0,0.1
1446037649128942634,76,1446037649125869035,robocape,9.90069467634,10.4827134267,-5.25278554332,0.0,10.0,0.0,0.0,0.0,10.0,0.0,0.0,0.0,10.0,0.168711255057,0.0201068662301,-0.0399474163512,1.0,0.0,0.0,0.0,1.0,0.0,0.0,0.0,1.0,0.0682580566406,0.820294189453,9.97645385742,0.1,0.0,0.0,0.0,0.1,0.0,0.0,0.0,0.1
1446037649162570800,77,1446037649159544944,robocape,10.0025531281,10.4658202905,-5.0499363713,0.0,10.0,0.0,0.0,0.0,10.0,0.0,0.0,0.0,10.0,0.0431432096593,0.0181094954125,0.0992027506055,1.0,0.0,0.0,0.0,1.0,0.0,0.0,0.0,1.0,0.167651367188,-0.152083740234,10.060279541,0.1,0.0,0.0,0.0,0.1,0.0,0.0,0.0,0.1
1446037649195813342,78,1446037649192806959,robocape,10.3426718769,10.4785306266,-5.00987637743,0.0,10.0,0.0,0.0,0.0,10.0,0.0,0.0,0.0,10.0,0.18535601187,0.0205063403936,0.0130494893414,1.0,0.0,0.0,0.0,1.0,0.0,0.0,0.0,1.0,0.205971679688,-0.1149609375,10.0159716797,0.1,0.0,0.0,0.0,0.1,0.0,0.0,0.0,0.1
1446037649229233050,79,1446037649226212978,robocape,10.9027514462,10.520438218,-5.12796142662,0.0,10.0,0.0,0.0,0.0,10.0,0.0,0.0,0.0,10.0,0.317981434155,0.0222373951022,-0.0709732430506,1.0,0.0,0.0,0.0,1.0,0.0,0.0,0.0,1.0,0.178428955078,-0.605939941406,10.0447119141,0.1,0.0,0.0,0.0,0.1,0.0,0.0,0.0,0.1
1446037649262687717,80,1446037649259644031,robocape,11.7405117301,10.6054327915,-5.49742722836,0.0,10.0,0.0,0.0,0.0,10.0,0.0,0.0,0.0,10.0,0.491486379174,0.0205063403936,-0.204397613664,1.0,0.0,0.0,0.0,1.0,0.0,0.0,0.0,1.0,-0.076640625,1.64058837891,9.98483642578,0.1,0.0,0.0,0.0,0.1,0.0,0.0,0.0,0.1
1446037649295909050,81,1446037649292869091,robocape,11.8776453085,10.6298951308,-5.54498779061,0.0,10.0,0.0,0.0,0.0,10.0,0.0,0.0,0.0,10.0,0.0889495804086,0.017710021249,-0.033289513626,1.0,0.0,0.0,0.0,1.0,0.0,0.0,0.0,1.0,-0.256267089844,2.42974731445,9.78724731445,0.1,0.0,0.0,0.0,0.1,0.0,0.0,0.0,0.1
1446037649329869884,82,1446037649326536893,robocape,11.6737088733,10.5981329793,-5.2820376203,0.0,10.0,0.0,0.0,0.0,10.0,0.0,0.0,0.0,10.0,-0.123171200416,0.0187752856851,0.131160683686,1.0,0.0,0.0,0.0,1.0,0.0,0.0,0.0,1.0,0.702938232422,1.10530151367,9.84592529297,0.1,0.0,0.0,0.0,0.1,0.0,0.0,0.0,0.1
1446037649363020300,83,1446037649359895944,robocape,11.3415383846,10.5437707036,-4.94397570953,0.0,10.0,0.0,0.0,0.0,10.0,0.0,0.0,0.0,10.0,-0.198804975374,0.0133158054504,0.172306522528,1.0,0.0,0.0,0.0,1.0,0.0,0.0,0.0,1.0,0.244291992188,-0.276624755859,10.0614770508,0.1,0.0,0.0,0.0,0.1,0.0,0.0,0.0,0.1
1446037649395769092,84,1446037649392709970,robocape,11.4384227805,10.5397680353,-4.86026917067,0.0,10.0,0.0,0.0,0.0,10.0,0.0,0.0,0.0,10.0,0.0537958540196,0.015845808486,0.0371510972066,1.0,0.0,0.0,0.0,1.0,0.0,0.0,0.0,1.0,-0.251477050781,-0.261057128906,10.0339343262,0.1,0.0,0.0,0.0,0.1,0.0,0.0,0.0,0.1
1446037649429291425,85,1446037649426173925,robocape,11.7832236107,10.5652055717,-4.90118281919,0.0,10.0,0.0,0.0,0.0,10.0,0.0,0.0,0.0,10.0,0.197872868993,0.0198405501211,-0.0298274042089,1.0,0.0,0.0,0.0,1.0,0.0,0.0,0.0,1.0,0.0802331542969,0.178428955078,10.0626745605,0.1,0.0,0.0,0.0,0.1,0.0,0.0,0.0,0.1
1446037649462762634,86,1446037649459490060,robocape,11.963341465,10.5757210071,-4.87911709517,0.0,10.0,0.0,0.0,0.0,10.0,0.0,0.0,0.0,10.0,0.10466223084,0.0178431793035,0.00399474163512,1.0,0.0,0.0,0.0,1.0,0.0,0.0,0.0,1.0,-0.0898132324219,1.39509887695,9.88185058594,0.1,0.0,0.0,0.0,0.1,0.0,0.0,0.0,0.1
1446037649495699926,87,1446037649492594957,robocape,12.027604445,10.5920402898,-4.9024448972,0.0,10.0,0.0,0.0,0.0,10.0,0.0,0.0,0.0,10.0,0.0479368996214,0.015579492377,-0.0193079179031,1.0,0.0,0.0,0.0,1.0,0.0,0.0,0.0,1.0,0.179626464844,0.671802978516,9.97046630859,0.1,0.0,0.0,0.0,0.1,0.0,0.0,0.0,0.1
1446037649529266134,88,1446037649526201009,robocape,11.9246532225,10.6028115061,-4.90580657441,0.0,10.0,0.0,0.0,0.0,10.0,0.0,0.0,0.0,10.0,-0.0427437354958,0.0139815957229,-0.00812264132474,1.0,0.0,0.0,0.0,1.0,0.0,0.0,0.0,1.0,0.259859619141,1.48610961914,9.91418334961,0.1,0.0,0.0,0.0,0.1,0.0,0.0,0.0,0.1
1446037649563619051,89,1446037649560405015,robocape,11.6563224723,10.583371147,-4.70122000704,0.0,10.0,0.0,0.0,0.0,10.0,0.0,0.0,0.0,10.0,-0.151400707971,0.0189084437396,0.100933805314,1.0,0.0,0.0,0.0,1.0,0.0,0.0,0.0,1.0,0.438288574219,0.499361572266,9.97046630859,0.1,0.0,0.0,0.0,0.1,0.0,0.0,0.0,0.1
1446037649595833009,90,1446037649592760086,robocape,11.5590200897,10.5816815719,-4.60808573772,0.0,10.0,0.0,0.0,0.0,10.0,0.0,0.0,0.0,10.0,-0.0498011123845,0.0173105470855,0.0423442613323,1.0,0.0,0.0,0.0,1.0,0.0,0.0,0.0,1.0,-0.279019775391,0.00239501953125,9.97645385742,0.1,0.0,0.0,0.0,0.1,0.0,0.0,0.0,0.1
1446037649629082926,91,1446037649626030921,robocape,11.6097487303,10.5781943816,-4.50475029394,0.0,10.0,0.0,0.0,0.0,10.0,0.0,0.0,0.0,10.0,0.0275637172823,0.0181094954125,0.0474042674034,1.0,0.0,0.0,0.0,1.0,0.0,0.0,0.0,1.0,0.123343505859,-0.149688720703,9.93094848633,0.1,0.0,0.0,0.0,0.1,0.0,0.0,0.0,0.1
1446037649662516426,92,1446037649659290075,robocape,11.9813945768,10.6183472616,-4.63006311388,0.0,10.0,0.0,0.0,0.0,10.0,0.0,0.0,0.0,10.0,0.220776054368,0.0189084437396,-0.0739027202497,1.0,0.0,0.0,0.0,1.0,0.0,0.0,0.0,1.0,0.199984130859,0.265847167969,10.0686621094,0.1,0.0,0.0,0.0,0.1,0.0,0.0,0.0,0.1
1446037649695546551,93,1446037649692470073,robocape,12.3072340084,10.6880096605,-4.9022661387,0.0,10.0,0.0,0.0,0.0,10.0,0.0,0.0,0.0,10.0,0.21198762277,0.0181094954125,-0.15166702408,1.0,0.0,0.0,0.0,1.0,0.0,0.0,0.0,1.0,-0.170046386719,1.91481811523,10.1393151855,0.1,0.0,0.0,0.0,0.1,0.0,0.0,0.0,0.1
1446037649729351342,94,1446037649726144075,robocape,12.1392278645,10.7121605457,-4.96716568919,0.0,10.0,0.0,0.0,0.0,10.0,0.0,0.0,0.0,10.0,-0.0707069269416,0.0141147537774,-0.0406132066237,1.0,0.0,0.0,0.0,1.0,0.0,0.0,0.0,1.0,0.326920166016,1.69208129883,9.88424560547,0.1,0.0,0.0,0.0,0.1,0.0,0.0,0.0,0.1
1446037649762887009,95,1446037649759435892,robocape,11.910969966,10.7300638061,-4.93604903849,0.0,10.0,0.0,0.0,0.0,10.0,0.0,0.0,0.0,10.0,-0.112518556056,0.0207726565026,0.00878843159726,1.0,0.0,0.0,0.0,1.0,0.0,0.0,0.0,1.0,0.710123291016,0.382005615234,9.93334350586,0.1,0.0,0.0,0.0,0.1,0.0,0.0,0.0,0.1
1446037649795827342,96,1446037649792519092,robocape,11.8622072847,10.7926840554,-5.19989596494,0.0,10.0,0.0,0.0,0.0,10.0,0.0,0.0,0.0,10.0,0.0125168571234,0.0142479118319,-0.145808069682,1.0,0.0,0.0,0.0,1.0,0.0,0.0,0.0,1.0,-0.403560791016,0.726888427734,10.0423168945,0.1,0.0,0.0,0.0,0.1,0.0,0.0,0.0,0.1
1446037649829945717,97,1446037649826694965,robocape,11.6968819982,10.8793441882,-5.62189335526,0.0,10.0,0.0,0.0,0.0,10.0,0.0,0.0,0.0,10.0,-0.0328900394625,0.0102531701968,-0.228366063474,1.0,0.0,0.0,0.0,1.0,0.0,0.0,0.0,1.0,-0.108973388672,1.64178588867,10.1225500488,0.1,0.0,0.0,0.0,0.1,0.0,0.0,0.0,0.1
1446037649863003967,98,1446037649859486103,robocape,11.2249439907,10.9223717044,-5.87120401541,0.0,10.0,0.0,0.0,0.0,10.0,0.0,0.0,0.0,10.0,-0.213186045261,0.00466053190764,-0.135554899485,1.0,0.0,0.0,0.0,1.0,0.0,0.0,0.0,1.0,0.571212158203,1.57951538086,10.0004040527,0.1,0.0,0.0,0.0,0.1,0.0,0.0,0.0,0.1
1446037649895955342,99,1446037649892683029,robocape,10.5758733079,10.9071068108,-5.77692478065,0.0,10.0,0.0,0.0,0.0,10.0,0.0,0.0,0.0,10.0,-0.342748832293,0.00732369299772,0.0451405804768,1.0,0.0,0.0,0.0,1.0,0.0,0.0,0.0,1.0,0.370030517578,-0.214354248047,9.91777587891,0.1,0.0,0.0,0.0,0.1,0.0,0.0,0.0,0.1
1446037649929230551,100,1446037649926059961,robocape,10.3155055756,10.9585512505,-6.04746419876,0.0,10.0,0.0,0.0,0.0,10.0,0.0,0.0,0.0,10.0,-0.0997353828235,0.0105194863058,-0.147938598554,1.0,0.0,0.0,0.0,1.0,0.0,0.0,0.0,1.0,-0.178428955078,-0.0107775878906,10.0483044434,0.1,0.0,0.0,0.0,0.1,0.0,0.0,0.0,0.1
1446037649962792467,101,1446037649959394931,robocape,9.92624803845,10.9225598311,-5.88460678488,0.0,10.0,0.0,0.0,0.0,10.0,0.0,0.0,0.0,10.0,-0.212919729152,0.0031957933081,0.0810932551929,1.0,0.0,0.0,0.0,1.0,0.0,0.0,0.0,1.0,-0.273032226563,1.65495849609,9.99082397461,0.1,0.0,0.0,0.0,0.1,0.0,0.0,0.0,0.1
1446037649995688426,102,1446037649992588996,robocape,9.09523693879,10.8408268618,-5.36095327196,0.0,10.0,0.0,0.0,0.0,10.0,0.0,0.0,0.0,10.0,-0.483363737849,0.00612527050718,0.270310850643,1.0,0.0,0.0,0.0,1.0,0.0,0.0,0.0,1.0,0.288599853516,0.464633789063,9.94412109375,0.1,0.0,0.0,0.0,0.1,0.0,0.0,0.0,0.1
1446037650029160342,103,1446037650026061058,robocape,8.54122772692,10.7751900566,-4.87893348289,0.0,10.0,0.0,0.0,0.0,10.0,0.0,0.0,0.0,10.0,-0.332761978205,0.00945422186978,0.247274507214,1.0,0.0,0.0,0.0,1.0,0.0,0.0,0.0,1.0,0.0538879394531,-1.5328125,9.90939331055,0.1,0.0,0.0,0.0,0.1,0.0,0.0,0.0,0.1
1446037650062678051,104,1446037650059319019,robocape,8.68465192608,10.7686079261,-4.69790488142,0.0,10.0,0.0,0.0,0.0,10.0,0.0,0.0,0.0,10.0,0.0653806047614,0.0197073920666,0.0877511579181,1.0,0.0,0.0,0.0,1.0,0.0,0.0,0.0,1.0,0.435893554688,-2.70158203125,9.88424560547,0.1,0.0,0.0,0.0,0.1,0.0,0.0,0.0,0.1
1446037650096159092,105,1446037650092745065,robocape,9.24097822953,10.7857232089,-4.6404268576,0.0,10.0,0.0,0.0,0.0,10.0,0.0,0.0,0.0,10.0,0.296010355162,0.0246342400832,0.0219710789932,1.0,0.0,0.0,0.0,1.0,0.0,0.0,0.0,1.0,0.160466308594,0.429906005859,10.0219592285,0.1,0.0,0.0,0.0,0.1,0.0,0.0,0.0,0.1
1446037650130362967,106,1446037650127224922,robocape,9.85214283884,10.8032567429,-4.5860898669,0.0,10.0,0.0,0.0,0.0,10.0,0.0,0.0,0.0,10.0,0.32610407548,0.0253000303558,0.0199737081756,1.0,0.0,0.0,0.0,1.0,0.0,0.0,0.0,1.0,-0.155676269531,-0.772393798828,10.1261425781,0.1,0.0,0.0,0.0,0.1,0.0,0.0,0.0,0.1
1446037650163198593,107,1446037650160141944,robocape,10.7162455605,10.8497650639,-4.69187236364,0.0,10.0,0.0,0.0,0.0,10.0,0.0,0.0,0.0,10.0,0.477238467342,0.0276968753368,-0.0651142886524,1.0,0.0,0.0,0.0,1.0,0.0,0.0,0.0,1.0,0.129331054688,0.827479248047,10.0075891113,0.1,0.0,0.0,0.0,0.1,0.0,0.0,0.0,0.1
1446037650197064343,108,1446037650193955898,robocape,11.3212813809,10.8406167924,-4.55478148441,0.0,10.0,0.0,0.0,0.0,10.0,0.0,0.0,0.0,10.0,0.31664985361,0.0206394984481,0.0637827081074,1.0,0.0,0.0,0.0,1.0,0.0,0.0,0.0,1.0,0.150886230469,0.514929199219,10.0590820312,0.1,0.0,0.0,0.0,0.1,0.0,0.0,0.0,0.1
1446037650229397801,109,1446037650226325035,robocape,11.5477068292,10.7830742592,-4.1734081241,0.0,10.0,0.0,0.0,0.0,10.0,0.0,0.0,0.0,10.0,0.0918790576077,0.0187752856851,0.193478653194,1.0,0.0,0.0,0.0,1.0,0.0,0.0,0.0,1.0,-0.124541015625,1.55197265625,9.98723144531,0.1,0.0,0.0,0.0,0.1,0.0,0.0,0.0,0.1
1446037650264588134,110,1446037650261189937,robocape,11.7607173881,10.7453564888,-3.92508136537,0.0,10.0,0.0,0.0,0.0,10.0,0.0,0.0,0.0,10.0,0.0986701183874,0.0162452826495,0.124369622907,1.0,0.0,0.0,0.0,1.0,0.0,0.0,0.0,1.0,0.417930908203,0.890947265625,10.0016015625,0.1,0.0,0.0,0.0,0.1,0.0,0.0,0.0,0.1
1446037650295689384,111,1446037650292537927,robocape,11.9112485054,10.7201058294,-3.73135366305,0.0,10.0,0.0,0.0,0.0,10.0,0.0,0.0,0.0,10.0,0.0713727172141,0.017177389031,0.0957406411883,1.0,0.0,0.0,0.0,1.0,0.0,0.0,0.0,1.0,0.00718505859375,0.562829589844,9.99202148437,0.1,0.0,0.0,0.0,0.1,0.0,0.0,0.0,0.1
1446037650329265551,112,1446037650326214075,robocape,12.1369493169,10.7583923075,-3.86942867024,0.0,10.0,0.0,0.0,0.0,10.0,0.0,0.0,0.0,10.0,0.145009121355,0.015845808486,-0.0789627263208,1.0,0.0,0.0,0.0,1.0,0.0,0.0,0.0,1.0,-0.0622705078125,1.1843371582,10.0099841309,0.1,0.0,0.0,0.0,0.1,0.0,0.0,0.0,0.1
1446037650362670218,113,1446037650359570026,robocape,11.9964843453,10.7679419799,-3.86050274419,0.0,10.0,0.0,0.0,0.0,10.0,0.0,0.0,0.0,10.0,-0.0639158661619,0.0146473859954,-0.000798948327024,1.0,0.0,0.0,0.0,1.0,0.0,0.0,0.0,1.0,0.255069580078,2.07528442383,9.96088623047,0.1,0.0,0.0,0.0,0.1,0.0,0.0,0.0,0.1
1446037650395901759,114,1446037650392659902,robocape,11.7804314938,10.7920524293,-3.88945195221,0.0,10.0,0.0,0.0,0.0,10.0,0.0,0.0,0.0,10.0,-0.100268015041,0.0178431793035,-0.0213052887206,1.0,0.0,0.0,0.0,1.0,0.0,0.0,0.0,1.0,0.449066162109,-0.0754431152344,10.1093774414,0.1,0.0,0.0,0.0,0.1,0.0,0.0,0.0,0.1
1446037650428894759,115,1446037650425873994,robocape,11.8010067358,10.8715254466,-4.18008954584,0.0,10.0,0.0,0.0,0.0,10.0,0.0,0.0,0.0,10.0,0.051798483202,0.0207726565026,-0.160189139568,1.0,0.0,0.0,0.0,1.0,0.0,0.0,0.0,1.0,-0.141306152344,0.570014648438,9.97884887695,0.1,0.0,0.0,0.0,0.1,0.0,0.0,0.0,0.1
1446037650462931134,116,1446037650459670066,robocape,11.758985644,10.9523552194,-4.52522401468,0.0,10.0,0.0,0.0,0.0,10.0,0.0,0.0,0.0,10.0,0.0245010820287,0.0157126504315,-0.18801917296,1.0,0.0,0.0,0.0,1.0,0.0,0.0,0.0,1.0,0.112565917969,1.2226574707,9.97645385742,0.1,0.0,0.0,0.0,0.1,0.0,0.0,0.0,0.1
1446037650495686718,117,1446037650492547035,robocape,11.5587037552,11.0435723743,-4.98607685451,0.0,10.0,0.0,0.0,0.0,10.0,0.0,0.0,0.0,10.0,-0.0471379512944,0.00905474770627,-0.247540823323,1.0,0.0,0.0,0.0,1.0,0.0,0.0,0.0,1.0,-0.0143701171875,1.48491210938,9.98842895508,0.1,0.0,0.0,0.0,0.1,0.0,0.0,0.0,0.1
1446037650529172093,118,1446037650526067972,robocape,11.1587284396,11.1235009707,-5.46623233107,0.0,10.0,0.0,0.0,0.0,10.0,0.0,0.0,0.0,10.0,-0.150734917698,0.00173105470855,-0.255929780757,1.0,0.0,0.0,0.0,1.0,0.0,0.0,0.0,1.0,0.348475341797,1.07536376953,9.886640625,0.1,0.0,0.0,0.0,0.1,0.0,0.0,0.0,0.1
1446037650564210509,119,1446037650560961961,robocape,10.1752617925,11.0939651793,-5.35533812406,0.0,10.0,0.0,0.0,0.0,10.0,0.0,0.0,0.0,10.0,-0.521713257547,-0.000266316109008,0.0561926990007,1.0,0.0,0.0,0.0,1.0,0.0,0.0,0.0,1.0,0.179626464844,1.79985717773,9.87227050781,0.1,0.0,0.0,0.0,0.1,0.0,0.0,0.0,0.1
1446037650595694759,120,1446037650592601060,robocape,9.2034857058,11.0477524362,-5.1944616158,0.0,10.0,0.0,0.0,0.0,10.0,0.0,0.0,0.0,10.0,-0.520914309219,-0.00545948023466,0.082957467956,1.0,0.0,0.0,0.0,1.0,0.0,0.0,0.0,1.0,-0.305364990234,-0.674197998047,9.99202148437,0.1,0.0,0.0,0.0,0.1,0.0,0.0,0.0,0.1
1446037650629388843,121,1446037650626370906,robocape,8.41940100163,11.0324646719,-5.1357112578,0.0,10.0,0.0,0.0,0.0,10.0,0.0,0.0,0.0,10.0,-0.411458388417,0.00266316109008,0.0276968753368,1.0,0.0,0.0,0.0,1.0,0.0,0.0,0.0,1.0,0.128133544922,-0.0467028808594,9.98244140625,0.1,0.0,0.0,0.0,0.1,0.0,0.0,0.0,0.1
1446037650664042801,122,1446037650660922050,robocape,8.04222157306,11.0319539095,-5.15872211084,0.0,10.0,0.0,0.0,0.0,10.0,0.0,0.0,0.0,10.0,-0.188818121287,0.00599211245268,-0.016112124595,1.0,0.0,0.0,0.0,1.0,0.0,0.0,0.0,1.0,0.222736816406,-1.91002807617,9.9596887207,0.1,0.0,0.0,0.0,0.1,0.0,0.0,0.0,0.1
1446037650695701259,123,1446037650692708969,robocape,8.27638837394,11.0967969113,-5.45236801919,0.0,10.0,0.0,0.0,0.0,10.0,0.0,0.0,0.0,10.0,0.161387562059,0.0234358175927,-0.160721771786,1.0,0.0,0.0,0.0,1.0,0.0,0.0,0.0,1.0,0.307760009766,-1.17715209961,9.96567626953,0.1,0.0,0.0,0.0,0.1,0.0,0.0,0.0,0.1
1446037650729011551,124,1446037650726005077,robocape,8.48646451045,11.1215770849,-5.45982041638,0.0,10.0,0.0,0.0,0.0,10.0,0.0,0.0,0.0,10.0,0.11944277489,0.0226368692657,-0.0117179087963,1.0,0.0,0.0,0.0,1.0,0.0,0.0,0.0,1.0,0.00359252929688,0.940045166016,9.9668737793,0.1,0.0,0.0,0.0,0.1,0.0,0.0,0.0,0.1
1446037650762881093,125,1446037650759846925,robocape,8.63577448963,11.1450582483,-5.43391077912,0.0,10.0,0.0,0.0,0.0,10.0,0.0,0.0,0.0,10.0,0.0841558904465,0.0242347659197,0.00545948023466,1.0,0.0,0.0,0.0,1.0,0.0,0.0,0.0,1.0,0.205971679688,-1.07895629883,10.0518969727,0.1,0.0,0.0,0.0,0.1,0.0,0.0,0.0,0.1
1446037650795499218,126,1446037650792500972,robocape,9.14839937038,11.2122903092,-5.69494594978,0.0,10.0,0.0,0.0,0.0,10.0,0.0,0.0,0.0,10.0,0.306263525359,0.0266316109008,-0.145541753573,1.0,0.0,0.0,0.0,1.0,0.0,0.0,0.0,1.0,-0.0922082519531,0.411943359375,10.0375268555,0.1,0.0,0.0,0.0,0.1,0.0,0.0,0.0,0.1
1446037650829059134,127,1446037650826028108,robocape,9.63927582167,11.289837309,-6.06750827729,0.0,10.0,0.0,0.0,0.0,10.0,0.0,0.0,0.0,10.0,0.307595105904,0.0219710789932,-0.203864981446,1.0,0.0,0.0,0.0,1.0,0.0,0.0,0.0,1.0,0.0969982910156,0.725690917969,9.99681152344,0.1,0.0,0.0,0.0,0.1,0.0,0.0,0.0,0.1
1446037650863190551,128,1446037650859734058,robocape,9.46142601753,11.2730409527,-5.82388858117,0.0,10.0,0.0,0.0,0.0,10.0,0.0,0.0,0.0,10.0,-0.110521185238,0.0202400242846,0.119709090999,1.0,0.0,0.0,0.0,1.0,0.0,0.0,0.0,1.0,0.196391601563,1.79985717773,10.0471069336,0.1,0.0,0.0,0.0,0.1,0.0,0.0,0.0,0.1
1446037650896515176,129,1446037650893155097,robocape,9.20093386418,11.2347397207,-5.50464572635,0.0,10.0,0.0,0.0,0.0,10.0,0.0,0.0,0.0,10.0,-0.16231966844,0.0142479118319,0.160588613732,1.0,0.0,0.0,0.0,1.0,0.0,0.0,0.0,1.0,0.179626464844,-0.946032714844,10.0123791504,0.1,0.0,0.0,0.0,0.1,0.0,0.0,0.0,0.1
1446037650929187801,130,1446037650925867080,robocape,9.34441528282,11.2838924321,-5.77702200068,0.0,10.0,0.0,0.0,0.0,10.0,0.0,0.0,0.0,10.0,0.113317504383,0.0141147537774,-0.149137021044,1.0,0.0,0.0,0.0,1.0,0.0,0.0,0.0,1.0,-0.0694555664063,0.953217773438,9.97046630859,0.1,0.0,0.0,0.0,0.1,0.0,0.0,0.0,0.1
1446037650963196760,131,1446037650959599018,robocape,9.34020353705,11.319371284,-5.98366275391,0.0,10.0,0.0,0.0,0.0,10.0,0.0,0.0,0.0,10.0,0.0286289817184,0.0115847507418,-0.114382768819,1.0,0.0,0.0,0.0,1.0,0.0,0.0,0.0,1.0,0.0526904296875,0.832269287109,10.0435144043,0.1,0.0,0.0,0.0,0.1,0.0,0.0,0.0,0.1
1446037650995922301,132,1446037650992502927,robocape,8.7630219016,11.2705495674,-5.59680750379,0.0,10.0,0.0,0.0,0.0,10.0,0.0,0.0,0.0,10.0,-0.336889877895,0.0118510668509,0.196674446502,1.0,0.0,0.0,0.0,1.0,0.0,0.0,0.0,1.0,0.132923583984,2.13036987305,10.0267492676,0.1,0.0,0.0,0.0,0.1,0.0,0.0,0.0,0.1
1446037651029437718,133,1446037651026204109,robocape,7.95954287855,11.1772502406,-4.93206481355,0.0,10.0,0.0,0.0,0.0,10.0,0.0,0.0,0.0,10.0,-0.485361108667,0.00532632218016,0.342748832293,1.0,0.0,0.0,0.0,1.0,0.0,0.0,0.0,1.0,0.232316894531,-0.851429443359,10.0471069336,0.1,0.0,0.0,0.0,0.1,0.0,0.0,0.0,0.1
1446037651062941593,134,1446037651059535026,robocape,7.89340047557,11.1765665282,-4.8160922375,0.0,10.0,0.0,0.0,0.0,10.0,0.0,0.0,0.0,10.0,-0.0395479421877,0.0167779148675,0.0544616442921,1.0,0.0,0.0,0.0,1.0,0.0,0.0,0.0,1.0,0.116158447266,-2.49680786133,9.92735595703,0.1,0.0,0.0,0.0,0.1,0.0,0.0,0.0,0.1
1446037651095760260,135,1446037651092611074,robocape,8.17417909265,11.2044668331,-4.80533778193,0.0,10.0,0.0,0.0,0.0,10.0,0.0,0.0,0.0,10.0,0.15433018517,0.0258326625738,-0.00199737081756,1.0,0.0,0.0,0.0,1.0,0.0,0.0,0.0,1.0,0.2682421875,0.326920166016,9.98962646484,0.1,0.0,0.0,0.0,0.1,0.0,0.0,0.0,0.1
1446037651129211385,136,1446037651126136064,robocape,8.51324111771,11.2168836841,-4.66654188594,0.0,10.0,0.0,0.0,0.0,10.0,0.0,0.0,0.0,10.0,0.172040206419,0.0272974011733,0.0643153403254,1.0,0.0,0.0,0.0,1.0,0.0,0.0,0.0,1.0,0.0419128417969,-1.02626586914,10.0578845215,0.1,0.0,0.0,0.0,0.1,0.0,0.0,0.0,0.1
1446037651162858510,137,1446037651159820079,robocape,8.98449703092,11.2370055507,-4.61310827893,0.0,10.0,0.0,0.0,0.0,10.0,0.0,0.0,0.0,10.0,0.251136090794,0.0259658206283,0.0198405501211,1.0,0.0,0.0,0.0,1.0,0.0,0.0,0.0,1.0,0.0694555664063,1.1076965332,10.0459094238,0.1,0.0,0.0,0.0,0.1,0.0,0.0,0.0,0.1
1446037651195829051,138,1446037651192814111,robocape,9.30163949209,11.2500283505,-4.54440983603,0.0,10.0,0.0,0.0,0.0,10.0,0.0,0.0,0.0,10.0,0.168711255057,0.0231695014837,0.0283626656093,1.0,0.0,0.0,0.0,1.0,0.0,0.0,0.0,1.0,0.262254638672,-0.501756591797,10.0698596191,0.1,0.0,0.0,0.0,0.1,0.0,0.0,0.0,0.1
1446037651229359301,139,1446037651226299047,robocape,9.69156446521,11.2926069471,-4.64126015463,0.0,10.0,0.0,0.0,0.0,10.0,0.0,0.0,0.0,10.0,0.225037112112,0.0255663464648,-0.0587227020362,1.0,0.0,0.0,0.0,1.0,0.0,0.0,0.0,1.0,0.17244140625,1.09212890625,10.024354248,0.1,0.0,0.0,0.0,0.1,0.0,0.0,0.0,0.1
1446037651263968635,140,1446037651260854959,robocape,9.9214561647,11.2896035219,-4.4818419947,0.0,10.0,0.0,0.0,0.0,10.0,0.0,0.0,0.0,10.0,0.113850136601,0.0227700273202,0.0757669330128,1.0,0.0,0.0,0.0,1.0,0.0,0.0,0.0,1.0,0.0934057617188,-0.712518310547,10.075847168,0.1,0.0,0.0,0.0,0.1,0.0,0.0,0.0,0.1
1446037651296903176,141,1446037651293777942,robocape,10.3192564296,11.3215246012,-4.55130938176,0.0,10.0,0.0,0.0,0.0,10.0,0.0,0.0,0.0,10.0,0.227167640984,0.0221042370477,-0.0440753160408,1.0,0.0,0.0,0.0,1.0,0.0,0.0,0.0,1.0,0.00239501953125,2.42974731445,10.0231567383,0.1,0.0,0.0,0.0,0.1,0.0,0.0,0.0,0.1
1446037651330405510,142,1446037651327276945,robocape,10.1446922124,11.2449588988,-3.99120152259,0.0,10.0,0.0,0.0,0.0,10.0,0.0,0.0,0.0,10.0,-0.141813328047,0.0189084437396,0.286822449402,1.0,0.0,0.0,0.0,1.0,0.0,0.0,0.0,1.0,0.160466308594,0.313747558594,10.0255517578,0.1,0.0,0.0,0.0,0.1,0.0,0.0,0.0,0.1
1446037651364865135,143,1446037651361152887,robocape,10.0484328346,11.1866079449,-3.55589200826,0.0,10.0,0.0,0.0,0.0,10.0,0.0,0.0,0.0,10.0,-0.0870853676456,0.017177389031,0.222107634913,1.0,0.0,0.0,0.0,1.0,0.0,0.0,0.0,1.0,0.126936035156,-0.28740234375,9.98723144531,0.1,0.0,0.0,0.0,0.1,0.0,0.0,0.0,0.1
1446037651397832301,144,1446037651394292116,robocape,10.489693471,11.2141892667,-3.61172002204,0.0,10.0,0.0,0.0,0.0,10.0,0.0,0.0,0.0,10.0,0.248606087759,0.0210389726116,-0.0358195166616,1.0,0.0,0.0,0.0,1.0,0.0,0.0,0.0,1.0,0.170046386719,-0.893342285156,10.0506994629,0.1,0.0,0.0,0.0,0.1,0.0,0.0,0.0,0.1
1446037651430917510,145,1446037651427844047,robocape,11.2192786825,11.2946655428,-3.97761827117,0.0,10.0,0.0,0.0,0.0,10.0,0.0,0.0,0.0,10.0,0.434761047955,0.0203731823391,-0.199071291483,1.0,0.0,0.0,0.0,1.0,0.0,0.0,0.0,1.0,0.05748046875,0.807121582031,9.99321899414,0.1,0.0,0.0,0.0,0.1,0.0,0.0,0.0,0.1
1446037651464497718,146,1446037651461159944,robocape,11.5456736709,11.3729297243,-4.34832445351,0.0,10.0,0.0,0.0,0.0,10.0,0.0,0.0,0.0,10.0,0.223172899349,0.0154463343225,-0.201068662301,1.0,0.0,0.0,0.0,1.0,0.0,0.0,0.0,1.0,-0.208366699219,2.21539306641,10.0495019531,0.1,0.0,0.0,0.0,0.1,0.0,0.0,0.0,0.1
1446037651500398510,147,1446037651496108055,robocape,11.5882620651,11.4508815444,-4.76253875175,0.0,10.0,0.0,0.0,0.0,10.0,0.0,0.0,0.0,10.0,0.0781637779938,0.00905474770627,-0.222773425185,1.0,0.0,0.0,0.0,1.0,0.0,0.0,0.0,1.0,0.640667724609,1.40946899414,9.8447277832,0.1,0.0,0.0,0.0,0.1,0.0,0.0,0.0,0.1
1446037651533716426,148,1446037651529175996,robocape,11.4216325405,11.5315114258,-5.21181122474,0.0,10.0,0.0,0.0,0.0,10.0,0.0,0.0,0.0,10.0,-0.0284958236638,0.00625842856169,-0.240616604489,1.0,0.0,0.0,0.0,1.0,0.0,0.0,0.0,1.0,0.197589111328,2.03696411133,9.85909790039,0.1,0.0,0.0,0.0,0.1,0.0,0.0,0.0,0.1
1446037651567236302,149,1446037651561961889,robocape,10.8423100218,11.5611458611,-5.48612235629,0.0,10.0,0.0,0.0,0.0,10.0,0.0,0.0,0.0,10.0,-0.266182950953,-0.00386158358061,-0.145941227736,1.0,0.0,0.0,0.0,1.0,0.0,0.0,0.0,1.0,0.289797363281,1.56514526367,9.90580078125,0.1,0.0,0.0,0.0,0.1,0.0,0.0,0.0,0.1
1446037651600980385,150,1446037651596415042,robocape,9.84183073106,11.5254720044,-5.4740811402,0.0,10.0,0.0,0.0,0.0,10.0,0.0,0.0,0.0,10.0,-0.520514835056,-0.0123836990689,0.00652474467069,1.0,0.0,0.0,0.0,1.0,0.0,0.0,0.0,1.0,-0.229921875,1.62621826172,10.0734521484,0.1,0.0,0.0,0.0,0.1,0.0,0.0,0.0,0.1
1446037651629984843,151,1446037651626945018,robocape,8.42090458584,11.4093280151,-4.88803127331,0.0,10.0,0.0,0.0,0.0,10.0,0.0,0.0,0.0,10.0,-0.804141491149,-0.0111852765783,0.30599720925,1.0,0.0,0.0,0.0,1.0,0.0,0.0,0.0,1.0,-0.305364990234,-0.0622705078125,10.1536853027,0.1,0.0,0.0,0.0,0.1,0.0,0.0,0.0,0.1
1446037651668800135,152,1446037651664311885,robocape,7.75854550464,11.4195436072,-5.01711512857,0.0,10.0,0.0,0.0,0.0,10.0,0.0,0.0,0.0,10.0,-0.327835130189,0.0034621094171,-0.0703074527781,1.0,0.0,0.0,0.0,1.0,0.0,0.0,0.0,1.0,0.0742456054688,-1.50886230469,9.92735595703,0.1,0.0,0.0,0.0,0.1,0.0,0.0,0.0,0.1
1446037651699704802,153,1446037651695823907,robocape,7.3512886757,11.3874832881,-4.88813782414,0.0,10.0,0.0,0.0,0.0,10.0,0.0,0.0,0.0,10.0,-0.221175528531,-0.000266316109008,0.0639158661619,1.0,0.0,0.0,0.0,1.0,0.0,0.0,0.0,1.0,0.258662109375,-1.47652954102,9.9980090332,0.1,0.0,0.0,0.0,0.1,0.0,0.0,0.0,0.1
1446037651733163135,154,1446037651729140043,robocape,7.25295286442,11.3785103876,-4.65328124377,0.0,10.0,0.0,0.0,0.0,10.0,0.0,0.0,0.0,10.0,-0.0697748205601,0.0193079179031,0.115980665473,1.0,0.0,0.0,0.0,1.0,0.0,0.0,0.0,1.0,0.366437988281,-2.61416381836,9.97645385742,0.1,0.0,0.0,0.0,0.1,0.0,0.0,0.0,0.1
1446037651767250177,155,1446037651763828992,robocape,8.18552361669,11.4722146664,-4.84618277666,0.0,10.0,0.0,0.0,0.0,10.0,0.0,0.0,0.0,10.0,0.519050096456,0.049135322112,-0.111586449674,1.0,0.0,0.0,0.0,1.0,0.0,0.0,0.0,1.0,0.468226318359,-1.7208215332,9.91418334961,0.1,0.0,0.0,0.0,0.1,0.0,0.0,0.0,0.1
1446037651799228218,156,1446037651796015977,robocape,9.25408982729,11.5488862677,-5.08665583328,0.0,10.0,0.0,0.0,0.0,10.0,0.0,0.0,0.0,10.0,0.597746506668,0.0359526747161,-0.135954373649,1.0,0.0,0.0,0.0,1.0,0.0,0.0,0.0,1.0,-0.156873779297,0.258662109375,10.2578686523,0.1,0.0,0.0,0.0,0.1,0.0,0.0,0.0,0.1
1446037651833045552,157,1446037651829687118,robocape,10.2844202363,11.6587020975,-5.49884394126,0.0,10.0,0.0,0.0,0.0,10.0,0.0,0.0,0.0,10.0,0.59867861305,0.0370179391521,-0.227433957093,1.0,0.0,0.0,0.0,1.0,0.0,0.0,0.0,1.0,-0.188009033203,0.665815429688,9.99681152344,0.1,0.0,0.0,0.0,0.1,0.0,0.0,0.0,0.1
1446037651867517968,158,1446037651864224910,robocape,10.6581101678,11.6795139848,-5.49875769969,0.0,10.0,0.0,0.0,0.0,10.0,0.0,0.0,0.0,10.0,0.207859723081,0.0229031853747,-0.00905474770627,1.0,0.0,0.0,0.0,1.0,0.0,0.0,0.0,1.0,0.1149609375,1.52682495117,9.89262817383,0.1,0.0,0.0,0.0,0.1,0.0,0.0,0.0,0.1
1446037651899934843,159,1446037651896481037,robocape,10.6838439982,11.6720899895,-5.42107752781,0.0,10.0,0.0,0.0,0.0,10.0,0.0,0.0,0.0,10.0,0.0154463343225,0.0137152796139,0.0339553038985,1.0,0.0,0.0,0.0,1.0,0.0,0.0,0.0,1.0,0.108973388672,2.19623291016,9.86388793945,0.1,0.0,0.0,0.0,0.1,0.0,0.0,0.0,0.1
1446037651933719760,160,1446037651930533885,robocape,10.1824916187,11.6029772422,-4.9342768333,0.0,10.0,0.0,0.0,0.0,10.0,0.0,0.0,0.0,10.0,-0.308260896177,0.015579492377,0.248872403868,1.0,0.0,0.0,0.0,1.0,0.0,0.0,0.0,1.0,0.290994873047,1.01668579102,10.0626745605,0.1,0.0,0.0,0.0,0.1,0.0,0.0,0.0,0.1
1446037651968338468,161,1446037651965219020,robocape,10.0148891941,11.6253987379,-5.05153482226,0.0,10.0,0.0,0.0,0.0,10.0,0.0,0.0,0.0,10.0,-0.0661795530885,0.0107858024148,-0.066579027252,1.0,0.0,0.0,0.0,1.0,0.0,0.0,0.0,1.0,0.100590820313,-0.257464599609,10.0327368164,0.1,0.0,0.0,0.0,0.1,0.0,0.0,0.0,0.1
1446037651998525968,162,1446037651995246887,robocape,9.65306732602,11.6213837241,-4.99289569688,0.0,10.0,0.0,0.0,0.0,10.0,0.0,0.0,0.0,10.0,-0.188152331014,0.0113184346328,0.0255663464648,1.0,0.0,0.0,0.0,1.0,0.0,0.0,0.0,1.0,-0.164058837891,1.38911132813,10.0590820312,0.1,0.0,0.0,0.0,0.1,0.0,0.0,0.0,0.1
1446037652032938718,163,1446037652029828071,robocape,8.91806538662,11.5556089803,-4.50997460727,0.0,10.0,0.0,0.0,0.0,10.0,0.0,0.0,0.0,10.0,-0.431432096593,0.0110521185238,0.247540823323,1.0,0.0,0.0,0.0,1.0,0.0,0.0,0.0,1.0,0.0814306640625,0.671802978516,9.98723144531,0.1,0.0,0.0,0.0,0.1,0.0,0.0,0.0,0.1
1446037652065985593,164,1446037652062767982,robocape,8.26303756703,11.4945871937,-4.09011547074,0.0,10.0,0.0,0.0,0.0,10.0,0.0,0.0,0.0,10.0,-0.382429932535,0.00639158661619,0.215183416078,1.0,0.0,0.0,0.0,1.0,0.0,0.0,0.0,1.0,0.188009033203,-0.795146484375,9.95010864258,0.1,0.0,0.0,0.0,0.1,0.0,0.0,0.0,0.1
1446037652098754760,165,1446037652095710992,robocape,7.98025430303,11.4612790256,-3.81016187159,0.0,10.0,0.0,0.0,0.0,10.0,0.0,0.0,0.0,10.0,-0.171374416147,0.0109189604693,0.141413853883,1.0,0.0,0.0,0.0,1.0,0.0,0.0,0.0,1.0,0.213156738281,-2.48363525391,9.94412109375,0.1,0.0,0.0,0.0,0.1,0.0,0.0,0.0,0.1
1446037652131749968,166,1446037652128704071,robocape,8.52682419926,11.5476412319,-4.02292315497,0.0,10.0,0.0,0.0,0.0,10.0,0.0,0.0,0.0,10.0,0.318514066373,0.0418116291142,-0.119975407108,1.0,0.0,0.0,0.0,1.0,0.0,0.0,0.0,1.0,0.522114257812,-1.46096191406,10.0135766602,0.1,0.0,0.0,0.0,0.1,0.0,0.0,0.0,0.1
1446037652164744093,167,1446037652161475896,robocape,9.5239897476,11.6426347401,-4.50818203671,0.0,10.0,0.0,0.0,0.0,10.0,0.0,0.0,0.0,10.0,0.586960704253,0.0255663464648,-0.260989786828,1.0,0.0,0.0,0.0,1.0,0.0,0.0,0.0,1.0,-0.105380859375,-0.21076171875,10.019564209,0.1,0.0,0.0,0.0,0.1,0.0,0.0,0.0,0.1
1446037652198505302,168,1446037652195471048,robocape,10.4580944185,11.7460395424,-4.99985870855,0.0,10.0,0.0,0.0,0.0,10.0,0.0,0.0,0.0,10.0,0.55700014199,0.0256995045193,-0.266182950953,1.0,0.0,0.0,0.0,1.0,0.0,0.0,0.0,1.0,-0.0490979003906,3.26680664063,10.0004040527,0.1,0.0,0.0,0.0,0.1,0.0,0.0,0.0,0.1
1446037652231666218,169,1446037652228617906,robocape,10.487013504,11.7202874164,-4.71450122885,0.0,10.0,0.0,0.0,0.0,10.0,0.0,0.0,0.0,10.0,-0.00599211245268,0.0229031853747,0.141413853883,1.0,0.0,0.0,0.0,1.0,0.0,0.0,0.0,1.0,0.377215576172,0.601149902344,9.9249609375,0.1,0.0,0.0,0.0,0.1,0.0,0.0,0.0,0.1
1446037652265979552,170,1446037652262886047,robocape,10.588704746,11.7206563654,-4.66878345941,0.0,10.0,0.0,0.0,0.0,10.0,0.0,0.0,0.0,10.0,0.0588558600908,0.0151800182135,0.0175768631945,1.0,0.0,0.0,0.0,1.0,0.0,0.0,0.0,1.0,-0.0538879394531,1.63220581055,9.85311035156,0.1,0.0,0.0,0.0,0.1,0.0,0.0,0.0,0.1
1446037652297840927,171,1446037652294805049,robocape,10.2530381705,11.6862000202,-4.25114559185,0.0,10.0,0.0,0.0,0.0,10.0,0.0,0.0,0.0,10.0,-0.213186045261,0.0283626656093,0.210389726116,1.0,0.0,0.0,0.0,1.0,0.0,0.0,0.0,1.0,-0.615520019531,1.2992980957,10.305769043,0.1,0.0,0.0,0.0,0.1,0.0,0.0,0.0,0.1
1446037652330871594,172,1446037652327826976,robocape,9.54926825526,11.6221180648,-3.40722608064,0.0,10.0,0.0,0.0,0.0,10.0,0.0,0.0,0.0,10.0,-0.453935807804,0.0458063707494,0.430366832157,1.0,0.0,0.0,0.0,1.0,0.0,0.0,0.0,1.0,-7.08087524414,0.423918457031,12.3020178223,0.1,0.0,0.0,0.0,0.1,0.0,0.0,0.0,0.1
1446037652363992552,173,1446037652360374927,robocape,8.38243672796,11.5626386649,-2.64626428534,0.0,10.0,0.0,0.0,0.0,10.0,0.0,0.0,0.0,10.0,-0.688826615949,0.033023197517,0.389487309424,1.0,0.0,0.0,0.0,1.0,0.0,0.0,0.0,1.0,-4.4487487793,0.669407958984,10.3009790039,0.1,0.0,0.0,0.0,0.1,0.0,0.0,0.0,0.1
1446037652397080510,174,1446037652394066095,robocape,7.34984058953,11.6801976159,-2.47674127527,0.0,10.0,0.0,0.0,0.0,10.0,0.0,0.0,0.0,10.0,-0.554470138954,0.0790958843754,0.0759000910673,1.0,0.0,0.0,0.0,1.0,0.0,0.0,0.0,1.0,-5.65344360352,-1.04063598633,11.2685668945,0.1,0.0,0.0,0.0,0.1,0.0,0.0,0.0,0.1
1446037652431263677,175,1446037652428117036,robocape,5.21163874673,11.6597327895,-2.42771446003,0.0,10.0,0.0,0.0,0.0,10.0,0.0,0.0,0.0,10.0,-1.12385398001,-0.00572579634367,0.0255663464648,1.0,0.0,0.0,0.0,1.0,0.0,0.0,0.0,1.0,-7.52754638672,2.49920288086,9.7369519043,0.1,0.0,0.0,0.0,0.1,0.0,0.0,0.0,0.1
1446037652463934094,176,1446037652460057020,robocape,1.77765200303,12.0025648109,-2.35267925237,0.0,10.0,0.0,0.0,0.0,10.0,0.0,0.0,0.0,10.0,-1.80615585129,0.184423905488,0.0267647689553,1.0,0.0,0.0,0.0,1.0,0.0,0.0,0.0,1.0,-10.6446643066,0.899329833984,11.9307897949,0.1,0.0,0.0,0.0,0.1,0.0,0.0,0.0,0.1
1446037652495944885,177,1446037652492862939,robocape,-2.0502392286,12.1156313566,-2.98683087973,0.0,10.0,0.0,0.0,0.0,10.0,0.0,0.0,0.0,10.0,-1.93665074471,0.0677774497425,-0.326769865753,1.0,0.0,0.0,0.0,1.0,0.0,0.0,0.0,1.0,-7.00782714844,-0.0431103515625,9.27950317383,0.1,0.0,0.0,0.0,0.1,0.0,0.0,0.0,0.1
1446037652529840510,178,1446037652526501893,robocape,-7.02189805798,12.2113309486,-4.44374477662,0.0,10.0,0.0,0.0,0.0,10.0,0.0,0.0,0.0,10.0,-2.45277136396,0.126500151779,-0.745951421331,1.0,0.0,0.0,0.0,1.0,0.0,0.0,0.0,1.0,-8.22808959961,0.4981640625,9.8830480957,0.1,0.0,0.0,0.0,0.1,0.0,0.0,0.0,0.1
1446037652564129760,179,1446037652560203075,robocape,-12.7329514412,12.5801587094,-7.14009613894,0.0,10.0,0.0,0.0,0.0,10.0,0.0,0.0,0.0,10.0,-2.72401432099,0.467251613254,-1.34556214076,1.0,0.0,0.0,0.0,1.0,0.0,0.0,0.0,1.0,-6.66174682617,-1.22864501953,10.0890197754,0.1,0.0,0.0,0.0,0.1,0.0,0.0,0.0,0.1
1446037652595876469,180,1446037652592828989,robocape,-18.4435374479,12.9511055609,-11.6561857258,0.0,10.0,0.0,0.0,0.0,10.0,0.0,0.0,0.0,10.0,-2.55263990484,0.882971059416,-2.2217421394,1.0,0.0,0.0,0.0,1.0,0.0,0.0,0.0,1.0,-5.00080078125,-2.1495300293,11.6505725098,0.1,0.0,0.0,0.0,0.1,0.0,0.0,0.0,0.1
1446037652629203844,181,1446037652626061916,robocape,-24.3204529469,13.2999172227,-17.5552324936,0.0,10.0,0.0,0.0,0.0,10.0,0.0,0.0,0.0,10.0,-2.54584884406,1.40321957836,-2.85397658218,1.0,0.0,0.0,0.0,1.0,0.0,0.0,0.0,1.0,-1.08973388672,-3.44044555664,7.93829223633,0.1,0.0,0.0,0.0,0.1,0.0,0.0,0.0,0.1
1446037652662884219,182,1446037652659712076,robocape,-30.1069655676,13.7214347784,-25.8441803014,0.0,10.0,0.0,0.0,0.0,10.0,0.0,0.0,0.0,10.0,-2.33106490215,2.38406180784,-3.92057259876,1.0,0.0,0.0,0.0,1.0,0.0,0.0,0.0,1.0,0.725690917969,-5.26185791016,11.2242590332,0.1,0.0,0.0,0.0,0.1,0.0,0.0,0.0,0.1
1446037652695618802,183,1446037652692558050,robocape,-34.5315719848,13.9507963756,-35.0579455137,0.0,10.0,0.0,0.0,0.0,10.0,0.0,0.0,0.0,10.0,-1.61800352028,3.00724150292,-4.36332312999,1.0,0.0,0.0,0.0,1.0,0.0,0.0,0.0,1.0,0.852626953125,-8.51189941406,11.0506201172,0.1,0.0,0.0,0.0,0.1,0.0,0.0,0.0,0.1
1446037652729127885,184,1446037652726135015,robocape,-36.3444677877,15.0168626108,-44.7773041134,0.0,10.0,0.0,0.0,0.0,10.0,0.0,0.0,0.0,10.0,-0.193478653194,3.85718936482,-4.36332312999,1.0,0.0,0.0,0.0,1.0,0.0,0.0,0.0,1.0,-4.9852331543,-11.0781628418,14.1845031738,0.1,0.0,0.0,0.0,0.1,0.0,0.0,0.0,0.1
1446037652763231010,185,1446037652759623050,robocape,-34.7798223821,15.4258068188,-53.7635422207,0.0,10.0,0.0,0.0,0.0,10.0,0.0,0.0,0.0,10.0,1.62040036526,3.39726144456,-4.36332312999,1.0,0.0,0.0,0.0,1.0,0.0,0.0,0.0,1.0,-13.8755456543,-10.6566394043,12.5307421875,0.1,0.0,0.0,0.0,0.1,0.0,0.0,0.0,0.1
1446037652796134969,186,1446037652793102979,robocape,-28.0277162783,14.5124208554,-61.5394298363,0.0,10.0,0.0,0.0,0.0,10.0,0.0,0.0,0.0,10.0,4.36318997193,2.10336462894,-4.36332312999,1.0,0.0,0.0,0.0,1.0,0.0,0.0,0.0,1.0,-19.62,-14.3461669922,10.208770752,0.1,0.0,0.0,0.0,0.1,0.0,0.0,0.0,0.1
1446037652828994552,187,1446037652825967073,robocape,-20.8209655533,12.0817457329,-67.6201236446,0.0,10.0,0.0,0.0,0.0,10.0,0.0,0.0,0.0,10.0,4.36318997193,0.558864354753,-4.33069940663,1.0,0.0,0.0,0.0,1.0,0.0,0.0,0.0,1.0,-14.0946899414,-9.40524169922,-4.45473632813,0.1,0.0,0.0,0.0,0.1,0.0,0.0,0.0,0.1
1446037652863084927,188,1446037652859483957,robocape,-13.0665470945,11.1004007584,-70.8279774802,0.0,10.0,0.0,0.0,0.0,10.0,0.0,0.0,0.0,10.0,4.36318997193,0.240616604489,-2.47913665875,1.0,0.0,0.0,0.0,1.0,0.0,0.0,0.0,1.0,-8.61368774414,-0.501756591797,-11.281739502,0.1,0.0,0.0,0.0,0.1,0.0,0.0,0.0,0.1
1446037652895564260,189,1446037652892555952,robocape,-4.85823381899,11.809183109,-71.2504072975,0.0,10.0,0.0,0.0,0.0,10.0,0.0,0.0,0.0,10.0,4.36318997193,0.49401638221,-0.507731661824,1.0,0.0,0.0,0.0,1.0,0.0,0.0,0.0,1.0,-0.623902587891,4.78764404297,-12.1726867676,0.1,0.0,0.0,0.0,0.1,0.0,0.0,0.0,0.1
1446037652929425802,190,1446037652926351070,robocape,1.96908442582,12.3227539725,-64.8468537139,0.0,10.0,0.0,0.0,0.0,10.0,0.0,0.0,0.0,10.0,2.74531960971,-0.0370179391521,4.36318997193,1.0,0.0,0.0,0.0,1.0,0.0,0.0,0.0,1.0,19.6194012451,19.6194012451,4.0583605957,0.1,0.0,0.0,0.0,0.1,0.0,0.0,0.0,0.1
1446037652962828302,191,1446037652959573984,robocape,10.8318676859,16.3678794533,-57.2014359417,0.0,10.0,0.0,0.0,0.0,10.0,0.0,0.0,0.0,10.0,3.46543836847,2.3666181027,4.36318997193,1.0,0.0,0.0,0.0,1.0,0.0,0.0,0.0,1.0,10.2949914551,9.9249609375,-1.66453857422,0.1,0.0,0.0,0.0,0.1,0.0,0.0,0.0,0.1
1446037652995872011,192,1446037652992765903,robocape,17.8435156667,22.0265119931,-47.6552311111,0.0,10.0,0.0,0.0,0.0,10.0,0.0,0.0,0.0,10.0,1.81134901542,3.88382097572,4.36318997193,1.0,0.0,0.0,0.0,1.0,0.0,0.0,0.0,1.0,-0.222736816406,8.71188354492,-1.59268798828,0.1,0.0,0.0,0.0,0.1,0.0,0.0,0.0,0.1
1446037653029036302,193,1446037653025969982,robocape,23.4604213731,26.2015561081,-37.0196366925,0.0,10.0,0.0,0.0,0.0,10.0,0.0,0.0,0.0,10.0,0.431565254647,3.67409703987,4.36318997193,1.0,0.0,0.0,0.0,1.0,0.0,0.0,0.0,1.0,-1.66693359375,7.84129394531,-1.79506713867,0.1,0.0,0.0,0.0,0.1,0.0,0.0,0.0,0.1
1446037653062860177,194,1446037653059571981,robocape,29.6548230839,30.4509508414,-25.0823857914,0.0,10.0,0.0,0.0,0.0,10.0,0.0,0.0,0.0,10.0,0.15313176268,4.36318997193,4.0679785651,1.0,0.0,0.0,0.0,1.0,0.0,0.0,0.0,1.0,15.9472375488,6.20549560547,2.63691650391,0.1,0.0,0.0,0.0,0.1,0.0,0.0,0.0,0.1
1446037653095748302,195,1446037653092670917,robocape,35.5817575149,33.3277773598,-12.045380298,0.0,10.0,0.0,0.0,0.0,10.0,0.0,0.0,0.0,10.0,-0.555934877554,4.36318997193,4.11431756806,1.0,0.0,0.0,0.0,1.0,0.0,0.0,0.0,1.0,-0.639470214844,7.69280273438,-6.66294433594,0.1,0.0,0.0,0.0,0.1,0.0,0.0,0.0,0.1
1446037653128971177,196,1446037653125910997,robocape,37.9362184943,35.2980534301,2.11313560916,0.0,10.0,0.0,0.0,0.0,10.0,0.0,0.0,0.0,10.0,-3.09033212893,4.36318997193,4.36318997193,1.0,0.0,0.0,0.0,1.0,0.0,0.0,0.0,1.0,-19.62,19.6194012451,19.6194012451,0.1,0.0,0.0,0.0,0.1,0.0,0.0,0.0,0.1
1446037653162785927,197,1446037653159727096,robocape,31.6851436873,30.4167636125,4.32838848394,0.0,10.0,0.0,0.0,0.0,10.0,0.0,0.0,0.0,10.0,-4.36332312999,-2.04450876885,2.35396808752,1.0,0.0,0.0,0.0,1.0,0.0,0.0,0.0,1.0,-19.62,19.6194012451,15.2730395508,0.1,0.0,0.0,0.0,0.1,0.0,0.0,0.0,0.1
1446037653195798386,198,1446037653192728996,robocape,24.4167181503,27.5487085076,5.52806716308,0.0,10.0,0.0,0.0,0.0,10.0,0.0,0.0,0.0,10.0,-4.36332312999,-1.38857219237,1.21759725038,1.0,0.0,0.0,0.0,1.0,0.0,0.0,0.0,1.0,1.59628051758,1.39150634766,-19.62,0.1,0.0,0.0,0.0,0.1,0.0,0.0,0.0,0.1
1446037653229063677,199,1446037653225955963,robocape,17.0225404518,26.7724560681,7.16334184926,0.0,10.0,0.0,0.0,0.0,10.0,0.0,0.0,0.0,10.0,-4.36332312999,-0.289352452437,0.851812074662,1.0,0.0,0.0,0.0,1.0,0.0,0.0,0.0,1.0,0.359252929688,-0.208366699219,-19.62,0.1,0.0,0.0,0.0,0.1,0.0,0.0,0.0,0.1
1446037653263258136,200,1446037653259767055,robocape,4.4812323007,28.5355465821,-2.0468732982,0.0,10.0,0.0,0.0,0.0,10.0,0.0,0.0,0.0,10.0,-4.36332312999,-0.0173105470855,-4.36332312999,1.0,0.0,0.0,0.0,1.0,0.0,0.0,0.0,1.0,15.2526818848,-19.62,-9.29626831055,0.1,0.0,0.0,0.0,0.1,0.0,0.0,0.0,0.1
1446037653295806636,201,1446037653292542934,robocape,-8.39434752654,29.1076499451,-11.5048619816,0.0,10.0,0.0,0.0,0.0,10.0,0.0,0.0,0.0,10.0,-4.36332312999,0.49934270439,-4.36332312999,1.0,0.0,0.0,0.0,1.0,0.0,0.0,0.0,1.0,9.82437011719,-7.8975769043,-5.05229370117,0.1,0.0,0.0,0.0,0.1,0.0,0.0,0.0,0.1
1446037653332136052,202,1446037653328782081,robocape,-20.3353891327,25.003456334,-19.6555962267,0.0,10.0,0.0,0.0,0.0,10.0,0.0,0.0,0.0,10.0,-4.36332312999,-1.03876598319,-4.29461357386,1.0,0.0,0.0,0.0,1.0,0.0,0.0,0.0,1.0,6.37913452148,15.0586853027,4.84033447266,0.1,0.0,0.0,0.0,0.1,0.0,0.0,0.0,0.1
1446037653365581177,203,1446037653362452983,robocape,-29.5709023474,24.773547154,-22.8729779237,0.0,10.0,0.0,0.0,0.0,10.0,0.0,0.0,0.0,10.0,-4.36332312999,0.823582567107,-1.61254404004,1.0,0.0,0.0,0.0,1.0,0.0,0.0,0.0,1.0,8.60171264648,1.19990478516,-18.1338903809,0.1,0.0,0.0,0.0,0.1,0.0,0.0,0.0,0.1
1446037653398129969,204,1446037653394804000,robocape,-38.2708990995,26.241489025,-25.7239963805,0.0,10.0,0.0,0.0,0.0,10.0,0.0,0.0,0.0,10.0,-4.36332312999,1.8552911734,-0.934103752345,1.0,0.0,0.0,0.0,1.0,0.0,0.0,0.0,1.0,3.86556152344,-0.505349121094,-18.1590380859,0.1,0.0,0.0,0.0,0.1,0.0,0.0,0.0,0.1
1446037653431669677,205,1446037653428565979,robocape,-46.4916097275,29.1776630414,-28.3168756207,0.0,10.0,0.0,0.0,0.0,10.0,0.0,0.0,0.0,10.0,-4.36332312999,2.61522419046,-0.130628051468,1.0,0.0,0.0,0.0,1.0,0.0,0.0,0.0,1.0,1.85853515625,-0.993933105469,-17.9279187012,0.1,0.0,0.0,0.0,0.1,0.0,0.0,0.0,0.1
1446037653464027219,206,1446037653460947036,robocape,-54.2915936435,33.3888907307,-30.7594369393,0.0,10.0,0.0,0.0,0.0,10.0,0.0,0.0,0.0,10.0,-4.36332312999,3.15877536894,0.729439822573,1.0,0.0,0.0,0.0,1.0,0.0,0.0,0.0,1.0,-0.971180419922,-0.859812011719,-17.4225695801,0.1,0.0,0.0,0.0,0.1,0.0,0.0,0.0,0.1
1446037653496587302,207,1446037653493323087,robocape,-60.8531730134,34.27653443,-30.7048073318,0.0,10.0,0.0,0.0,0.0,10.0,0.0,0.0,0.0,10.0,-4.36332312999,1.05354652724,0.194144443467,1.0,0.0,0.0,0.0,1.0,0.0,0.0,0.0,1.0,15.2957922363,-5.5145324707,-19.62,0.1,0.0,0.0,0.0,0.1,0.0,0.0,0.0,0.1
1446037653530526677,208,1446037653527483940,robocape,-66.5067786248,30.4404630064,-28.6837605592,0.0,10.0,0.0,0.0,0.0,10.0,0.0,0.0,0.0,10.0,-4.36332312999,-1.04675546646,-1.58085242307,1.0,0.0,0.0,0.0,1.0,0.0,0.0,0.0,1.0,4.88224731445,-0.783171386719,-12.2169946289,0.1,0.0,0.0,0.0,0.1,0.0,0.0,0.0,0.1
1446037653565681386,209,1446037653562625885,robocape,-71.9076369959,26.814265568,-27.2452609506,0.0,10.0,0.0,0.0,0.0,10.0,0.0,0.0,0.0,10.0,-4.36332312999,-0.533031692179,-1.73305207937,1.0,0.0,0.0,0.0,1.0,0.0,0.0,0.0,1.0,4.31702270508,-0.0167651367188,-11.5128588867,0.1,0.0,0.0,0.0,0.1,0.0,0.0,0.0,0.1
1446037653596233927,210,1446037653593199968,robocape,-76.6660018861,24.2662678316,-25.2585652114,0.0,10.0,0.0,0.0,0.0,10.0,0.0,0.0,0.0,10.0,-4.36332312999,-0.49135322112,-1.20414828688,1.0,0.0,0.0,0.0,1.0,0.0,0.0,0.0,1.0,14.2120458984,1.44419677734,-19.0942932129,0.1,0.0,0.0,0.0,0.1,0.0,0.0,0.0,0.1
1446037653629463136,211,1446037653626425981,robocape,-80.2215420479,17.90467078,-18.2486138803,0.0,10.0,0.0,0.0,0.0,10.0,0.0,0.0,0.0,10.0,-4.36332312999,-3.56264374825,-2.7272101143,1.0,0.0,0.0,0.0,1.0,0.0,0.0,0.0,1.0,11.403885498,0.240699462891,-10.7057373047,0.1,0.0,0.0,0.0,0.1,0.0,0.0,0.0,0.1
1446037653662877261,212,1446037653659735918,robocape,-83.8952735011,10.949299587,-12.1343319351,0.0,10.0,0.0,0.0,0.0,10.0,0.0,0.0,0.0,10.0,-4.36332312999,-3.14679114404,-3.34053611334,1.0,0.0,0.0,0.0,1.0,0.0,0.0,0.0,1.0,5.60314819336,0.741258544922,-9.61600341797,0.1,0.0,0.0,0.0,0.1,0.0,0.0,0.0,0.1
1446037653695960136,213,1446037653692941904,robocape,-87.5758883819,3.74445735623,-7.24804219897,0.0,10.0,0.0,0.0,0.0,10.0,0.0,0.0,0.0,10.0,-4.36332312999,-2.49245246421,-3.76304662028,1.0,0.0,0.0,0.0,1.0,0.0,0.0,0.0,1.0,5.64386352539,0.644260253906,-8.77056152344,0.1,0.0,0.0,0.0,0.1,0.0,0.0,0.0,0.1
1446037653729128386,214,1446037653726100921,robocape,-90.9839037082,-3.95410150767,-5.99436435843,0.0,10.0,0.0,0.0,0.0,10.0,0.0,0.0,0.0,10.0,-4.36332312999,-0.495614278864,-4.28995304195,1.0,0.0,0.0,0.0,1.0,0.0,0.0,0.0,1.0,19.6194012451,-8.32149536133,2.16629516602,0.1,0.0,0.0,0.0,0.1,0.0,0.0,0.0,0.1
1446037653763175553,215,1446037653759612083,robocape,-94.322261756,-11.2987171377,-2.14606613991,0.0,10.0,0.0,0.0,0.0,10.0,0.0,0.0,0.0,10.0,-4.36332312999,-1.85409275091,-4.36332312999,1.0,0.0,0.0,0.0,1.0,0.0,0.0,0.0,1.0,16.7208288574,5.85821777344,-3.48475341797,0.1,0.0,0.0,0.0,0.1,0.0,0.0,0.0,0.1
1446037653795632261,216,1446037653792598009,robocape,-95.4192259956,-19.1363711655,-7.89237447329,0.0,10.0,0.0,0.0,0.0,10.0,0.0,0.0,0.0,10.0,-4.36332312999,3.18460803152,-4.36332312999,1.0,0.0,0.0,0.0,1.0,0.0,0.0,0.0,1.0,19.6194012451,1.68609375,-4.06075561523,0.1,0.0,0.0,0.0,0.1,0.0,0.0,0.0,0.1
1446037653829162219,217,1446037653826126098,robocape,-94.0025609624,-19.6285642615,-12.8554443737,0.0,10.0,0.0,0.0,0.0,10.0,0.0,0.0,0.0,10.0,-1.15834191613,2.4169518473,-0.293214036018,1.0,0.0,0.0,0.0,1.0,0.0,0.0,0.0,1.0,-4.30385009766,-19.62,19.6194012451,0.1,0.0,0.0,0.0,0.1,0.0,0.0,0.0,0.1
1446037653863101053,218,1446037653859821081,robocape,-92.4482270721,-18.8395323828,-11.9089762913,0.0,10.0,0.0,0.0,0.0,10.0,0.0,0.0,0.0,10.0,1.17139140547,-0.479635312323,0.438888947645,1.0,0.0,0.0,0.0,1.0,0.0,0.0,0.0,1.0,3.99728759766,-1.34719848633,4.79722412109,0.1,0.0,0.0,0.0,0.1,0.0,0.0,0.0,0.1
1446037653895595344,219,1446037653892566919,robocape,-90.5110333366,-19.0816689722,-12.4314670516,0.0,10.0,0.0,0.0,0.0,10.0,0.0,0.0,0.0,10.0,0.951281141376,0.263253473754,-0.113184346328,1.0,0.0,0.0,0.0,1.0,0.0,0.0,0.0,1.0,-0.468226318359,4.62837524414,7.03417236328,0.1,0.0,0.0,0.0,0.1,0.0,0.0,0.0,0.1
1446037653929914094,220,1446037653926528930,robocape,-88.7105024047,-19.0507946506,-12.5312354381,0.0,10.0,0.0,0.0,0.0,10.0,0.0,0.0,0.0,10.0,0.982972758348,0.0527305895836,0.0315584589174,1.0,0.0,0.0,0.0,1.0,0.0,0.0,0.0,1.0,-3.37697753906,4.80919921875,11.2086914063,0.1,0.0,0.0,0.0,0.1,0.0,0.0,0.0,0.1
1446037653962597428,221,1446037653959496021,robocape,-87.1508002673,-18.9458828035,-12.0322119402,0.0,10.0,0.0,0.0,0.0,10.0,0.0,0.0,0.0,10.0,0.935169016781,-0.242747133361,0.0731037719227,1.0,0.0,0.0,0.0,1.0,0.0,0.0,0.0,1.0,-0.512534179688,0.952020263672,6.4414050293,0.1,0.0,0.0,0.0,0.1,0.0,0.0,0.0,0.1
1446037653995838094,222,1446037653992757081,robocape,-85.6562540938,-19.7664484015,-11.9422104406,0.0,10.0,0.0,0.0,0.0,10.0,0.0,0.0,0.0,10.0,0.62291337897,-0.083756416283,-0.475773728743,1.0,0.0,0.0,0.0,1.0,0.0,0.0,0.0,1.0,-1.9124230957,16.5220422363,7.68202514648,0.1,0.0,0.0,0.0,0.1,0.0,0.0,0.0,0.1
1446037654029316553,223,1446037654026211977,robocape,-84.8737682124,-20.2089621559,-11.9677284481,0.0,10.0,0.0,0.0,0.0,10.0,0.0,0.0,0.0,10.0,-0.0685763980695,-0.0456732126949,-0.368182020703,1.0,0.0,0.0,0.0,1.0,0.0,0.0,0.0,1.0,0.366437988281,5.94922851563,7.57424926758,0.1,0.0,0.0,0.0,0.1,0.0,0.0,0.0,0.1
1446037654062554136,224,1446037654059451103,robocape,-83.7746057131,-20.5989160277,-12.1277623959,0.0,10.0,0.0,0.0,0.0,10.0,0.0,0.0,0.0,10.0,0.222507109076,0.0294279300454,-0.30599720925,1.0,0.0,0.0,0.0,1.0,0.0,0.0,0.0,1.0,-0.493374023438,2.02379150391,8.29754516602,0.1,0.0,0.0,0.0,0.1,0.0,0.0,0.0,0.1
1446037654095842094,225,1446037654092778921,robocape,-82.3740000416,-20.9036661455,-12.2028675074,0.0,10.0,0.0,0.0,0.0,10.0,0.0,0.0,0.0,10.0,0.566188047751,0.00266316109008,-0.208924987517,1.0,0.0,0.0,0.0,1.0,0.0,0.0,0.0,1.0,-0.851429443359,7.85326904297,7.88919433594,0.1,0.0,0.0,0.0,0.1,0.0,0.0,0.0,0.1
1446037654129357886,226,1446037654126343011,robocape,-81.4021995349,-20.4195063274,-12.2621736809,0.0,10.0,0.0,0.0,0.0,10.0,0.0,0.0,0.0,10.0,0.277634543641,0.0422111032778,0.18122811218,1.0,0.0,0.0,0.0,1.0,0.0,0.0,0.0,1.0,-0.851429443359,7.44731323242,7.67723510742,0.1,0.0,0.0,0.0,0.1,0.0,0.0,0.0,0.1
1446037654163751136,227,1446037654160672903,robocape,-80.4394228922,-19.9141716074,-12.2774667743,0.0,10.0,0.0,0.0,0.0,10.0,0.0,0.0,0.0,10.0,0.29800772598,0.0288952978274,0.19987023981,1.0,0.0,0.0,0.0,1.0,0.0,0.0,0.0,1.0,-0.798739013672,5.81510742188,7.71795043945,0.1,0.0,0.0,0.0,0.1,0.0,0.0,0.0,0.1
1446037654195731094,228,1446037654192723035,robocape,-79.594392451,-19.7629275206,-12.1810438599,0.0,10.0,0.0,0.0,0.0,10.0,0.0,0.0,0.0,10.0,0.190416017941,-0.0597879664723,0.00625842856169,1.0,0.0,0.0,0.0,1.0,0.0,0.0,0.0,1.0,-0.820294189453,9.53098022461,7.0509375,0.1,0.0,0.0,0.0,0.1,0.0,0.0,0.0,0.1
1446037654229096553,229,1446037654226078987,robocape,-79.323558439,-18.9485603469,-12.0521859654,0.0,10.0,0.0,0.0,0.0,10.0,0.0,0.0,0.0,10.0,-0.235689756472,-0.0246342400832,0.315584589174,1.0,0.0,0.0,0.0,1.0,0.0,0.0,0.0,1.0,-0.955612792969,7.04135742188,7.48204101563,0.1,0.0,0.0,0.0,0.1,0.0,0.0,0.0,0.1
1446037654262627969,230,1446037654259505033,robocape,-79.0200775312,-18.1614979718,-11.9930740227,0.0,10.0,0.0,0.0,0.0,10.0,0.0,0.0,0.0,10.0,-0.223172899349,0.0121173829599,0.300138254852,1.0,0.0,0.0,0.0,1.0,0.0,0.0,0.0,1.0,-0.998723144531,7.06890014648,7.78141845703,0.1,0.0,0.0,0.0,0.1,0.0,0.0,0.0,0.1
1446037654295833969,231,1446037654292793989,robocape,-78.60019537,-17.66293698,-12.0284731103,0.0,10.0,0.0,0.0,0.0,10.0,0.0,0.0,0.0,10.0,-0.168711255057,0.0350205683345,0.1463407019,1.0,0.0,0.0,0.0,1.0,0.0,0.0,0.0,1.0,0.189206542969,6.62222900391,7.80536865234,0.1,0.0,0.0,0.0,0.1,0.0,0.0,0.0,0.1
1446037654328927428,232,1446037654325903892,robocape,-78.0405182996,-17.2893357978,-12.1374498645,0.0,10.0,0.0,0.0,0.0,10.0,0.0,0.0,0.0,10.0,-0.0669785014155,0.0649811305979,0.0857537871006,1.0,0.0,0.0,0.0,1.0,0.0,0.0,0.0,1.0,0.173638916016,5.93246337891,7.63053222656,0.1,0.0,0.0,0.0,0.1,0.0,0.0,0.0,0.1
1446037654362649345,233,1446037654359282970,robocape,-77.2110661665,-17.4565776592,-12.2741904038,0.0,10.0,0.0,0.0,0.0,10.0,0.0,0.0,0.0,10.0,0.118910142672,0.0246342400832,-0.183092324943,1.0,0.0,0.0,0.0,1.0,0.0,0.0,0.0,1.0,0.457448730469,6.35877685547,7.48084350586,0.1,0.0,0.0,0.0,0.1,0.0,0.0,0.0,0.1
1446037654397431303,234,1446037654392594099,robocape,-76.5053734214,-17.425845775,-12.3243584062,0.0,10.0,0.0,0.0,0.0,10.0,0.0,0.0,0.0,10.0,0.0623179695079,0.0031957933081,-0.0751011427402,1.0,0.0,0.0,0.0,1.0,0.0,0.0,0.0,1.0,0.712518310547,7.45809082031,7.44252319336,0.1,0.0,0.0,0.0,0.1,0.0,0.0,0.0,0.1
1446037654429721136,235,1446037654426295042,robocape,-76.0552717302,-16.9481464441,-12.2770756613,0.0,10.0,0.0,0.0,0.0,10.0,0.0,0.0,0.0,10.0,-0.0806937810294,0.00905474770627,0.157792294587,1.0,0.0,0.0,0.0,1.0,0.0,0.0,0.0,1.0,0.184416503906,6.59229125977,7.41258544922,0.1,0.0,0.0,0.0,0.1,0.0,0.0,0.0,0.1
1446037654463068095,236,1446037654459378957,robocape,-75.5140700025,-16.710753799,-12.2426146323,0.0,10.0,0.0,0.0,0.0,10.0,0.0,0.0,0.0,10.0,-0.0210389726116,-0.0114515926873,0.0380832035881,1.0,0.0,0.0,0.0,1.0,0.0,0.0,0.0,1.0,0.0431103515625,6.39829467773,7.50359619141,0.1,0.0,0.0,0.0,0.1,0.0,0.0,0.0,0.1
1446037654495938678,237,1446037654492522001,robocape,-74.8487054228,-16.5979764082,-12.2503102268,0.0,10.0,0.0,0.0,0.0,10.0,0.0,0.0,0.0,10.0,0.0717721913776,-0.0034621094171,-0.0211721306661,1.0,0.0,0.0,0.0,1.0,0.0,0.0,0.0,1.0,0.180823974609,6.20070556641,7.68681518555,0.1,0.0,0.0,0.0,0.1,0.0,0.0,0.0,0.1
1446037654529904386,238,1446037654526288986,robocape,-74.2055656796,-16.5661169234,-12.2775019155,0.0,10.0,0.0,0.0,0.0,10.0,0.0,0.0,0.0,10.0,0.0492684801665,-0.00559263828917,-0.0675111336335,1.0,0.0,0.0,0.0,1.0,0.0,0.0,0.0,1.0,0.365240478516,7.24972412109,7.52754638672,0.1,0.0,0.0,0.0,0.1,0.0,0.0,0.0,0.1
1446037654563641470,239,1446037654560343980,robocape,-73.5422222864,-16.5141803976,-12.3478658977,0.0,10.0,0.0,0.0,0.0,10.0,0.0,0.0,0.0,10.0,0.0661795530885,0.0190416017941,-0.0604537567448,1.0,0.0,0.0,0.0,1.0,0.0,0.0,0.0,1.0,-0.0706530761719,6.34440673828,7.6676550293,0.1,0.0,0.0,0.0,0.1,0.0,0.0,0.0,0.1
1446037654595885095,240,1446037654592747926,robocape,-72.6819323305,-16.8041055644,-12.4800200877,0.0,10.0,0.0,0.0,0.0,10.0,0.0,0.0,0.0,10.0,0.192679704867,-0.000798948327024,-0.2335592276,1.0,0.0,0.0,0.0,1.0,0.0,0.0,0.0,1.0,-0.1916015625,6.38272705078,7.36588256836,0.1,0.0,0.0,0.0,0.1,0.0,0.0,0.0,0.1
1446037654629266220,241,1446037654626190900,robocape,-72.0442064985,-16.8035148465,-12.5383951104,0.0,10.0,0.0,0.0,0.0,10.0,0.0,0.0,0.0,10.0,0.0600542825813,0.00426105774413,-0.0860201032096,1.0,0.0,0.0,0.0,1.0,0.0,0.0,0.0,1.0,0.360450439453,7.81854125977,7.49281860352,0.1,0.0,0.0,0.0,0.1,0.0,0.0,0.0,0.1
1446037654662904428,242,1446037654659709930,robocape,-71.816717153,-16.1801283282,-12.4579484001,0.0,10.0,0.0,0.0,0.0,10.0,0.0,0.0,0.0,10.0,-0.180695479962,0.0347542522255,0.233692385654,1.0,0.0,0.0,0.0,1.0,0.0,0.0,0.0,1.0,0.129331054688,6.67731445313,7.55508911133,0.1,0.0,0.0,0.0,0.1,0.0,0.0,0.0,0.1
1446037654695627720,243,1446037654692559003,robocape,-71.5287420185,-15.7403975419,-12.3937487266,0.0,10.0,0.0,0.0,0.0,10.0,0.0,0.0,0.0,10.0,-0.147006492172,0.0157126504315,0.141946486101,1.0,0.0,0.0,0.0,1.0,0.0,0.0,0.0,1.0,0.324525146484,6.361171875,7.5910144043,0.1,0.0,0.0,0.0,0.1,0.0,0.0,0.0,0.1
1446037654729199178,244,1446037654726046085,robocape,-71.0803637857,-15.4642593272,-12.3633697213,0.0,10.0,0.0,0.0,0.0,10.0,0.0,0.0,0.0,10.0,-0.032756881408,0.00972053797879,0.0653806047614,1.0,0.0,0.0,0.0,1.0,0.0,0.0,0.0,1.0,0.294587402344,6.25818603516,7.51197875977,0.1,0.0,0.0,0.0,0.1,0.0,0.0,0.0,0.1
1446037654762818428,245,1446037654759731054,robocape,-70.5075304466,-15.4141327646,-12.3934415463,0.0,10.0,0.0,0.0,0.0,10.0,0.0,0.0,0.0,10.0,0.0423442613323,0.00266316109008,-0.0519316412565,1.0,0.0,0.0,0.0,1.0,0.0,0.0,0.0,1.0,0.226329345703,6.41865234375,7.57544677734,0.1,0.0,0.0,0.0,0.1,0.0,0.0,0.0,0.1
1446037654796975595,246,1446037654793853998,robocape,-69.9688808123,-15.2944352011,-12.4034007196,0.0,10.0,0.0,0.0,0.0,10.0,0.0,0.0,0.0,10.0,0.0316916169719,0.00572579634367,-0.0133158054504,1.0,0.0,0.0,0.0,1.0,0.0,0.0,0.0,1.0,0.461041259766,7.08327026367,7.46048583984,0.1,0.0,0.0,0.0,0.1,0.0,0.0,0.0,0.1
1446037654830392428,247,1446037654827178955,robocape,-69.3447745481,-15.2573013265,-12.4537482012,0.0,10.0,0.0,0.0,0.0,10.0,0.0,0.0,0.0,10.0,0.0910801092807,0.0119842249054,-0.0559263828917,1.0,0.0,0.0,0.0,1.0,0.0,0.0,0.0,1.0,-0.0467028808594,6.54439086914,7.64729736328,0.1,0.0,0.0,0.0,0.1,0.0,0.0,0.0,0.1
1446037654864007511,248,1446037654860918045,robocape,-68.5438930876,-15.525468498,-12.6014727474,0.0,10.0,0.0,0.0,0.0,10.0,0.0,0.0,0.0,10.0,0.192413388758,0.00199737081756,-0.218112893277,1.0,0.0,0.0,0.0,1.0,0.0,0.0,0.0,1.0,-0.147293701172,6.32045654297,7.48204101563,0.1,0.0,0.0,0.0,0.1,0.0,0.0,0.0,0.1
1446037654897524761,249,1446037654894264936,robocape,-67.9387217393,-15.575131596,-12.6687762606,0.0,10.0,0.0,0.0,0.0,10.0,0.0,0.0,0.0,10.0,0.0793622004844,0.00186421276306,-0.103996440568,1.0,0.0,0.0,0.0,1.0,0.0,0.0,0.0,1.0,0.320932617188,7.740703125,7.43893066406,0.1,0.0,0.0,0.0,0.1,0.0,0.0,0.0,0.1
1446037654931265303,250,1446037654927843093,robocape,-67.740685456,-15.0413446775,-12.5557482516,0.0,10.0,0.0,0.0,0.0,10.0,0.0,0.0,0.0,10.0,-0.148204914663,0.0287621397729,0.203066033119,1.0,0.0,0.0,0.0,1.0,0.0,0.0,0.0,1.0,0.173638916016,6.89765625,7.43294311523,0.1,0.0,0.0,0.0,0.1,0.0,0.0,0.0,0.1
1446037654964490470,251,1446037654961252927,robocape,-67.508927356,-14.6869343029,-12.4993950959,0.0,10.0,0.0,0.0,0.0,10.0,0.0,0.0,0.0,10.0,-0.144343331082,0.0213052887206,0.104262756677,1.0,0.0,0.0,0.0,1.0,0.0,0.0,0.0,1.0,0.220341796875,6.19232299805,7.56586669922,0.1,0.0,0.0,0.0,0.1,0.0,0.0,0.0,0.1
1446037655000171595,252,1446037654996129035,robocape,-66.8965901084,-14.6870146796,-12.5787482434,0.0,10.0,0.0,0.0,0.0,10.0,0.0,0.0,0.0,10.0,0.100268015041,0.0199737081756,-0.0762995652308,1.0,0.0,0.0,0.0,1.0,0.0,0.0,0.0,1.0,0.383203125,6.06179443359,7.63891479492,0.1,0.0,0.0,0.0,0.1,0.0,0.0,0.0,0.1
1446037655033250720,253,1446037655028966903,robocape,-66.1471707783,-14.9453276511,-12.7176038732,0.0,10.0,0.0,0.0,0.0,10.0,0.0,0.0,0.0,10.0,0.180296005798,-0.00559263828917,-0.20932446168,1.0,0.0,0.0,0.0,1.0,0.0,0.0,0.0,1.0,0.0898132324219,7.0473449707,7.40420288086,0.1,0.0,0.0,0.0,0.1,0.0,0.0,0.0,0.1
1446037655066539053,254,1446037655062099933,robocape,-65.746300921,-14.6572716019,-12.6816886043,0.0,10.0,0.0,0.0,0.0,10.0,0.0,0.0,0.0,10.0,-0.00479368996214,0.0256995045193,0.0806937810294,1.0,0.0,0.0,0.0,1.0,0.0,0.0,0.0,1.0,0.211959228516,6.32764160156,7.64729736328,0.1,0.0,0.0,0.0,0.1,0.0,0.0,0.0,0.1
1446037655101002137,255,1446037655097630023,robocape,-65.166332966,-14.7637284045,-12.7981381996,0.0,10.0,0.0,0.0,0.0,10.0,0.0,0.0,0.0,10.0,0.0772316716123,0.0123836990689,-0.138084902521,1.0,0.0,0.0,0.0,1.0,0.0,0.0,0.0,1.0,-0.0802331542969,6.69767211914,7.48922607422,0.1,0.0,0.0,0.0,0.1,0.0,0.0,0.0,0.1
1446037655129980470,256,1446037655126940011,robocape,-64.3285978068,-15.1202595275,-12.9910669874,0.0,10.0,0.0,0.0,0.0,10.0,0.0,0.0,0.0,10.0,0.242747133361,-0.00652474467069,-0.262587683482,1.0,0.0,0.0,0.0,1.0,0.0,0.0,0.0,1.0,-0.213156738281,7.13236816406,7.3539074707,0.1,0.0,0.0,0.0,0.1,0.0,0.0,0.0,0.1
1446037655167415928,257,1446037655163177967,robocape,-64.0971973338,-14.6716910267,-12.8585705052,0.0,10.0,0.0,0.0,0.0,10.0,0.0,0.0,0.0,10.0,-0.082957467956,0.0209058145571,0.173771261128,1.0,0.0,0.0,0.0,1.0,0.0,0.0,0.0,1.0,0.076640625,7.25451416016,7.55748413086,0.1,0.0,0.0,0.0,0.1,0.0,0.0,0.0,0.1
1446037655195719678,258,1446037655192729949,robocape,-64.0973964866,-14.0370102953,-12.6489734953,0.0,10.0,0.0,0.0,0.0,10.0,0.0,0.0,0.0,10.0,-0.225436586275,0.0268979270098,0.271376115079,1.0,0.0,0.0,0.0,1.0,0.0,0.0,0.0,1.0,0.128133544922,7.10722045898,7.42216552734,0.1,0.0,0.0,0.0,0.1,0.0,0.0,0.0,0.1
1446037655229108428,259,1446037655226111888,robocape,-63.9907390203,-13.603192559,-12.4889746436,0.0,10.0,0.0,0.0,0.0,10.0,0.0,0.0,0.0,10.0,-0.168711255057,0.00585895439817,0.169377045329,1.0,0.0,0.0,0.0,1.0,0.0,0.0,0.0,1.0,0.160466308594,6.31446899414,7.58622436523,0.1,0.0,0.0,0.0,0.1,0.0,0.0,0.0,0.1
1446037655262678345,260,1446037655259310007,robocape,-63.5848278002,-13.4445700919,-12.4673539826,0.0,10.0,0.0,0.0,0.0,10.0,0.0,0.0,0.0,10.0,0.0121173829599,0.0106526443603,0.0209058145571,1.0,0.0,0.0,0.0,1.0,0.0,0.0,0.0,1.0,0.276624755859,6.58390869141,7.47964599609,0.1,0.0,0.0,0.0,0.1,0.0,0.0,0.0,0.1
1446037655295859387,261,1446037655292829036,robocape,-63.1938616659,-13.3183428463,-12.4595326689,0.0,10.0,0.0,0.0,0.0,10.0,0.0,0.0,0.0,10.0,0.000798948327024,0.00985369603329,0.00186421276306,1.0,0.0,0.0,0.0,1.0,0.0,0.0,0.0,1.0,0.264649658203,6.51325561523,7.6257421875,0.1,0.0,0.0,0.0,0.1,0.0,0.0,0.0,0.1
1446037655330496595,262,1446037655327514886,robocape,-62.7756144388,-13.1636136934,-12.4409072525,0.0,10.0,0.0,0.0,0.0,10.0,0.0,0.0,0.0,10.0,0.0286289817184,0.0131826473959,0.0210389726116,1.0,0.0,0.0,0.0,1.0,0.0,0.0,0.0,1.0,0.165256347656,6.96950683594,7.55868164063,0.1,0.0,0.0,0.0,0.1,0.0,0.0,0.0,0.1
1446037655362517387,263,1446037655359215021,robocape,-62.4211374116,-13.0079104508,-12.4254863886,0.0,10.0,0.0,0.0,0.0,10.0,0.0,0.0,0.0,10.0,-0.0143810698864,0.0147805440499,0.017976337358,1.0,0.0,0.0,0.0,1.0,0.0,0.0,0.0,1.0,0.0742456054688,6.58630371094,7.55029907227,0.1,0.0,0.0,0.0,0.1,0.0,0.0,0.0,0.1
1446037655395729887,264,1446037655392710924,robocape,-61.8873179259,-13.0148689224,-12.5052806656,0.0,10.0,0.0,0.0,0.0,10.0,0.0,0.0,0.0,10.0,0.0936101123163,0.0206394984481,-0.0735032460862,1.0,0.0,0.0,0.0,1.0,0.0,0.0,0.0,1.0,0.138911132813,6.24860595703,7.62454467773,0.1,0.0,0.0,0.0,0.1,0.0,0.0,0.0,0.1
1446037655429088012,265,1446037655425915002,robocape,-61.5246270027,-12.9004174734,-12.5082060488,0.0,10.0,0.0,0.0,0.0,10.0,0.0,0.0,0.0,10.0,-0.00545948023466,0.0143810698864,-0.00466053190764,1.0,0.0,0.0,0.0,1.0,0.0,0.0,0.0,1.0,0.500559082031,7.4688684082,7.50599121094,0.1,0.0,0.0,0.0,0.1,0.0,0.0,0.0,0.1
1446037655462992137,266,1446037655459608078,robocape,-61.1526919187,-12.7300242043,-12.479131051,0.0,10.0,0.0,0.0,0.0,10.0,0.0,0.0,0.0,10.0,0.0135821215594,0.015313176268,0.0318247750264,1.0,0.0,0.0,0.0,1.0,0.0,0.0,0.0,1.0,0.0347277832031,7.07249267578,7.38145019531,0.1,0.0,0.0,0.0,0.1,0.0,0.0,0.0,0.1
1446037655495998137,267,1446037655492933988,robocape,-60.9055485266,-12.506082316,-12.4249175008,0.0,10.0,0.0,0.0,0.0,10.0,0.0,0.0,0.0,10.0,-0.0652474467069,0.0170442309765,0.0580569117637,1.0,0.0,0.0,0.0,1.0,0.0,0.0,0.0,1.0,0.0359252929688,6.29291381836,7.49641113281,0.1,0.0,0.0,0.0,0.1,0.0,0.0,0.0,0.1
1446037655529115553,268,1446037655525974988,robocape,-60.4454092151,-12.4477552456,-12.4606937803,0.0,10.0,0.0,0.0,0.0,10.0,0.0,0.0,0.0,10.0,0.0659132369795,0.017976337358,-0.031957933081,1.0,0.0,0.0,0.0,1.0,0.0,0.0,0.0,1.0,0.267044677734,6.48092285156,7.5838293457,0.1,0.0,0.0,0.0,0.1,0.0,0.0,0.0,0.1
1446037655564407137,269,1446037655560746908,robocape,-60.1228463223,-12.3065546137,-12.4534968453,0.0,10.0,0.0,0.0,0.0,10.0,0.0,0.0,0.0,10.0,-0.016644756813,0.0193079179031,0.0119842249054,1.0,0.0,0.0,0.0,1.0,0.0,0.0,0.0,1.0,0.508941650391,7.14075073242,7.36947509766,0.1,0.0,0.0,0.0,0.1,0.0,0.0,0.0,0.1
1446037655596204012,270,1446037655592863082,robocape,-59.6087465467,-12.2951983425,-12.5127717489,0.0,10.0,0.0,0.0,0.0,10.0,0.0,0.0,0.0,10.0,0.10466223084,0.0173105470855,-0.0563258570552,1.0,0.0,0.0,0.0,1.0,0.0,0.0,0.0,1.0,0.0371228027344,6.30369140625,7.45210327148,0.1,0.0,0.0,0.0,0.1,0.0,0.0,0.0,0.1
1446037655629525220,271,1446037655626012086,robocape,-59.3049115935,-12.1824936247,-12.5025441178,0.0,10.0,0.0,0.0,0.0,10.0,0.0,0.0,0.0,10.0,-0.0233026595382,0.0114515926873,-0.000266316109008,1.0,0.0,0.0,0.0,1.0,0.0,0.0,0.0,1.0,0.380808105469,7.35510498047,7.58143432617,0.1,0.0,0.0,0.0,0.1,0.0,0.0,0.0,0.1
1446037655663002803,272,1446037655659251928,robocape,-58.8519951118,-12.1027653304,-12.5257420885,0.0,10.0,0.0,0.0,0.0,10.0,0.0,0.0,0.0,10.0,0.0774979877213,0.0197073920666,-0.0165115987585,1.0,0.0,0.0,0.0,1.0,0.0,0.0,0.0,1.0,-0.0826281738281,6.82939819336,7.33714233398,0.1,0.0,0.0,0.0,0.1,0.0,0.0,0.0,0.1
1446037655697495887,273,1446037655694250106,robocape,-58.5511002054,-11.9980273932,-12.532417749,0.0,10.0,0.0,0.0,0.0,10.0,0.0,0.0,0.0,10.0,-0.0215716048296,0.0178431793035,-0.00745685105222,1.0,0.0,0.0,0.0,1.0,0.0,0.0,0.0,1.0,0.322130126953,7.15033081055,7.58263183594,0.1,0.0,0.0,0.0,0.1,0.0,0.0,0.0,0.1
1446037655729420720,274,1446037655726289987,robocape,-58.2937819807,-11.7797695644,-12.5164744774,0.0,10.0,0.0,0.0,0.0,10.0,0.0,0.0,0.0,10.0,-0.0399474163512,0.0396811002422,0.049934270439,1.0,0.0,0.0,0.0,1.0,0.0,0.0,0.0,1.0,-0.0934057617188,7.280859375,7.51796630859,0.1,0.0,0.0,0.0,0.1,0.0,0.0,0.0,0.1
1446037655762939220,275,1446037655759428977,robocape,-58.2152621053,-11.5284410511,-12.5086142818,0.0,10.0,0.0,0.0,0.0,10.0,0.0,0.0,0.0,10.0,-0.161920194277,0.0511326929295,0.0547279604011,1.0,0.0,0.0,0.0,1.0,0.0,0.0,0.0,1.0,-0.0598754882813,6.56953857422,7.59580444336,0.1,0.0,0.0,0.0,0.1,0.0,0.0,0.0,0.1
1446037655795723929,276,1446037655792675018,robocape,-58.0566723829,-11.2290005715,-12.5526652405,0.0,10.0,0.0,0.0,0.0,10.0,0.0,0.0,0.0,10.0,-0.110521185238,0.0892158965177,0.066579027252,1.0,0.0,0.0,0.0,1.0,0.0,0.0,0.0,1.0,-0.0490979003906,6.58151367188,7.65328491211,0.1,0.0,0.0,0.0,0.1,0.0,0.0,0.0,0.1
1446037655829208637,277,1446037655826189994,robocape,-57.9649265852,-10.954873724,-12.566941378,0.0,10.0,0.0,0.0,0.0,10.0,0.0,0.0,0.0,10.0,-0.151933340189,0.0696416625056,0.0607200728538,1.0,0.0,0.0,0.0,1.0,0.0,0.0,0.0,1.0,0.170046386719,7.04135742188,7.65927246094,0.1,0.0,0.0,0.0,0.1,0.0,0.0,0.0,0.1
1446037655863093970,278,1446037655859534978,robocape,-57.8975386503,-10.6241566955,-12.619411715,0.0,10.0,0.0,0.0,0.0,10.0,0.0,0.0,0.0,10.0,-0.17057546782,0.103064334186,0.0751011427402,1.0,0.0,0.0,0.0,1.0,0.0,0.0,0.0,1.0,0.5748046875,6.73239990234,7.50599121094,0.1,0.0,0.0,0.0,0.1,0.0,0.0,0.0,0.1
1446037655895875720,279,1446037655892746925,robocape,-57.6881778392,-10.5228652267,-12.6991461103,0.0,10.0,0.0,0.0,0.0,10.0,0.0,0.0,0.0,10.0,-0.085354312937,0.0527305895836,-0.0308926686449,1.0,0.0,0.0,0.0,1.0,0.0,0.0,0.0,1.0,0.216749267578,6.18034790039,7.76465332031,0.1,0.0,0.0,0.0,0.1,0.0,0.0,0.0,0.1
1446037655930513637,280,1446037655926290035,robocape,-57.2063389935,-10.6880068969,-12.8643417603,0.0,10.0,0.0,0.0,0.0,10.0,0.0,0.0,0.0,10.0,0.0806937810294,0.016644756813,-0.164450197312,1.0,0.0,0.0,0.0,1.0,0.0,0.0,0.0,1.0,0.162861328125,5.67619628906,7.68322265625,0.1,0.0,0.0,0.0,0.1,0.0,0.0,0.0,0.1
1446037655963890720,281,1446037655960509061,robocape,-56.36892232,-11.1584443379,-13.2067993845,0.0,10.0,0.0,0.0,0.0,10.0,0.0,0.0,0.0,10.0,0.287488239674,0.00559263828917,-0.338487774549,1.0,0.0,0.0,0.0,1.0,0.0,0.0,0.0,1.0,0.349672851562,6.56714355469,7.56347167969,0.1,0.0,0.0,0.0,0.1,0.0,0.0,0.0,0.1
1446037656000073429,282,1446037655996978044,robocape,-55.5756869434,-11.5972109285,-13.5198987354,0.0,10.0,0.0,0.0,0.0,10.0,0.0,0.0,0.0,10.0,0.263919264027,-0.0031957933081,-0.318380908319,1.0,0.0,0.0,0.0,1.0,0.0,0.0,0.0,1.0,0.518521728516,7.67843261719,7.42695556641,0.1,0.0,0.0,0.0,0.1,0.0,0.0,0.0,0.1
1446037656031136345,283,1446037656027406930,robocape,-55.183546076,-11.8287914484,-13.676772073,0.0,10.0,0.0,0.0,0.0,10.0,0.0,0.0,0.0,10.0,0.0268979270098,-0.0145142279409,-0.198139185102,1.0,0.0,0.0,0.0,1.0,0.0,0.0,0.0,1.0,0.138911132813,8.02211791992,7.37785766602,0.1,0.0,0.0,0.0,0.1,0.0,0.0,0.0,0.1
1446037656064809887,284,1446037656061148881,robocape,-55.1222050182,-11.7996260207,-13.6887751971,0.0,10.0,0.0,0.0,0.0,10.0,0.0,0.0,0.0,10.0,-0.160588613732,-0.000798948327024,-0.0532632218016,1.0,0.0,0.0,0.0,1.0,0.0,0.0,0.0,1.0,-0.432301025391,7.21978637695,7.49281860352,0.1,0.0,0.0,0.0,0.1,0.0,0.0,0.0,0.1
1446037656098097512,285,1446037656094621896,robocape,-55.3432907193,-11.5523194284,-13.6324788104,0.0,10.0,0.0,0.0,0.0,10.0,0.0,0.0,0.0,10.0,-0.330897765442,0.0336889877895,0.0519316412565,1.0,0.0,0.0,0.0,1.0,0.0,0.0,0.0,1.0,-0.455053710938,7.89997192383,7.51796630859,0.1,0.0,0.0,0.0,0.1,0.0,0.0,0.0,0.1
1446037656131292095,286,1446037656128273963,robocape,-55.9331343207,-11.2346841446,-13.5438845697,0.0,10.0,0.0,0.0,0.0,10.0,0.0,0.0,0.0,10.0,-0.576308059893,0.0371510972066,0.0761664071763,1.0,0.0,0.0,0.0,1.0,0.0,0.0,0.0,1.0,-0.554447021484,8.58973754883,7.62813720703,0.1,0.0,0.0,0.0,0.1,0.0,0.0,0.0,0.1
1446037656163547012,287,1446037656160109996,robocape,-56.9562868295,-10.7889990777,-13.3331796907,0.0,10.0,0.0,0.0,0.0,10.0,0.0,0.0,0.0,10.0,-0.857537871006,0.017177389031,0.150601759644,1.0,0.0,0.0,0.0,1.0,0.0,0.0,0.0,1.0,-0.209564208984,8.00295776367,7.45809082031,0.1,0.0,0.0,0.0,0.1,0.0,0.0,0.0,0.1
1446037656199890179,288,1446037656196320056,robocape,-58.5397711424,-9.82723068626,-12.8955864043,0.0,10.0,0.0,0.0,0.0,10.0,0.0,0.0,0.0,10.0,-1.20800987046,0.0560595409462,0.428369461339,1.0,0.0,0.0,0.0,1.0,0.0,0.0,0.0,1.0,0.226329345703,5.78876220703,7.74190063477,0.1,0.0,0.0,0.0,0.1,0.0,0.0,0.0,0.1
1446037656229659804,289,1446037656226623058,robocape,-59.7847768057,-9.42228980408,-12.7371316604,0.0,10.0,0.0,0.0,0.0,10.0,0.0,0.0,0.0,10.0,-1.06632970047,0.0222373951022,0.107858024148,1.0,0.0,0.0,0.0,1.0,0.0,0.0,0.0,1.0,-0.0646655273438,6.83538574219,8.01852539063,0.1,0.0,0.0,0.0,0.1,0.0,0.0,0.0,0.1
1446037656269032595,290,1446037656264585018,robocape,-60.973286038,-9.30362769673,-12.6816095931,0.0,10.0,0.0,0.0,0.0,10.0,0.0,0.0,0.0,10.0,-1.07684918677,-0.00825579937925,-0.0537958540196,1.0,0.0,0.0,0.0,1.0,0.0,0.0,0.0,1.0,0.317340087891,5.41873168945,8.25443481445,0.1,0.0,0.0,0.0,0.1,0.0,0.0,0.0,0.1
1446037656298910262,291,1446037656294887065,robocape,-62.2307605791,-9.05377889936,-12.5539726102,0.0,10.0,0.0,0.0,0.0,10.0,0.0,0.0,0.0,10.0,-1.13463978243,-0.00852211548825,0.0211721306661,1.0,0.0,0.0,0.0,1.0,0.0,0.0,0.0,1.0,0.0107775878906,5.16006958008,8.31670532227,0.1,0.0,0.0,0.0,0.1,0.0,0.0,0.0,0.1
1446037656332073595,292,1446037656328738927,robocape,-63.5042261772,-8.74243075985,-12.4007191744,0.0,10.0,0.0,0.0,0.0,10.0,0.0,0.0,0.0,10.0,-1.16646455745,-0.0066579027252,0.0540621701286,1.0,0.0,0.0,0.0,1.0,0.0,0.0,0.0,1.0,-0.36404296875,4.77566894531,8.6220703125,0.1,0.0,0.0,0.0,0.1,0.0,0.0,0.0,0.1
1446037656366423470,293,1446037656362420082,robocape,-64.7605863969,-8.34067089645,-12.2001581705,0.0,10.0,0.0,0.0,0.0,10.0,0.0,0.0,0.0,10.0,-1.17112508936,-0.00932106381528,0.108523814421,1.0,0.0,0.0,0.0,1.0,0.0,0.0,0.0,1.0,-0.44068359375,4.04997802734,8.88552246094,0.1,0.0,0.0,0.0,0.1,0.0,0.0,0.0,0.1
1446037656400724679,294,1446037656397011041,robocape,-65.9535880254,-7.92099256288,-11.9923099815,0.0,10.0,0.0,0.0,0.0,10.0,0.0,0.0,0.0,10.0,-1.15008611675,-0.0106526443603,0.121040671544,1.0,0.0,0.0,0.0,1.0,0.0,0.0,0.0,1.0,-0.148491210938,4.17811157227,8.94899047852,0.1,0.0,0.0,0.0,0.1,0.0,0.0,0.0,0.1
1446037656433932387,295,1446037656429249048,robocape,-67.155834943,-7.50625872151,-11.7834928707,0.0,10.0,0.0,0.0,0.0,10.0,0.0,0.0,0.0,10.0,-1.18510668509,-0.0141147537774,0.117445404072,1.0,0.0,0.0,0.0,1.0,0.0,0.0,0.0,1.0,0.149688720703,4.09787841797,9.04359375,0.1,0.0,0.0,0.0,0.1,0.0,0.0,0.0,0.1
1446037656467359096,296,1446037656463447093,robocape,-68.3919716484,-7.02574450295,-11.5518966316,0.0,10.0,0.0,0.0,0.0,10.0,0.0,0.0,0.0,10.0,-1.23490779747,-0.0138484376684,0.152599130462,1.0,0.0,0.0,0.0,1.0,0.0,0.0,0.0,1.0,0.15328125,3.83801879883,9.03042114258,0.1,0.0,0.0,0.0,0.1,0.0,0.0,0.0,0.1
1446037656499748012,297,1446037656496345043,robocape,-69.9184576304,-5.90460901437,-11.1223204942,0.0,10.0,0.0,0.0,0.0,10.0,0.0,0.0,0.0,10.0,-1.44383278499,0.00705737688871,0.501206917153,1.0,0.0,0.0,0.0,1.0,0.0,0.0,0.0,1.0,0.253872070313,1.48491210938,9.29986083984,0.1,0.0,0.0,0.0,0.1,0.0,0.0,0.0,0.1
1446037656532654971,298,1446037656529143095,robocape,-70.7635170894,-5.63632074774,-10.9973342887,0.0,10.0,0.0,0.0,0.0,10.0,0.0,0.0,0.0,10.0,-1.01572963976,-0.000798948327024,0.0475374254579,1.0,0.0,0.0,0.0,1.0,0.0,0.0,0.0,1.0,0.290994873047,1.94715087891,9.65552124023,0.1,0.0,0.0,0.0,0.1,0.0,0.0,0.0,0.1
1446037656567472554,299,1446037656563688039,robocape,-71.6288532465,-5.17101463819,-10.8088777605,0.0,10.0,0.0,0.0,0.0,10.0,0.0,0.0,0.0,10.0,-1.03730124459,0.00106526443603,0.158058610696,1.0,0.0,0.0,0.0,1.0,0.0,0.0,0.0,1.0,0.271834716797,2.41537719727,9.57169555664,0.1,0.0,0.0,0.0,0.1,0.0,0.0,0.0,0.1
1446037656596000262,300,1446037656592951059,robocape,-72.384537493,-4.96557100662,-10.7056599904,0.0,10.0,0.0,0.0,0.0,10.0,0.0,0.0,0.0,10.0,-0.98923118691,0.00066579027252,0.016644756813,1.0,0.0,0.0,0.0,1.0,0.0,0.0,0.0,1.0,0.146096191406,2.20940551758,9.46631469727,0.1,0.0,0.0,0.0,0.1,0.0,0.0,0.0,0.1
1446037656629125887,301,1446037656625890970,robocape,-72.9194974028,-5.19576556545,-10.7257619428,0.0,10.0,0.0,0.0,0.0,10.0,0.0,0.0,0.0,10.0,-0.857271554897,-0.0066579027252,-0.21731394495,1.0,0.0,0.0,0.0,1.0,0.0,0.0,0.0,1.0,0.137713623047,1.59987304688,9.6986315918,0.1,0.0,0.0,0.0,0.1,0.0,0.0,0.0,0.1
1446037656662468637,302,1446037656659490108,robocape,-73.4153895951,-5.33024825666,-10.6824424291,0.0,10.0,0.0,0.0,0.0,10.0,0.0,0.0,0.0,10.0,-0.827976782906,-0.0242347659197,-0.158857559023,1.0,0.0,0.0,0.0,1.0,0.0,0.0,0.0,1.0,-0.0359252929688,0.7280859375,9.77407470703,0.1,0.0,0.0,0.0,0.1,0.0,0.0,0.0,0.1
1446037656695919054,303,1446037656692825078,robocape,-73.9930623506,-5.31286757422,-10.5844284829,0.0,10.0,0.0,0.0,0.0,10.0,0.0,0.0,0.0,10.0,-0.895621074594,-0.0287621397729,-0.0781637779938,1.0,0.0,0.0,0.0,1.0,0.0,0.0,0.0,1.0,-0.190404052734,1.60705810547,9.83993774414,0.1,0.0,0.0,0.0,0.1,0.0,0.0,0.0,0.1
1446037656729108179,304,1446037656725917100,robocape,-74.6785741844,-5.1083196287,-10.4243035821,0.0,10.0,0.0,0.0,0.0,10.0,0.0,0.0,0.0,10.0,-0.985502761384,-0.032756881408,0.0214384467751,1.0,0.0,0.0,0.0,1.0,0.0,0.0,0.0,1.0,0.0203576660156,0.338895263672,9.79922241211,0.1,0.0,0.0,0.0,0.1,0.0,0.0,0.0,0.1
1446037656762725429,305,1446037656759388923,robocape,-75.3861927478,-4.72328085071,-10.2172014085,0.0,10.0,0.0,0.0,0.0,10.0,0.0,0.0,0.0,10.0,-1.00920489509,-0.0320910911355,0.120774355435,1.0,0.0,0.0,0.0,1.0,0.0,0.0,0.0,1.0,0.313747558594,0.373623046875,9.81239501953,0.1,0.0,0.0,0.0,0.1,0.0,0.0,0.0,0.1
1446037656795995137,306,1446037656792674064,robocape,-76.386360668,-4.01791378009,-9.90668983561,0.0,10.0,0.0,0.0,0.0,10.0,0.0,0.0,0.0,10.0,-1.25594677008,-0.0418116291142,0.288952978274,1.0,0.0,0.0,0.0,1.0,0.0,0.0,0.0,1.0,0.652642822266,1.64657592773,9.65671875,0.1,0.0,0.0,0.0,0.1,0.0,0.0,0.0,0.1
1446037656829209846,307,1446037656825789928,robocape,-77.2674982958,-3.63386806432,-9.68034512762,0.0,10.0,0.0,0.0,0.0,10.0,0.0,0.0,0.0,10.0,-1.2061456577,-0.0391484680242,0.118377510454,1.0,0.0,0.0,0.0,1.0,0.0,0.0,0.0,1.0,0.799936523438,-1.02985839844,9.58726318359,0.1,0.0,0.0,0.0,0.1,0.0,0.0,0.0,0.1
1446037656862717929,308,1446037656859467983,robocape,-77.8886919322,-3.53769256923,-9.540993091,0.0,10.0,0.0,0.0,0.0,10.0,0.0,0.0,0.0,10.0,-1.02411859719,-0.0298274042089,-0.0300937203179,1.0,0.0,0.0,0.0,1.0,0.0,0.0,0.0,1.0,0.469423828125,-1.33642089844,9.6986315918,0.1,0.0,0.0,0.0,0.1,0.0,0.0,0.0,0.1
1446037656896344929,309,1446037656893176078,robocape,-78.4386064168,-3.42262626345,-9.41160058295,0.0,10.0,0.0,0.0,0.0,10.0,0.0,0.0,0.0,10.0,-0.978711700604,-0.0234358175927,-0.0185089695761,1.0,0.0,0.0,0.0,1.0,0.0,0.0,0.0,1.0,0.140108642578,-1.91362060547,9.68665649414,0.1,0.0,0.0,0.0,0.1,0.0,0.0,0.0,0.1
1446037656929428887,310,1446037656926209926,robocape,-78.9492280223,-2.9570665064,-9.18965225845,0.0,10.0,0.0,0.0,0.0,10.0,0.0,0.0,0.0,10.0,-0.937565861762,-0.0362189908251,0.177632844708,1.0,0.0,0.0,0.0,1.0,0.0,0.0,0.0,1.0,-0.313747558594,-2.71235961914,9.74413696289,0.1,0.0,0.0,0.0,0.1,0.0,0.0,0.0,0.1
1446037656962501512,311,1446037656959383010,robocape,-79.082298905,-2.77624846969,-9.08293880495,0.0,10.0,0.0,0.0,0.0,10.0,0.0,0.0,0.0,10.0,-0.634231813602,-0.00945422186978,0.0350205683345,1.0,0.0,0.0,0.0,1.0,0.0,0.0,0.0,1.0,0.15328125,-4.42479858398,9.86748046875,0.1,0.0,0.0,0.0,0.1,0.0,0.0,0.0,0.1
1446037656995952887,312,1446037656992836952,robocape,-78.707854167,-2.96180412252,-9.09831319124,0.0,10.0,0.0,0.0,0.0,10.0,0.0,0.0,0.0,10.0,-0.207726565026,0.00932106381528,-0.1463407019,1.0,0.0,0.0,0.0,1.0,0.0,0.0,0.0,1.0,0.627495117188,-2.04295166016,9.72018676758,0.1,0.0,0.0,0.0,0.1,0.0,0.0,0.0,0.1
1446037657029233929,313,1446037657026091098,robocape,-78.504444077,-2.95686592219,-9.07691999165,0.0,10.0,0.0,0.0,0.0,10.0,0.0,0.0,0.0,10.0,-0.342748832293,0.0110521185238,-0.050466902657,1.0,0.0,0.0,0.0,1.0,0.0,0.0,0.0,1.0,0.911304931641,-0.678988037109,9.78365478516,0.1,0.0,0.0,0.0,0.1,0.0,0.0,0.0,0.1
1446037657062670596,314,1446037657059602975,robocape,-78.4793270252,-2.85817814971,-9.00085666887,0.0,10.0,0.0,0.0,0.0,10.0,0.0,0.0,0.0,10.0,-0.488823218084,-0.00492684801665,-0.00266316109008,1.0,0.0,0.0,0.0,1.0,0.0,0.0,0.0,1.0,0.425115966797,-1.14002929688,9.47709228516,0.1,0.0,0.0,0.0,0.1,0.0,0.0,0.0,0.1
1446037657097546429,315,1446037657093940973,robocape,-78.7981806417,-2.36871692109,-8.77564629533,0.0,10.0,0.0,0.0,0.0,10.0,0.0,0.0,0.0,10.0,-0.768188816433,-0.0367516230431,0.204663929773,1.0,0.0,0.0,0.0,1.0,0.0,0.0,0.0,1.0,0.24908203125,-1.01548828125,9.71419921875,0.1,0.0,0.0,0.0,0.1,0.0,0.0,0.0,0.1
1446037657130515596,316,1446037657127336978,robocape,-79.1246177821,-2.0095555866,-8.58637073148,0.0,10.0,0.0,0.0,0.0,10.0,0.0,0.0,0.0,10.0,-0.791092001808,-0.0299605622634,0.135288583376,1.0,0.0,0.0,0.0,1.0,0.0,0.0,0.0,1.0,0.240699462891,-3.14106811523,9.45673461914,0.1,0.0,0.0,0.0,0.1,0.0,0.0,0.0,0.1
1446037657164844554,317,1446037657161029100,robocape,-79.3663571139,-1.77373744721,-8.4215235801,0.0,10.0,0.0,0.0,0.0,10.0,0.0,0.0,0.0,10.0,-0.729839296736,-0.0299605622634,0.0736364041407,1.0,0.0,0.0,0.0,1.0,0.0,0.0,0.0,1.0,0.506546630859,-2.49800537109,9.39326660156,0.1,0.0,0.0,0.0,0.1,0.0,0.0,0.0,0.1
1446037657197595263,318,1446037657193984985,robocape,-79.5008106761,-1.5806378879,-8.27996619909,0.0,10.0,0.0,0.0,0.0,10.0,0.0,0.0,0.0,10.0,-0.642487612982,-0.0234358175927,0.0545948023466,1.0,0.0,0.0,0.0,1.0,0.0,0.0,0.0,1.0,0.475411376953,-5.13252685547,9.35734130859,0.1,0.0,0.0,0.0,0.1,0.0,0.0,0.0,0.1
1446037657230731138,319,1446037657227523088,robocape,-79.3329536985,-1.20259942182,-8.13743136458,0.0,10.0,0.0,0.0,0.0,10.0,0.0,0.0,0.0,10.0,-0.36898096903,-0.0117179087963,0.163917565094,1.0,0.0,0.0,0.0,1.0,0.0,0.0,0.0,1.0,0.227526855469,-4.74453369141,9.40404418945,0.1,0.0,0.0,0.0,0.1,0.0,0.0,0.0,0.1
1446037657264791388,320,1446037657261523008,robocape,-78.783761751,-1.19927017707,-8.12920917709,0.0,10.0,0.0,0.0,0.0,10.0,0.0,0.0,0.0,10.0,-0.0442084740953,0.015579492377,-0.0295610880999,1.0,0.0,0.0,0.0,1.0,0.0,0.0,0.0,1.0,0.372425537109,-3.58055419922,9.43278442383,0.1,0.0,0.0,0.0,0.1,0.0,0.0,0.0,0.1
1446037657297882388,321,1446037657294833898,robocape,-78.3295977203,-0.906214663985,-8.03916609836,0.0,10.0,0.0,0.0,0.0,10.0,0.0,0.0,0.0,10.0,-0.107458549985,0.00439421579863,0.127165942051,1.0,0.0,0.0,0.0,1.0,0.0,0.0,0.0,1.0,0.541274414062,-3.62246704102,9.26393554688,0.1,0.0,0.0,0.0,0.1,0.0,0.0,0.0,0.1
1446037657330631096,322,1446037657327528953,robocape,-77.6680979864,-1.01373096857,-8.08709346892,0.0,10.0,0.0,0.0,0.0,10.0,0.0,0.0,0.0,10.0,0.0640490242164,0.0300937203179,-0.0873516837546,1.0,0.0,0.0,0.0,1.0,0.0,0.0,0.0,1.0,0.417930908203,-2.92910888672,9.44236450195,0.1,0.0,0.0,0.0,0.1,0.0,0.0,0.0,0.1
1446037657370343804,323,1446037657366991043,robocape,-77.0859500596,-1.33242235108,-8.17693862651,0.0,10.0,0.0,0.0,0.0,10.0,0.0,0.0,0.0,10.0,-0.00386158358061,0.0279631914458,-0.204131297555,1.0,0.0,0.0,0.0,1.0,0.0,0.0,0.0,1.0,0.471818847656,-1.78668457031,9.35255126953,0.1,0.0,0.0,0.0,0.1,0.0,0.0,0.0,0.1
1446037657399804513,324,1446037657395673990,robocape,-76.8999380417,-1.08834345456,-8.08323869967,0.0,10.0,0.0,0.0,0.0,10.0,0.0,0.0,0.0,10.0,-0.313454060302,0.00426105774413,0.0949416928613,1.0,0.0,0.0,0.0,1.0,0.0,0.0,0.0,1.0,0.0742456054688,-3.13508056641,9.40524169922,0.1,0.0,0.0,0.0,0.1,0.0,0.0,0.0,0.1
1446037657434312679,325,1446037657429974079,robocape,-76.5285330864,-1.20669966258,-8.11450572655,0.0,10.0,0.0,0.0,0.0,10.0,0.0,0.0,0.0,10.0,-0.165914935912,0.0229031853747,-0.100134856987,1.0,0.0,0.0,0.0,1.0,0.0,0.0,0.0,1.0,0.401165771484,-3.47158081055,9.34895874023,0.1,0.0,0.0,0.0,0.1,0.0,0.0,0.0,0.1
1446037657465484471,326,1446037657461590051,robocape,-76.2666423961,-1.20267601675,-8.1087905412,0.0,10.0,0.0,0.0,0.0,10.0,0.0,0.0,0.0,10.0,-0.248872403868,0.0198405501211,-0.0360858327706,1.0,0.0,0.0,0.0,1.0,0.0,0.0,0.0,1.0,0.415535888672,-3.76137817383,9.27830566406,0.1,0.0,0.0,0.0,0.1,0.0,0.0,0.0,0.1
1446037657498908179,327,1446037657495842933,robocape,-75.8614909193,-1.21468721779,-8.15705710646,0.0,10.0,0.0,0.0,0.0,10.0,0.0,0.0,0.0,10.0,-0.125168571234,0.0426105774413,-0.0463390029674,1.0,0.0,0.0,0.0,1.0,0.0,0.0,0.0,1.0,0.717308349609,-4.75411376953,9.3537487793,0.1,0.0,0.0,0.0,0.1,0.0,0.0,0.0,0.1
1446037657534228763,328,1446037657530076026,robocape,-75.3135571228,-1.15386693563,-8.16528105702,0.0,10.0,0.0,0.0,0.0,10.0,0.0,0.0,0.0,10.0,0.00532632218016,0.0284958236638,0.00106526443603,1.0,0.0,0.0,0.0,1.0,0.0,0.0,0.0,1.0,0.595162353516,-4.20445678711,9.26633056641,0.1,0.0,0.0,0.0,0.1,0.0,0.0,0.0,0.1
1446037657566569804,329,1446037657563097000,robocape,-74.6308837604,-1.10728035481,-8.1804040896,0.0,10.0,0.0,0.0,0.0,10.0,0.0,0.0,0.0,10.0,0.12476909707,0.0276968753368,-0.00239684498107,1.0,0.0,0.0,0.0,1.0,0.0,0.0,0.0,1.0,0.573607177734,-4.25475219727,9.28309570313,0.1,0.0,0.0,0.0,0.1,0.0,0.0,0.0,0.1
1446037657598255929,330,1446037657595226049,robocape,-73.8831552237,-1.01774226483,-8.18053622539,0.0,10.0,0.0,0.0,0.0,10.0,0.0,0.0,0.0,10.0,0.188152331014,0.0249005561922,0.0241016078652,1.0,0.0,0.0,0.0,1.0,0.0,0.0,0.0,1.0,0.609532470703,-3.27159667969,9.26633056641,0.1,0.0,0.0,0.0,0.1,0.0,0.0,0.0,0.1
1446037657632940513,331,1446037657629579067,robocape,-73.3242101455,-0.836539371805,-8.10099471669,0.0,10.0,0.0,0.0,0.0,10.0,0.0,0.0,0.0,10.0,0.0462058449129,0.00159789665405,0.0774979877213,1.0,0.0,0.0,0.0,1.0,0.0,0.0,0.0,1.0,0.427510986328,-1.82260986328,9.22082519531,0.1,0.0,0.0,0.0,0.1,0.0,0.0,0.0,0.1
1446037657667576471,332,1446037657663783073,robocape,-73.0576742278,-0.371580093197,-7.90163019744,0.0,10.0,0.0,0.0,0.0,10.0,0.0,0.0,0.0,10.0,-0.175635473891,-0.0103863282513,0.232627121218,1.0,0.0,0.0,0.0,1.0,0.0,0.0,0.0,1.0,0.346080322266,-3.33865722656,9.60043579102,0.1,0.0,0.0,0.0,0.1,0.0,0.0,0.0,0.1
1446037657701930971,333,1446037657698905944,robocape,-72.6915730314,-0.0893260963299,-7.78545085269,0.0,10.0,0.0,0.0,0.0,10.0,0.0,0.0,0.0,10.0,-0.0981374861694,0.00412789968962,0.132092790068,1.0,0.0,0.0,0.0,1.0,0.0,0.0,0.0,1.0,0.223934326172,-3.73623046875,9.2771081543,0.1,0.0,0.0,0.0,0.1,0.0,0.0,0.0,0.1
1446037657733399721,334,1446037657730184078,robocape,-72.1589771393,-0.0898765243309,-7.78996191041,0.0,10.0,0.0,0.0,0.0,10.0,0.0,0.0,0.0,10.0,0.0326237233535,0.0187752856851,-0.0241016078652,1.0,0.0,0.0,0.0,1.0,0.0,0.0,0.0,1.0,0.156873779297,-3.30871948242,9.28549072266,0.1,0.0,0.0,0.0,0.1,0.0,0.0,0.0,0.1
1446037657766205554,335,1446037657762588977,robocape,-71.7447197847,0.114403494225,-7.70478783467,0.0,10.0,0.0,0.0,0.0,10.0,0.0,0.0,0.0,10.0,-0.0500674284935,0.00865527354276,0.0909469512262,1.0,0.0,0.0,0.0,1.0,0.0,0.0,0.0,1.0,0.107775878906,-3.6440222168,9.3537487793,0.1,0.0,0.0,0.0,0.1,0.0,0.0,0.0,0.1
1446037657824468346,336,1446037657797127962,robocape,-71.2162221891,0.0101205315055,-7.75140804412,0.0,10.0,0.0,0.0,0.0,10.0,0.0,0.0,0.0,10.0,0.0376837294246,0.0223705531567,-0.0820253615744,1.0,0.0,0.0,0.0,1.0,0.0,0.0,0.0,1.0,0.162861328125,-2.91713378906,9.37769897461,0.1,0.0,0.0,0.0,0.1,0.0,0.0,0.0,0.1
1446037657847171805,337,1446037657843780040,robocape,-70.7944260782,-0.312441125882,-7.88396286597,0.0,10.0,0.0,0.0,0.0,10.0,0.0,0.0,0.0,10.0,-0.0476705835124,0.0290284558819,-0.208924987517,1.0,0.0,0.0,0.0,1.0,0.0,0.0,0.0,1.0,0.168848876953,-2.37705688477,9.28070068359,0.1,0.0,0.0,0.0,0.1,0.0,0.0,0.0,0.1
1446037657869246680,338,1446037657865947961,robocape,-70.5409433861,-0.34904873442,-7.88233372472,0.0,10.0,0.0,0.0,0.0,10.0,0.0,0.0,0.0,10.0,-0.167379674511,0.0123836990689,-0.0479368996214,1.0,0.0,0.0,0.0,1.0,0.0,0.0,0.0,1.0,0.362845458984,-3.06802001953,9.29746582031,0.1,0.0,0.0,0.0,0.1,0.0,0.0,0.0,0.1
1446037657899055888,339,1446037657896013975,robocape,-70.3875876073,-0.303489364011,-7.83169278833,0.0,10.0,0.0,0.0,0.0,10.0,0.0,0.0,0.0,10.0,-0.240083972271,0.00359526747161,-0.00066579027252,1.0,0.0,0.0,0.0,1.0,0.0,0.0,0.0,1.0,0.637075195313,-3.3685949707,9.20166503906,0.1,0.0,0.0,0.0,0.1,0.0,0.0,0.0,0.1
1446037657932247888,340,1446037657929220914,robocape,-70.2472207995,-0.147154345376,-7.73530508923,0.0,10.0,0.0,0.0,0.0,10.0,0.0,0.0,0.0,10.0,-0.244744504178,0.000532632218016,0.0629837597804,1.0,0.0,0.0,0.0,1.0,0.0,0.0,0.0,1.0,0.476608886719,-3.96495483398,9.19807250977,0.1,0.0,0.0,0.0,0.1,0.0,0.0,0.0,0.1
1446037657965177013,341,1446037657962100982,robocape,-69.977091459,0.154548764399,-7.59981537854,0.0,10.0,0.0,0.0,0.0,10.0,0.0,0.0,0.0,10.0,-0.137152796139,0.00532632218016,0.146607018009,1.0,0.0,0.0,0.0,1.0,0.0,0.0,0.0,1.0,0.535286865234,-5.26784545898,9.20885009766,0.1,0.0,0.0,0.0,0.1,0.0,0.0,0.0,0.1
1446037657998466221,342,1446037657995446920,robocape,-69.5126023385,0.407269472843,-7.51004223046,0.0,10.0,0.0,0.0,0.0,10.0,0.0,0.0,0.0,10.0,0.0162452826495,0.0173105470855,0.119842249054,1.0,0.0,0.0,0.0,1.0,0.0,0.0,0.0,1.0,0.476608886719,-4.19607421875,9.16573974609,0.1,0.0,0.0,0.0,0.1,0.0,0.0,0.0,0.1
1446037658032598138,343,1446037658029289960,robocape,-69.0485226679,0.897981752858,-7.29756025487,0.0,10.0,0.0,0.0,0.0,10.0,0.0,0.0,0.0,10.0,0.0260989786828,0.00213052887206,0.261389260991,1.0,0.0,0.0,0.0,1.0,0.0,0.0,0.0,1.0,0.5748046875,-4.60322753906,9.15136962891,0.1,0.0,0.0,0.0,0.1,0.0,0.0,0.0,0.1
1446037658064866388,344,1446037658061785936,robocape,-68.2930442903,0.926610684441,-7.31616764108,0.0,10.0,0.0,0.0,0.0,10.0,0.0,0.0,0.0,10.0,0.245809768614,0.0259658206283,-0.00239684498107,1.0,0.0,0.0,0.0,1.0,0.0,0.0,0.0,1.0,0.599952392578,-2.90276367188,9.20166503906,0.1,0.0,0.0,0.0,0.1,0.0,0.0,0.0,0.1
1446037658098187721,345,1446037658094944000,robocape,-67.6059352998,0.675256630467,-7.45878415789,0.0,10.0,0.0,0.0,0.0,10.0,0.0,0.0,0.0,10.0,0.194410759576,0.0326237233535,-0.165115987585,1.0,0.0,0.0,0.0,1.0,0.0,0.0,0.0,1.0,0.192799072266,-1.71962402344,9.36213134766,0.1,0.0,0.0,0.0,0.1,0.0,0.0,0.0,0.1
1446037658130829971,346,1446037658127578020,robocape,-67.3294431218,0.747768281441,-7.39280981239,0.0,10.0,0.0,0.0,0.0,10.0,0.0,0.0,0.0,10.0,-0.105061705004,0.00106526443603,0.0256995045193,1.0,0.0,0.0,0.0,1.0,0.0,0.0,0.0,1.0,0.286204833984,-3.23567138672,9.25675048828,0.1,0.0,0.0,0.0,0.1,0.0,0.0,0.0,0.1
1446037658164191221,347,1446037658161118030,robocape,-66.9079255744,0.524137618278,-7.48165540441,0.0,10.0,0.0,0.0,0.0,10.0,0.0,0.0,0.0,10.0,0.00213052887206,0.0137152796139,-0.146607018009,1.0,0.0,0.0,0.0,1.0,0.0,0.0,0.0,1.0,0.4215234375,-3.84400634766,9.20166503906,0.1,0.0,0.0,0.0,0.1,0.0,0.0,0.0,0.1
1446037658197524763,348,1446037658194235086,robocape,-66.485697014,0.141523052084,-7.67348779181,0.0,10.0,0.0,0.0,0.0,10.0,0.0,0.0,0.0,10.0,0.00226368692657,0.0290284558819,-0.245809768614,1.0,0.0,0.0,0.0,1.0,0.0,0.0,0.0,1.0,0.028740234375,-2.69200195313,9.24836791992,0.1,0.0,0.0,0.0,0.1,0.0,0.0,0.0,0.1
1446037658230322263,349,1446037658227221965,robocape,-66.2303906651,0.14188618192,-7.64998797106,0.0,10.0,0.0,0.0,0.0,10.0,0.0,0.0,0.0,10.0,-0.10998855302,0.00559263828917,-0.0195742340121,1.0,0.0,0.0,0.0,1.0,0.0,0.0,0.0,1.0,0.0814306640625,-4.3649230957,9.19208496094,0.1,0.0,0.0,0.0,0.1,0.0,0.0,0.0,0.1
1446037658262817430,350,1446037658259785890,robocape,-65.9915082699,0.407259453692,-7.4837896104,0.0,10.0,0.0,0.0,0.0,10.0,0.0,0.0,0.0,10.0,-0.112784872165,-0.00705737688871,0.139150166957,1.0,0.0,0.0,0.0,1.0,0.0,0.0,0.0,1.0,0.160466308594,-4.20206176758,9.19208496094,0.1,0.0,0.0,0.0,0.1,0.0,0.0,0.0,0.1
1446037658296132638,351,1446037658293072938,robocape,-65.5736204291,0.560329954116,-7.40435815342,0.0,10.0,0.0,0.0,0.0,10.0,0.0,0.0,0.0,10.0,0.0202400242846,0.00905474770627,0.0712395591596,1.0,0.0,0.0,0.0,1.0,0.0,0.0,0.0,1.0,0.661025390625,-4.34097290039,9.09748168945,0.1,0.0,0.0,0.0,0.1,0.0,0.0,0.0,0.1
1446037658329507513,352,1446037658326399087,robocape,-65.0068345754,0.50776121203,-7.46105226335,0.0,10.0,0.0,0.0,0.0,10.0,0.0,0.0,0.0,10.0,0.13009541925,0.0276968753368,-0.0536626959651,1.0,0.0,0.0,0.0,1.0,0.0,0.0,0.0,1.0,0.47900390625,-2.96623168945,9.11424682617,0.1,0.0,0.0,0.0,0.1,0.0,0.0,0.0,0.1
1446037658362490138,353,1446037658359463930,robocape,-64.6608441463,0.734155677961,-7.3475853522,0.0,10.0,0.0,0.0,0.0,10.0,0.0,0.0,0.0,10.0,-0.0221042370477,0.0113184346328,0.113317504383,1.0,0.0,0.0,0.0,1.0,0.0,0.0,0.0,1.0,0.319735107422,-3.43924804688,9.26273803711,0.1,0.0,0.0,0.0,0.1,0.0,0.0,0.0,0.1
1446037658396527096,354,1446037658393291950,robocape,-64.3025680565,1.00882922153,-7.21032477369,0.0,10.0,0.0,0.0,0.0,10.0,0.0,0.0,0.0,10.0,-0.00918790576077,0.0117179087963,0.142878592483,1.0,0.0,0.0,0.0,1.0,0.0,0.0,0.0,1.0,0.281414794922,-4.24277709961,9.19567749023,0.1,0.0,0.0,0.0,0.1,0.0,0.0,0.0,0.1
1446037658429560346,355,1446037658426455974,robocape,-63.6161224145,1.02371136075,-7.25153954028,0.0,10.0,0.0,0.0,0.0,10.0,0.0,0.0,0.0,10.0,0.229564485965,0.033023197517,-0.0145142279409,1.0,0.0,0.0,0.0,1.0,0.0,0.0,0.0,1.0,0.290994873047,-4.89302490234,9.21723266602,0.1,0.0,0.0,0.0,0.1,0.0,0.0,0.0,0.1
1446037658462431680,356,1446037658459342956,robocape,-62.9190422135,1.07802363865,-7.28279173615,0.0,10.0,0.0,0.0,0.0,10.0,0.0,0.0,0.0,10.0,0.242480817252,0.0371510972066,0.00652474467069,1.0,0.0,0.0,0.0,1.0,0.0,0.0,0.0,1.0,0.162861328125,-3.07041503906,9.16334472656,0.1,0.0,0.0,0.0,0.1,0.0,0.0,0.0,0.1
1446037658495881138,357,1446037658492785930,robocape,-62.1987844413,1.08356108658,-7.33456066158,0.0,10.0,0.0,0.0,0.0,10.0,0.0,0.0,0.0,10.0,0.2631203157,0.034621094171,-0.0209058145571,1.0,0.0,0.0,0.0,1.0,0.0,0.0,0.0,1.0,0.621507568359,-3.54822143555,9.32979858398,0.1,0.0,0.0,0.0,0.1,0.0,0.0,0.0,0.1
1446037658529245638,358,1446037658526048898,robocape,-61.6434278929,1.1232078018,-7.37051492073,0.0,10.0,0.0,0.0,0.0,10.0,0.0,0.0,0.0,10.0,0.150335443535,0.0378168874791,-0.00426105774413,1.0,0.0,0.0,0.0,1.0,0.0,0.0,0.0,1.0,0.346080322266,-1.62861328125,9.44356201172,0.1,0.0,0.0,0.0,0.1,0.0,0.0,0.0,0.1
1446037658563909805,359,1446037658560781002,robocape,-61.5997771388,1.58000201146,-7.07169386464,0.0,10.0,0.0,0.0,0.0,10.0,0.0,0.0,0.0,10.0,-0.204397613664,-0.00599211245268,0.264585054299,1.0,0.0,0.0,0.0,1.0,0.0,0.0,0.0,1.0,0.476608886719,-2.85606079102,9.33578613281,0.1,0.0,0.0,0.0,0.1,0.0,0.0,0.0,0.1
1446037658595919138,360,1446037658592854976,robocape,-61.6274415328,1.94482183573,-6.81343585013,0.0,10.0,0.0,0.0,0.0,10.0,0.0,0.0,0.0,10.0,-0.257394519356,-0.00798948327024,0.212387096934,1.0,0.0,0.0,0.0,1.0,0.0,0.0,0.0,1.0,0.422720947266,-2.74109985352,9.20525756836,0.1,0.0,0.0,0.0,0.1,0.0,0.0,0.0,0.1
1446037658629408555,361,1446037658626142024,robocape,-61.4849526869,1.93260737349,-6.80039073563,0.0,10.0,0.0,0.0,0.0,10.0,0.0,0.0,0.0,10.0,-0.138750692793,0.00972053797879,-0.0201068662301,1.0,0.0,0.0,0.0,1.0,0.0,0.0,0.0,1.0,0.367635498047,-3.57217163086,9.29028076172,0.1,0.0,0.0,0.0,0.1,0.0,0.0,0.0,0.1
1446037658662945263,362,1446037658659857034,robocape,-61.5284677697,1.93219982548,-6.76479535311,0.0,10.0,0.0,0.0,0.0,10.0,0.0,0.0,0.0,10.0,-0.269778218425,0.00506000607115,-0.0117179087963,1.0,0.0,0.0,0.0,1.0,0.0,0.0,0.0,1.0,-0.0658630371094,-2.33634155273,9.23998535156,0.1,0.0,0.0,0.0,0.1,0.0,0.0,0.0,0.1
1446037658695872680,363,1446037658692864894,robocape,-61.5539236957,1.86845475287,-6.76726688752,0.0,10.0,0.0,0.0,0.0,10.0,0.0,0.0,0.0,10.0,-0.257660835465,0.00652474467069,-0.0503337446025,1.0,0.0,0.0,0.0,1.0,0.0,0.0,0.0,1.0,0.449066162109,-4.89422241211,9.0819140625,0.1,0.0,0.0,0.0,0.1,0.0,0.0,0.0,0.1
1446037658729360597,364,1446037658726332902,robocape,-61.5010246797,1.68168602977,-6.85020760038,0.0,10.0,0.0,0.0,0.0,10.0,0.0,0.0,0.0,10.0,-0.20279971701,0.0115847507418,-0.126633309833,1.0,0.0,0.0,0.0,1.0,0.0,0.0,0.0,1.0,0.285007324219,-2.34592163086,9.20645507812,0.1,0.0,0.0,0.0,0.1,0.0,0.0,0.0,0.1
1446037658767257597,365,1446037658763428926,robocape,-61.5641173111,1.61701512228,-6.85261923962,0.0,10.0,0.0,0.0,0.0,10.0,0.0,0.0,0.0,10.0,-0.28442560442,0.00612527050718,-0.0521979573656,1.0,0.0,0.0,0.0,1.0,0.0,0.0,0.0,1.0,0.78556640625,-5.67619628906,8.96096557617,0.1,0.0,0.0,0.0,0.1,0.0,0.0,0.0,0.1
1446037658800286972,366,1446037658795941114,robocape,-61.2078799988,1.39429119255,-6.98962760848,0.0,10.0,0.0,0.0,0.0,10.0,0.0,0.0,0.0,10.0,0.0121173829599,0.0219710789932,-0.152732288516,1.0,0.0,0.0,0.0,1.0,0.0,0.0,0.0,1.0,0.252674560547,-4.28708496094,9.09029663086,0.1,0.0,0.0,0.0,0.1,0.0,0.0,0.0,0.1
1446037658833656763,367,1446037658830048084,robocape,-60.8372516305,1.08950139217,-7.18116964306,0.0,10.0,0.0,0.0,0.0,10.0,0.0,0.0,0.0,10.0,0.0237021337017,0.0246342400832,-0.204930245882,1.0,0.0,0.0,0.0,1.0,0.0,0.0,0.0,1.0,0.289797363281,-3.41529785156,9.06514892578,0.1,0.0,0.0,0.0,0.1,0.0,0.0,0.0,0.1
1446037658865753555,368,1446037658862150907,robocape,-60.7029420112,1.11030205644,-7.14610081181,0.0,10.0,0.0,0.0,0.0,10.0,0.0,0.0,0.0,10.0,-0.136620163921,0.00559263828917,-0.00159789665405,1.0,0.0,0.0,0.0,1.0,0.0,0.0,0.0,1.0,0.336500244141,-3.80808105469,9.06874145508,0.1,0.0,0.0,0.0,0.1,0.0,0.0,0.0,0.1
1446037658900917763,369,1446037658897255897,robocape,-60.6991607217,1.1945771799,-7.05672177482,0.0,10.0,0.0,0.0,0.0,10.0,0.0,0.0,0.0,10.0,-0.226635008766,-0.00133158054504,0.0396811002422,1.0,0.0,0.0,0.0,1.0,0.0,0.0,0.0,1.0,0.428708496094,-3.7937109375,9.07353149414,0.1,0.0,0.0,0.0,0.1,0.0,0.0,0.0,0.1
1446037658932737930,370,1446037658929447889,robocape,-60.5663572158,1.26142420253,-7.05592535709,0.0,10.0,0.0,0.0,0.0,10.0,0.0,0.0,0.0,10.0,-0.136087531703,0.033289513626,0.0113184346328,1.0,0.0,0.0,0.0,1.0,0.0,0.0,0.0,1.0,-0.143701171875,-4.55053710938,9.23759033203,0.1,0.0,0.0,0.0,0.1,0.0,0.0,0.0,0.1
1446037658967032347,371,1446037658963465929,robocape,-60.4364195685,1.48874875194,-6.92085643478,0.0,10.0,0.0,0.0,0.0,10.0,0.0,0.0,0.0,10.0,-0.135022267267,0.0133158054504,0.120108565163,1.0,0.0,0.0,0.0,1.0,0.0,0.0,0.0,1.0,0.467028808594,-5.78876220703,9.04239624023,0.1,0.0,0.0,0.0,0.1,0.0,0.0,0.0,0.1
1446037658998978305,372,1446037658995775938,robocape,-59.8571062973,1.47129107561,-6.99333778907,0.0,10.0,0.0,0.0,0.0,10.0,0.0,0.0,0.0,10.0,0.179630215526,0.0388821519152,-0.0383495196971,1.0,0.0,0.0,0.0,1.0,0.0,0.0,0.0,1.0,0.534089355469,-4.56730224609,9.08670410156,0.1,0.0,0.0,0.0,0.1,0.0,0.0,0.0,0.1
1446037659031596430,373,1446037659028306961,robocape,-59.3084762823,1.44393456709,-7.05970890313,0.0,10.0,0.0,0.0,0.0,10.0,0.0,0.0,0.0,10.0,0.161920194277,0.0334226716805,-0.0419447871687,1.0,0.0,0.0,0.0,1.0,0.0,0.0,0.0,1.0,0.352067871094,-3.67875,9.08909912109,0.1,0.0,0.0,0.0,0.1,0.0,0.0,0.0,0.1
1446037659065379597,374,1446037659062232971,robocape,-58.925759851,1.46577800782,-7.06203778964,0.0,10.0,0.0,0.0,0.0,10.0,0.0,0.0,0.0,10.0,0.0508663768205,0.0195742340121,-0.00519316412565,1.0,0.0,0.0,0.0,1.0,0.0,0.0,0.0,1.0,0.496966552734,-2.01061889648,9.10825927734,0.1,0.0,0.0,0.0,0.1,0.0,0.0,0.0,0.1
1446037659098390263,375,1446037659095303058,robocape,-58.8071505246,1.41066552189,-7.07376839975,0.0,10.0,0.0,0.0,0.0,10.0,0.0,0.0,0.0,10.0,-0.129695945087,0.00652474467069,-0.0466053190764,1.0,0.0,0.0,0.0,1.0,0.0,0.0,0.0,1.0,0.349672851562,-3.09436523438,9.14418457031,0.1,0.0,0.0,0.0,0.1,0.0,0.0,0.0,0.1
1446037659132490680,376,1446037659129160881,robocape,-58.7598299164,1.51495799405,-6.98449799518,0.0,10.0,0.0,0.0,0.0,10.0,0.0,0.0,0.0,10.0,-0.176700738327,0.00506000607115,0.051798483202,1.0,0.0,0.0,0.0,1.0,0.0,0.0,0.0,1.0,0.756826171875,-5.4762121582,8.95497802734,0.1,0.0,0.0,0.0,0.1,0.0,0.0,0.0,0.1
1446037659165747305,377,1446037659162445068,robocape,-58.4670834388,1.57572758608,-6.94863292168,0.0,10.0,0.0,0.0,0.0,10.0,0.0,0.0,0.0,10.0,-0.0067910607797,0.0141147537774,0.0218379209386,1.0,0.0,0.0,0.0,1.0,0.0,0.0,0.0,1.0,0.368833007813,-4.07991577148,9.05796386719,0.1,0.0,0.0,0.0,0.1,0.0,0.0,0.0,0.1
1446037659198125180,378,1446037659195097923,robocape,-58.2148792,1.64129150351,-6.90300075337,0.0,10.0,0.0,0.0,0.0,10.0,0.0,0.0,0.0,10.0,-0.0323574072445,0.0117179087963,0.0263652947918,1.0,0.0,0.0,0.0,1.0,0.0,0.0,0.0,1.0,0.451461181641,-3.93262207031,8.99210083008,0.1,0.0,0.0,0.0,0.1,0.0,0.0,0.0,0.1
1446037659231696097,379,1446037659228423118,robocape,-57.9395767132,1.57240737865,-6.95962419217,0.0,10.0,0.0,0.0,0.0,10.0,0.0,0.0,0.0,10.0,-0.0151800182135,0.0199737081756,-0.0616521792353,1.0,0.0,0.0,0.0,1.0,0.0,0.0,0.0,1.0,0.331710205078,-4.28349243164,9.01126098633,0.1,0.0,0.0,0.0,0.1,0.0,0.0,0.0,0.1
1446037659265717680,380,1446037659262470960,robocape,-57.5615459968,1.49547581891,-7.03131413542,0.0,10.0,0.0,0.0,0.0,10.0,0.0,0.0,0.0,10.0,0.0572579634367,0.0225037112112,-0.0680437658515,1.0,0.0,0.0,0.0,1.0,0.0,0.0,0.0,1.0,0.296982421875,-4.69783081055,9.07712402344,0.1,0.0,0.0,0.0,0.1,0.0,0.0,0.0,0.1
1446037659297467014,381,1446037659294429063,robocape,-57.1565944655,1.50069185706,-7.04661504995,0.0,10.0,0.0,0.0,0.0,10.0,0.0,0.0,0.0,10.0,0.0788295682663,0.0197073920666,-0.015313176268,1.0,0.0,0.0,0.0,1.0,0.0,0.0,0.0,1.0,0.422720947266,-3.86556152344,9.04239624023,0.1,0.0,0.0,0.0,0.1,0.0,0.0,0.0,0.1
1446037659330277347,382,1446037659326983928,robocape,-56.8372533944,1.7050198763,-6.90180436958,0.0,10.0,0.0,0.0,0.0,10.0,0.0,0.0,0.0,10.0,0.0246342400832,0.0067910607797,0.117445404072,1.0,0.0,0.0,0.0,1.0,0.0,0.0,0.0,1.0,0.758023681641,-4.73495361328,8.87234985352,0.1,0.0,0.0,0.0,0.1,0.0,0.0,0.0,0.1
1446037659363686264,383,1446037659360584020,robocape,-56.3295382489,1.61703487052,-7.01842637756,0.0,10.0,0.0,0.0,0.0,10.0,0.0,0.0,0.0,10.0,0.15313176268,0.0358195166616,-0.083490100174,1.0,0.0,0.0,0.0,1.0,0.0,0.0,0.0,1.0,0.283809814453,-3.22848632813,9.07951904297,0.1,0.0,0.0,0.0,0.1,0.0,0.0,0.0,0.1
1446037659397057014,384,1446037659394027948,robocape,-56.0570136688,1.57559639569,-7.06004478536,0.0,10.0,0.0,0.0,0.0,10.0,0.0,0.0,0.0,10.0,-0.00239684498107,0.0189084437396,-0.0450074224223,1.0,0.0,0.0,0.0,1.0,0.0,0.0,0.0,1.0,-0.0335302734375,-2.72912475586,9.18849243164,0.1,0.0,0.0,0.0,0.1,0.0,0.0,0.0,0.1
1446037659430157430,385,1446037659426660060,robocape,-55.8963941319,1.72403367333,-6.95190550077,0.0,10.0,0.0,0.0,0.0,10.0,0.0,0.0,0.0,10.0,-0.0748348266312,0.0103863282513,0.0804274649204,1.0,0.0,0.0,0.0,1.0,0.0,0.0,0.0,1.0,0.559237060547,-4.68944824219,8.98132324219,0.1,0.0,0.0,0.0,0.1,0.0,0.0,0.0,0.1
1446037659463447597,386,1446037659460423946,robocape,-55.5326654174,1.63445574279,-7.05756853358,0.0,10.0,0.0,0.0,0.0,10.0,0.0,0.0,0.0,10.0,0.0620516533988,0.0310258266994,-0.083223784065,1.0,0.0,0.0,0.0,1.0,0.0,0.0,0.0,1.0,0.305364990234,-4.27870239258,9.1238269043,0.1,0.0,0.0,0.0,0.1,0.0,0.0,0.0,0.1
1446037659496363597,387,1446037659493081092,robocape,-55.0158027847,1.43643188719,-7.27245686985,0.0,10.0,0.0,0.0,0.0,10.0,0.0,0.0,0.0,10.0,0.166048093966,0.0431432096593,-0.160988087895,1.0,0.0,0.0,0.0,1.0,0.0,0.0,0.0,1.0,0.239501953125,-5.01038085938,9.01006347656,0.1,0.0,0.0,0.0,0.1,0.0,0.0,0.0,0.1
1446037659529506889,388,1446037659526449918,robocape,-54.3778502043,1.64510358795,-7.25623573108,0.0,10.0,0.0,0.0,0.0,10.0,0.0,0.0,0.0,10.0,0.251668723012,0.0636495500529,0.0852211548825,1.0,0.0,0.0,0.0,1.0,0.0,0.0,0.0,1.0,1.28852050781,-6.37673950195,8.70829101563,0.1,0.0,0.0,0.0,0.1,0.0,0.0,0.0,0.1
1446037659564475805,389,1446037659561404943,robocape,-53.6670156272,2.04264768258,-6.98568682054,0.0,10.0,0.0,0.0,0.0,10.0,0.0,0.0,0.0,10.0,0.302934573997,0.0137152796139,0.245010820287,1.0,0.0,0.0,0.0,1.0,0.0,0.0,0.0,1.0,0.911304931641,-1.31965576172,9.41242675781,0.1,0.0,0.0,0.0,0.1,0.0,0.0,0.0,0.1
1446037659596799222,390,1446037659593421936,robocape,-53.4350073038,2.04294598653,-6.89387173687,0.0,10.0,0.0,0.0,0.0,10.0,0.0,0.0,0.0,10.0,-0.0105194863058,-0.0260989786828,0.015313176268,1.0,0.0,0.0,0.0,1.0,0.0,0.0,0.0,1.0,-0.438288574219,-1.09691894531,9.49505493164,0.1,0.0,0.0,0.0,0.1,0.0,0.0,0.0,0.1
1446037659629701264,391,1446037659626583099,robocape,-53.2380256817,1.88188920701,-7.02679744155,0.0,10.0,0.0,0.0,0.0,10.0,0.0,0.0,0.0,10.0,-0.0314253008629,0.0186421276306,-0.123703832634,1.0,0.0,0.0,0.0,1.0,0.0,0.0,0.0,1.0,-0.0143701171875,-4.26672729492,9.06275390625,0.1,0.0,0.0,0.0,0.1,0.0,0.0,0.0,0.1
1446037659662724222,392,1446037659659565925,robocape,-53.1069863541,1.88897792292,-7.06788414065,0.0,10.0,0.0,0.0,0.0,10.0,0.0,0.0,0.0,10.0,-0.0733700880317,0.033023197517,-0.0251668723012,1.0,0.0,0.0,0.0,1.0,0.0,0.0,0.0,1.0,-0.101788330078,-4.35773803711,9.22441772461,0.1,0.0,0.0,0.0,0.1,0.0,0.0,0.0,0.1
