%time,field.header.seq,field.header.stamp,field.header.frame_id,field.orientation.x,field.orientation.y,field.orientation.z,field.orientation.w,field.orientation_covariance0,field.orientation_covariance1,field.orientation_covariance2,field.orientation_covariance3,field.orientation_covariance4,field.orientation_covariance5,field.orientation_covariance6,field.orientation_covariance7,field.orientation_covariance8,field.angular_velocity.x,field.angular_velocity.y,field.angular_velocity.z,field.angular_velocity_covariance0,field.angular_velocity_covariance1,field.angular_velocity_covariance2,field.angular_velocity_covariance3,field.angular_velocity_covariance4,field.angular_velocity_covariance5,field.angular_velocity_covariance6,field.angular_velocity_covariance7,field.angular_velocity_covariance8,field.linear_acceleration.x,field.linear_acceleration.y,field.linear_acceleration.z,field.linear_acceleration_covariance0,field.linear_acceleration_covariance1,field.linear_acceleration_covariance2,field.linear_acceleration_covariance3,field.linear_acceleration_covariance4,field.linear_acceleration_covariance5,field.linear_acceleration_covariance6,field.linear_acceleration_covariance7,field.linear_acceleration_covariance8
1446035243702752149,1,1446035243648164987,robocape,15.4758929319,10.4268229416,156.534339329,0.0,10.0,0.0,0.0,0.0,10.0,0.0,0.0,0.0,10.0,0.00798948327024,0.0111852765783,0.00865527354276,1.0,0.0,0.0,0.0,1.0,0.0,0.0,0.0,1.0,0.00119750976563,-0.603544921875,10.1417102051,0.1,0.0,0.0,0.0,0.1,0.0,0.0,0.0,0.1
1446035243719904274,2,1446035243667931079,robocape,15.4875566003,10.4347700896,156.547524734,0.0,10.0,0.0,0.0,0.0,10.0,0.0,0.0,0.0,10.0,0.00785632521573,0.0114515926873,0.00852211548825,1.0,0.0,0.0,0.0,1.0,0.0,0.0,0.0,1.0,-0.00598754882813,-0.613125,10.1704504395,0.1,0.0,0.0,0.0,0.1,0.0,0.0,0.0,0.1
1446035243728164190,3,1446035243690401077,robocape,15.4993797003,10.4421707682,156.561488668,0.0,10.0,0.0,0.0,0.0,10.0,0.0,0.0,0.0,10.0,0.00785632521573,0.0110521185238,0.00932106381528,1.0,0.0,0.0,0.0,1.0,0.0,0.0,0.0,1.0,-0.0155676269531,-0.608334960938,10.1441052246,0.1,0.0,0.0,0.0,0.1,0.0,0.0,0.0,0.1
1446035243728223524,4,1446035243711082935,robocape,15.5108784385,10.4497163032,156.575346536,0.0,10.0,0.0,0.0,0.0,10.0,0.0,0.0,0.0,10.0,0.00759000910673,0.0111852765783,0.00918790576077,1.0,0.0,0.0,0.0,1.0,0.0,0.0,0.0,1.0,-0.00359252929688,-0.605939941406,10.1345251465,0.1,0.0,0.0,0.0,0.1,0.0,0.0,0.0,0.1
1446035243728493982,5,1446035243724895954,robocape,15.5225686553,10.4570060403,156.588631405,0.0,10.0,0.0,0.0,0.0,10.0,0.0,0.0,0.0,10.0,0.00785632521573,0.0107858024148,0.00878843159726,1.0,0.0,0.0,0.0,1.0,0.0,0.0,0.0,1.0,0.0047900390625,-0.609532470703,10.1453027344,0.1,0.0,0.0,0.0,0.1,0.0,0.0,0.0,0.1
1446035243755133524,6,1446035243751833915,robocape,15.5346668961,10.4644730234,156.601660134,0.0,10.0,0.0,0.0,0.0,10.0,0.0,0.0,0.0,10.0,0.00825579937925,0.0109189604693,0.00852211548825,1.0,0.0,0.0,0.0,1.0,0.0,0.0,0.0,1.0,-0.0119750976563,-0.587977294922,10.1476977539,0.1,0.0,0.0,0.0,0.1,0.0,0.0,0.0,0.1
1446035243790527815,7,1446035243781975984,robocape,15.5465368484,10.4716068866,156.615058189,0.0,10.0,0.0,0.0,0.0,10.0,0.0,0.0,0.0,10.0,0.00798948327024,0.0106526443603,0.00892158965177,1.0,0.0,0.0,0.0,1.0,0.0,0.0,0.0,1.0,-0.0047900390625,-0.59396484375,10.1596728516,0.1,0.0,0.0,0.0,0.1,0.0,0.0,0.0,0.1
1446035243802493982,8,1446035243799124002,robocape,15.5584163869,10.4797314781,156.628492621,0.0,10.0,0.0,0.0,0.0,10.0,0.0,0.0,0.0,10.0,0.00798948327024,0.0117179087963,0.00865527354276,1.0,0.0,0.0,0.0,1.0,0.0,0.0,0.0,1.0,0.00718505859375,-0.599952392578,10.1441052246,0.1,0.0,0.0,0.0,0.1,0.0,0.0,0.0,0.1
1446035243820167524,9,1446035243818114995,robocape,15.5701171737,10.4870065218,156.641787115,0.0,10.0,0.0,0.0,0.0,10.0,0.0,0.0,0.0,10.0,0.00785632521573,0.0107858024148,0.00878843159726,1.0,0.0,0.0,0.0,1.0,0.0,0.0,0.0,1.0,0.148491210938,-0.598754882812,10.1740429688,0.1,0.0,0.0,0.0,0.1,0.0,0.0,0.0,0.1
1446035243843365107,10,1446035243841614961,robocape,15.5816374563,10.4943103639,156.654933844,0.0,10.0,0.0,0.0,0.0,10.0,0.0,0.0,0.0,10.0,0.00772316716123,0.0107858024148,0.00865527354276,1.0,0.0,0.0,0.0,1.0,0.0,0.0,0.0,1.0,0.00838256835938,-0.596359863281,10.1536853027,0.1,0.0,0.0,0.0,0.1,0.0,0.0,0.0,0.1
1446035243870846024,11,1446035243868942022,robocape,15.5932128286,10.5015917154,156.66759071,0.0,10.0,0.0,0.0,0.0,10.0,0.0,0.0,0.0,10.0,0.00785632521573,0.0106526443603,0.00825579937925,1.0,0.0,0.0,0.0,1.0,0.0,0.0,0.0,1.0,-0.00359252929688,-0.598754882812,10.1548828125,0.1,0.0,0.0,0.0,0.1,0.0,0.0,0.0,0.1
1446035243898165357,12,1446035243894469022,robocape,15.6044024987,10.5089208922,156.68059199,0.0,10.0,0.0,0.0,0.0,10.0,0.0,0.0,0.0,10.0,0.00745685105222,0.0107858024148,0.00852211548825,1.0,0.0,0.0,0.0,1.0,0.0,0.0,0.0,1.0,-0.0119750976563,-0.599952392578,10.1584753418,0.1,0.0,0.0,0.0,0.1,0.0,0.0,0.0,0.1
1446035243916258691,13,1446035243914480924,robocape,15.6163747585,10.5164786206,156.693679507,0.0,10.0,0.0,0.0,0.0,10.0,0.0,0.0,0.0,10.0,0.00812264132474,0.0110521185238,0.00852211548825,1.0,0.0,0.0,0.0,1.0,0.0,0.0,0.0,1.0,-0.0167651367188,-0.604742431641,10.1620678711,0.1,0.0,0.0,0.0,0.1,0.0,0.0,0.0,0.1
1446035243940854816,14,1446035243939090967,robocape,15.6282839403,10.5243157973,156.707195639,0.0,10.0,0.0,0.0,0.0,10.0,0.0,0.0,0.0,10.0,0.00798948327024,0.0114515926873,0.00878843159726,1.0,0.0,0.0,0.0,1.0,0.0,0.0,0.0,1.0,-0.0167651367188,-0.597557373047,10.157277832,0.1,0.0,0.0,0.0,0.1,0.0,0.0,0.0,0.1
1446035243969535149,15,1446035243967750072,robocape,15.6402529963,10.531750041,156.720246148,0.0,10.0,0.0,0.0,0.0,10.0,0.0,0.0,0.0,10.0,0.00812264132474,0.0109189604693,0.00852211548825,1.0,0.0,0.0,0.0,1.0,0.0,0.0,0.0,1.0,0.00718505859375,-0.587977294922,10.1536853027,0.1,0.0,0.0,0.0,0.1,0.0,0.0,0.0,0.1
1446035243992407816,16,1446035243990680932,robocape,15.6520897989,10.5386982815,156.732638626,0.0,10.0,0.0,0.0,0.0,10.0,0.0,0.0,0.0,10.0,0.00812264132474,0.0102531701968,0.00812264132474,1.0,0.0,0.0,0.0,1.0,0.0,0.0,0.0,1.0,0.009580078125,-0.599952392578,10.1668579102,0.1,0.0,0.0,0.0,0.1,0.0,0.0,0.0,0.1
1446035244015002816,17,1446035244013360977,robocape,15.6642557576,10.5462087304,156.745886174,0.0,10.0,0.0,0.0,0.0,10.0,0.0,0.0,0.0,10.0,0.00825579937925,0.0110521185238,0.00865527354276,1.0,0.0,0.0,0.0,1.0,0.0,0.0,0.0,1.0,0.0,-0.591569824219,10.152487793,0.1,0.0,0.0,0.0,0.1,0.0,0.0,0.0,0.1
1446035244040655607,18,1446035244038754940,robocape,15.6764629121,10.5539613471,156.758578019,0.0,10.0,0.0,0.0,0.0,10.0,0.0,0.0,0.0,10.0,0.00838895743375,0.0111852765783,0.00812264132474,1.0,0.0,0.0,0.0,1.0,0.0,0.0,0.0,1.0,0.0047900390625,-0.598754882812,10.1381176758,0.1,0.0,0.0,0.0,0.1,0.0,0.0,0.0,0.1
1446035244068860691,19,1446035244067070007,robocape,15.6884107757,10.5615760644,156.770737915,0.0,10.0,0.0,0.0,0.0,10.0,0.0,0.0,0.0,10.0,0.00825579937925,0.0109189604693,0.00772316716123,1.0,0.0,0.0,0.0,1.0,0.0,0.0,0.0,1.0,0.0119750976563,-0.59396484375,10.1381176758,0.1,0.0,0.0,0.0,0.1,0.0,0.0,0.0,0.1
1446035244091972316,20,1446035244090277910,robocape,15.7001223044,10.5694552454,156.783969426,0.0,10.0,0.0,0.0,0.0,10.0,0.0,0.0,0.0,10.0,0.00785632521573,0.0114515926873,0.00852211548825,1.0,0.0,0.0,0.0,1.0,0.0,0.0,0.0,1.0,0.0131726074219,-0.614322509766,10.1644628906,0.1,0.0,0.0,0.0,0.1,0.0,0.0,0.0,0.1
1446035244115049441,21,1446035244113430023,robocape,15.7122857254,10.5772147476,156.797161341,0.0,10.0,0.0,0.0,0.0,10.0,0.0,0.0,0.0,10.0,0.00825579937925,0.0113184346328,0.00852211548825,1.0,0.0,0.0,0.0,1.0,0.0,0.0,0.0,1.0,0.00119750976563,-0.601149902344,10.1632653809,0.1,0.0,0.0,0.0,0.1,0.0,0.0,0.0,0.1
1446035244140423399,22,1446035244138808012,robocape,15.7252850707,10.5850209132,156.810698318,0.0,10.0,0.0,0.0,0.0,10.0,0.0,0.0,0.0,10.0,0.00892158965177,0.0114515926873,0.00878843159726,1.0,0.0,0.0,0.0,1.0,0.0,0.0,0.0,1.0,0.00119750976563,-0.585582275391,10.1824255371,0.1,0.0,0.0,0.0,0.1,0.0,0.0,0.0,0.1
1446035244167743774,23,1446035244165990114,robocape,15.7376200417,10.5925084526,156.823961133,0.0,10.0,0.0,0.0,0.0,10.0,0.0,0.0,0.0,10.0,0.00838895743375,0.0110521185238,0.00865527354276,1.0,0.0,0.0,0.0,1.0,0.0,0.0,0.0,1.0,0.00119750976563,-0.607137451172,10.157277832,0.1,0.0,0.0,0.0,0.1,0.0,0.0,0.0,0.1
1446035244194851274,24,1446035244192207098,robocape,15.7489203725,10.5999596791,156.837376474,0.0,10.0,0.0,0.0,0.0,10.0,0.0,0.0,0.0,10.0,0.00745685105222,0.0110521185238,0.00878843159726,1.0,0.0,0.0,0.0,1.0,0.0,0.0,0.0,1.0,0.00359252929688,-0.605939941406,10.1273400879,0.1,0.0,0.0,0.0,0.1,0.0,0.0,0.0,0.1
1446035244215274774,25,1446035244213342905,robocape,15.7603481761,10.6072234345,156.849916887,0.0,10.0,0.0,0.0,0.0,10.0,0.0,0.0,0.0,10.0,0.00772316716123,0.0106526443603,0.00812264132474,1.0,0.0,0.0,0.0,1.0,0.0,0.0,0.0,1.0,-0.01916015625,-0.608334960938,10.1285375977,0.1,0.0,0.0,0.0,0.1,0.0,0.0,0.0,0.1
1446035244240661816,26,1446035244238867998,robocape,15.7717312268,10.6149966673,156.862971557,0.0,10.0,0.0,0.0,0.0,10.0,0.0,0.0,0.0,10.0,0.00759000910673,0.0113184346328,0.00838895743375,1.0,0.0,0.0,0.0,1.0,0.0,0.0,0.0,1.0,-0.009580078125,-0.598754882812,10.1393151855,0.1,0.0,0.0,0.0,0.1,0.0,0.0,0.0,0.1
1446035244267254149,27,1446035244265495061,robocape,15.7839772565,10.6222886339,156.876501784,0.0,10.0,0.0,0.0,0.0,10.0,0.0,0.0,0.0,10.0,0.00825579937925,0.0109189604693,0.00892158965177,1.0,0.0,0.0,0.0,1.0,0.0,0.0,0.0,1.0,-0.00838256835938,-0.591569824219,10.1405126953,0.1,0.0,0.0,0.0,0.1,0.0,0.0,0.0,0.1
1446035244293603607,28,1446035244291662931,robocape,15.79575744,10.6296247447,156.889241777,0.0,10.0,0.0,0.0,0.0,10.0,0.0,0.0,0.0,10.0,0.00798948327024,0.0107858024148,0.00825579937925,1.0,0.0,0.0,0.0,1.0,0.0,0.0,0.0,1.0,-0.00598754882813,-0.598754882812,10.1680554199,0.1,0.0,0.0,0.0,0.1,0.0,0.0,0.0,0.1
1446035244315304691,29,1446035244313539028,robocape,15.8073891818,10.6376680373,156.902731555,0.0,10.0,0.0,0.0,0.0,10.0,0.0,0.0,0.0,10.0,0.00772316716123,0.0117179087963,0.00865527354276,1.0,0.0,0.0,0.0,1.0,0.0,0.0,0.0,1.0,-0.00239501953125,-0.591569824219,10.1788330078,0.1,0.0,0.0,0.0,0.1,0.0,0.0,0.0,0.1
1446035244340503274,30,1446035244338717937,robocape,15.8195990314,10.6452452902,156.916054015,0.0,10.0,0.0,0.0,0.0,10.0,0.0,0.0,0.0,10.0,0.00825579937925,0.0111852765783,0.00865527354276,1.0,0.0,0.0,0.0,1.0,0.0,0.0,0.0,1.0,0.00598754882813,-0.586779785156,10.1668579102,0.1,0.0,0.0,0.0,0.1,0.0,0.0,0.0,0.1
1446035244366784274,31,1446035244364923954,robocape,15.8311702554,10.652851518,156.92922895,0.0,10.0,0.0,0.0,0.0,10.0,0.0,0.0,0.0,10.0,0.00772316716123,0.0111852765783,0.00852211548825,1.0,0.0,0.0,0.0,1.0,0.0,0.0,0.0,1.0,-0.00359252929688,-0.591569824219,10.1488952637,0.1,0.0,0.0,0.0,0.1,0.0,0.0,0.0,0.1
1446035244395108982,32,1446035244393223047,robocape,15.8431134751,10.6601731757,156.941978619,0.0,10.0,0.0,0.0,0.0,10.0,0.0,0.0,0.0,10.0,0.00812264132474,0.0107858024148,0.00825579937925,1.0,0.0,0.0,0.0,1.0,0.0,0.0,0.0,1.0,-0.0155676269531,-0.586779785156,10.1560803223,0.1,0.0,0.0,0.0,0.1,0.0,0.0,0.0,0.1
1446035244415166566,33,1446035244413413047,robocape,15.854654685,10.6673103487,156.954988142,0.0,10.0,0.0,0.0,0.0,10.0,0.0,0.0,0.0,10.0,0.00772316716123,0.0106526443603,0.00852211548825,1.0,0.0,0.0,0.0,1.0,0.0,0.0,0.0,1.0,-0.0143701171875,-0.601149902344,10.1476977539,0.1,0.0,0.0,0.0,0.1,0.0,0.0,0.0,0.1
1446035244440326149,34,1446035244438568115,robocape,15.866297712,10.6746250049,156.96774255,0.0,10.0,0.0,0.0,0.0,10.0,0.0,0.0,0.0,10.0,0.00785632521573,0.0107858024148,0.00825579937925,1.0,0.0,0.0,0.0,1.0,0.0,0.0,0.0,1.0,-0.0107775878906,-0.609532470703,10.1692529297,0.1,0.0,0.0,0.0,0.1,0.0,0.0,0.0,0.1
1446035244466180107,35,1446035244464427947,robocape,15.8777045701,10.6823647962,156.980819973,0.0,10.0,0.0,0.0,0.0,10.0,0.0,0.0,0.0,10.0,0.00759000910673,0.0113184346328,0.00838895743375,1.0,0.0,0.0,0.0,1.0,0.0,0.0,0.0,1.0,-0.00239501953125,-0.586779785156,10.157277832,0.1,0.0,0.0,0.0,0.1,0.0,0.0,0.0,0.1
1446035244495097941,36,1446035244493180990,robocape,15.8893866451,10.690348385,156.994478041,0.0,10.0,0.0,0.0,0.0,10.0,0.0,0.0,0.0,10.0,0.00772316716123,0.0117179087963,0.00878843159726,1.0,0.0,0.0,0.0,1.0,0.0,0.0,0.0,1.0,-0.00119750976563,-0.589174804688,10.1429077148,0.1,0.0,0.0,0.0,0.1,0.0,0.0,0.0,0.1
1446035244517239983,37,1446035244514972925,robocape,15.9007456387,10.6982616221,157.00730317,0.0,10.0,0.0,0.0,0.0,10.0,0.0,0.0,0.0,10.0,0.00759000910673,0.0114515926873,0.00812264132474,1.0,0.0,0.0,0.0,1.0,0.0,0.0,0.0,1.0,-0.00239501953125,-0.59396484375,10.1429077148,0.1,0.0,0.0,0.0,0.1,0.0,0.0,0.0,0.1
1446035244540349899,38,1446035244538410902,robocape,15.9121105346,10.7060068918,157.020880897,0.0,10.0,0.0,0.0,0.0,10.0,0.0,0.0,0.0,10.0,0.00745685105222,0.0114515926873,0.00878843159726,1.0,0.0,0.0,0.0,1.0,0.0,0.0,0.0,1.0,-0.0047900390625,-0.603544921875,10.1476977539,0.1,0.0,0.0,0.0,0.1,0.0,0.0,0.0,0.1
1446035244565683108,39,1446035244563769102,robocape,15.9239805383,10.7134521589,157.034675614,0.0,10.0,0.0,0.0,0.0,10.0,0.0,0.0,0.0,10.0,0.00785632521573,0.0111852765783,0.00905474770627,1.0,0.0,0.0,0.0,1.0,0.0,0.0,0.0,1.0,0.00239501953125,-0.599952392578,10.1488952637,0.1,0.0,0.0,0.0,0.1,0.0,0.0,0.0,0.1
1446035244593609483,40,1446035244591718912,robocape,15.9361049982,10.7210745854,157.048215649,0.0,10.0,0.0,0.0,0.0,10.0,0.0,0.0,0.0,10.0,0.00812264132474,0.0113184346328,0.00878843159726,1.0,0.0,0.0,0.0,1.0,0.0,0.0,0.0,1.0,0.0,-0.604742431641,10.1548828125,0.1,0.0,0.0,0.0,0.1,0.0,0.0,0.0,0.1
1446035244615955399,41,1446035244614082098,robocape,15.9482679958,10.7291538067,157.061929688,0.0,10.0,0.0,0.0,0.0,10.0,0.0,0.0,0.0,10.0,0.00812264132474,0.0118510668509,0.00878843159726,1.0,0.0,0.0,0.0,1.0,0.0,0.0,0.0,1.0,-0.00119750976563,-0.602347412109,10.1704504395,0.1,0.0,0.0,0.0,0.1,0.0,0.0,0.0,0.1
1446035244640212233,42,1446035244638434886,robocape,15.9601421394,10.7369657875,157.075710688,0.0,10.0,0.0,0.0,0.0,10.0,0.0,0.0,0.0,10.0,0.00785632521573,0.0115847507418,0.00892158965177,1.0,0.0,0.0,0.0,1.0,0.0,0.0,0.0,1.0,-0.009580078125,-0.601149902344,10.157277832,0.1,0.0,0.0,0.0,0.1,0.0,0.0,0.0,0.1
1446035244665497274,43,1446035244663634061,robocape,15.9720151685,10.7440669371,157.088743877,0.0,10.0,0.0,0.0,0.0,10.0,0.0,0.0,0.0,10.0,0.00798948327024,0.0106526443603,0.00852211548825,1.0,0.0,0.0,0.0,1.0,0.0,0.0,0.0,1.0,-0.0143701171875,-0.595162353516,10.1536853027,0.1,0.0,0.0,0.0,0.1,0.0,0.0,0.0,0.1
1446035244693926316,44,1446035244691658973,robocape,15.9841144043,10.7514271465,157.102851215,0.0,10.0,0.0,0.0,0.0,10.0,0.0,0.0,0.0,10.0,0.00798948327024,0.0111852765783,0.00932106381528,1.0,0.0,0.0,0.0,1.0,0.0,0.0,0.0,1.0,-0.00718505859375,-0.595162353516,10.1536853027,0.1,0.0,0.0,0.0,0.1,0.0,0.0,0.0,0.1
1446035244721272566,45,1446035244718997955,robocape,15.9956740141,10.7587842533,157.115825123,0.0,10.0,0.0,0.0,0.0,10.0,0.0,0.0,0.0,10.0,0.00772316716123,0.0109189604693,0.00838895743375,1.0,0.0,0.0,0.0,1.0,0.0,0.0,0.0,1.0,-0.00239501953125,-0.596359863281,10.1584753418,0.1,0.0,0.0,0.0,0.1,0.0,0.0,0.0,0.1
1446035244740458524,46,1446035244738492012,robocape,16.0077253153,10.7661047843,157.128951447,0.0,10.0,0.0,0.0,0.0,10.0,0.0,0.0,0.0,10.0,0.00812264132474,0.0109189604693,0.00852211548825,1.0,0.0,0.0,0.0,1.0,0.0,0.0,0.0,1.0,-0.0107775878906,-0.596359863281,10.1476977539,0.1,0.0,0.0,0.0,0.1,0.0,0.0,0.0,0.1
1446035244765632941,47,1446035244763786077,robocape,16.0194697381,10.7737996209,157.142059376,0.0,10.0,0.0,0.0,0.0,10.0,0.0,0.0,0.0,10.0,0.00785632521573,0.0113184346328,0.00838895743375,1.0,0.0,0.0,0.0,1.0,0.0,0.0,0.0,1.0,-0.0119750976563,-0.59396484375,10.152487793,0.1,0.0,0.0,0.0,0.1,0.0,0.0,0.0,0.1
1446035244793080024,48,1446035244791279077,robocape,16.0310823671,10.7817206043,157.155255994,0.0,10.0,0.0,0.0,0.0,10.0,0.0,0.0,0.0,10.0,0.00772316716123,0.0115847507418,0.00838895743375,1.0,0.0,0.0,0.0,1.0,0.0,0.0,0.0,1.0,-0.00838256835938,-0.601149902344,10.2015856934,0.1,0.0,0.0,0.0,0.1,0.0,0.0,0.0,0.1
1446035244818321358,49,1446035244814553976,robocape,16.0438421015,10.789308732,157.168819007,0.0,10.0,0.0,0.0,0.0,10.0,0.0,0.0,0.0,10.0,0.00865527354276,0.0113184346328,0.00878843159726,1.0,0.0,0.0,0.0,1.0,0.0,0.0,0.0,1.0,-0.0131726074219,-0.598754882812,10.1740429688,0.1,0.0,0.0,0.0,0.1,0.0,0.0,0.0,0.1
1446035244840416899,50,1446035244838455915,robocape,16.0560166557,10.7967450261,157.18249149,0.0,10.0,0.0,0.0,0.0,10.0,0.0,0.0,0.0,10.0,0.00812264132474,0.0111852765783,0.00892158965177,1.0,0.0,0.0,0.0,1.0,0.0,0.0,0.0,1.0,-0.0047900390625,-0.586779785156,10.1536853027,0.1,0.0,0.0,0.0,0.1,0.0,0.0,0.0,0.1
1446035244866332858,51,1446035244864403009,robocape,16.06820677,10.8037024739,157.195500703,0.0,10.0,0.0,0.0,0.0,10.0,0.0,0.0,0.0,10.0,0.00825579937925,0.0105194863058,0.00852211548825,1.0,0.0,0.0,0.0,1.0,0.0,0.0,0.0,1.0,0.0,-0.584384765625,10.1429077148,0.1,0.0,0.0,0.0,0.1,0.0,0.0,0.0,0.1
1446035244891816441,52,1446035244890038013,robocape,16.0792822151,10.8113298565,157.208278369,0.0,10.0,0.0,0.0,0.0,10.0,0.0,0.0,0.0,10.0,0.00732369299772,0.0111852765783,0.00812264132474,1.0,0.0,0.0,0.0,1.0,0.0,0.0,0.0,1.0,-0.0107775878906,-0.587977294922,10.1393151855,0.1,0.0,0.0,0.0,0.1,0.0,0.0,0.0,0.1
1446035244920257774,53,1446035244917947053,robocape,16.0913073407,10.8189205042,157.221208473,0.0,10.0,0.0,0.0,0.0,10.0,0.0,0.0,0.0,10.0,0.00812264132474,0.0111852765783,0.00825579937925,1.0,0.0,0.0,0.0,1.0,0.0,0.0,0.0,1.0,-0.00119750976563,-0.598754882812,10.1153649902,0.1,0.0,0.0,0.0,0.1,0.0,0.0,0.0,0.1
1446035244940531191,54,1446035244938611030,robocape,16.1030656726,10.8260969547,157.234311184,0.0,10.0,0.0,0.0,0.0,10.0,0.0,0.0,0.0,10.0,0.00785632521573,0.0107858024148,0.00852211548825,1.0,0.0,0.0,0.0,1.0,0.0,0.0,0.0,1.0,-0.00598754882813,-0.597557373047,10.1716479492,0.1,0.0,0.0,0.0,0.1,0.0,0.0,0.0,0.1
1446035244966050274,55,1446035244964297056,robocape,16.1145487694,10.8336140702,157.247546181,0.0,10.0,0.0,0.0,0.0,10.0,0.0,0.0,0.0,10.0,0.00759000910673,0.0111852765783,0.00852211548825,1.0,0.0,0.0,0.0,1.0,0.0,0.0,0.0,1.0,-0.00598754882813,-0.596359863281,10.1740429688,0.1,0.0,0.0,0.0,0.1,0.0,0.0,0.0,0.1
1446035244991187816,56,1446035244989226102,robocape,16.1268199376,10.8409796279,157.260890299,0.0,10.0,0.0,0.0,0.0,10.0,0.0,0.0,0.0,10.0,0.00825579937925,0.0110521185238,0.00865527354276,1.0,0.0,0.0,0.0,1.0,0.0,0.0,0.0,1.0,-0.0179626464844,-0.598754882812,10.1668579102,0.1,0.0,0.0,0.0,0.1,0.0,0.0,0.0,0.1
1446035245018630774,57,1446035245016824007,robocape,16.1388518088,10.8482751346,157.274536826,0.0,10.0,0.0,0.0,0.0,10.0,0.0,0.0,0.0,10.0,0.00798948327024,0.0110521185238,0.00892158965177,1.0,0.0,0.0,0.0,1.0,0.0,0.0,0.0,1.0,-0.0215551757813,-0.599952392578,10.1608703613,0.1,0.0,0.0,0.0,0.1,0.0,0.0,0.0,0.1
1446035245041915108,58,1446035245039675951,robocape,16.1505189063,10.8565020938,157.287889899,0.0,10.0,0.0,0.0,0.0,10.0,0.0,0.0,0.0,10.0,0.00772316716123,0.0119842249054,0.00838895743375,1.0,0.0,0.0,0.0,1.0,0.0,0.0,0.0,1.0,0.00239501953125,-0.592767333984,10.1453027344,0.1,0.0,0.0,0.0,0.1,0.0,0.0,0.0,0.1
1446035245065300733,59,1446035245063527107,robocape,16.1626732974,10.8642002162,157.301371848,0.0,10.0,0.0,0.0,0.0,10.0,0.0,0.0,0.0,10.0,0.00812264132474,0.0114515926873,0.00865527354276,1.0,0.0,0.0,0.0,1.0,0.0,0.0,0.0,1.0,-0.00718505859375,-0.59396484375,10.177635498,0.1,0.0,0.0,0.0,0.1,0.0,0.0,0.0,0.1
1446035245090526941,60,1446035245088700056,robocape,16.1749163387,10.8716802345,157.315262776,0.0,10.0,0.0,0.0,0.0,10.0,0.0,0.0,0.0,10.0,0.00812264132474,0.0113184346328,0.00905474770627,1.0,0.0,0.0,0.0,1.0,0.0,0.0,0.0,1.0,0.00359252929688,-0.59396484375,10.157277832,0.1,0.0,0.0,0.0,0.1,0.0,0.0,0.0,0.1
1446035245119300441,61,1446035245117368936,robocape,16.1866708555,10.8789789939,157.328276062,0.0,10.0,0.0,0.0,0.0,10.0,0.0,0.0,0.0,10.0,0.00785632521573,0.0109189604693,0.00838895743375,1.0,0.0,0.0,0.0,1.0,0.0,0.0,0.0,1.0,-0.00598754882813,-0.587977294922,10.1644628906,0.1,0.0,0.0,0.0,0.1,0.0,0.0,0.0,0.1
1446035245142118399,62,1446035245139739990,robocape,16.1978545176,10.8867322411,157.341465883,0.0,10.0,0.0,0.0,0.0,10.0,0.0,0.0,0.0,10.0,0.00732369299772,0.0114515926873,0.00838895743375,1.0,0.0,0.0,0.0,1.0,0.0,0.0,0.0,1.0,0.0,-0.586779785156,10.1596728516,0.1,0.0,0.0,0.0,0.1,0.0,0.0,0.0,0.1
1446035245165321108,63,1446035245163574934,robocape,16.2101223303,10.8942194993,157.354721055,0.0,10.0,0.0,0.0,0.0,10.0,0.0,0.0,0.0,10.0,0.00825579937925,0.0111852765783,0.00852211548825,1.0,0.0,0.0,0.0,1.0,0.0,0.0,0.0,1.0,-0.009580078125,-0.598754882812,10.1536853027,0.1,0.0,0.0,0.0,0.1,0.0,0.0,0.0,0.1
1446035245190403233,64,1446035245188622951,robocape,16.2227708431,10.9017508198,157.368322292,0.0,10.0,0.0,0.0,0.0,10.0,0.0,0.0,0.0,10.0,0.00852211548825,0.0113184346328,0.00878843159726,1.0,0.0,0.0,0.0,1.0,0.0,0.0,0.0,1.0,-0.0155676269531,-0.592767333984,10.1560803223,0.1,0.0,0.0,0.0,0.1,0.0,0.0,0.0,0.1
1446035245218525733,65,1446035245216649055,robocape,16.2354965829,10.9087394838,157.381558082,0.0,10.0,0.0,0.0,0.0,10.0,0.0,0.0,0.0,10.0,0.00865527354276,0.0106526443603,0.00865527354276,1.0,0.0,0.0,0.0,1.0,0.0,0.0,0.0,1.0,-0.0107775878906,-0.584384765625,10.1393151855,0.1,0.0,0.0,0.0,0.1,0.0,0.0,0.0,0.1
1446035245242293816,66,1446035245240073919,robocape,16.2483284448,10.9163963288,157.394565007,0.0,10.0,0.0,0.0,0.0,10.0,0.0,0.0,0.0,10.0,0.00878843159726,0.0113184346328,0.00825579937925,1.0,0.0,0.0,0.0,1.0,0.0,0.0,0.0,1.0,-0.009580078125,-0.589174804688,10.1465002441,0.1,0.0,0.0,0.0,0.1,0.0,0.0,0.0,0.1
1446035245265207025,67,1446035245263475894,robocape,16.2602700581,10.9239016647,157.407680783,0.0,10.0,0.0,0.0,0.0,10.0,0.0,0.0,0.0,10.0,0.00798948327024,0.0111852765783,0.00838895743375,1.0,0.0,0.0,0.0,1.0,0.0,0.0,0.0,1.0,0.0,-0.604742431641,10.1584753418,0.1,0.0,0.0,0.0,0.1,0.0,0.0,0.0,0.1
1446035245290371150,68,1446035245288609981,robocape,16.272475781,10.9310412342,157.421311246,0.0,10.0,0.0,0.0,0.0,10.0,0.0,0.0,0.0,10.0,0.00812264132474,0.0109189604693,0.00892158965177,1.0,0.0,0.0,0.0,1.0,0.0,0.0,0.0,1.0,0.00718505859375,-0.605939941406,10.1465002441,0.1,0.0,0.0,0.0,0.1,0.0,0.0,0.0,0.1
1446035245318170900,69,1446035245316358089,robocape,16.285173815,10.9381437069,157.435094118,0.0,10.0,0.0,0.0,0.0,10.0,0.0,0.0,0.0,10.0,0.00852211548825,0.0109189604693,0.00905474770627,1.0,0.0,0.0,0.0,1.0,0.0,0.0,0.0,1.0,-0.0107775878906,-0.584384765625,10.1500927734,0.1,0.0,0.0,0.0,0.1,0.0,0.0,0.0,0.1
1446035245344969941,70,1446035245342560052,robocape,16.2973529363,10.9453092282,157.448579696,0.0,10.0,0.0,0.0,0.0,10.0,0.0,0.0,0.0,10.0,0.00812264132474,0.0109189604693,0.00878843159726,1.0,0.0,0.0,0.0,1.0,0.0,0.0,0.0,1.0,-0.00359252929688,-0.608334960938,10.132130127,0.1,0.0,0.0,0.0,0.1,0.0,0.0,0.0,0.1
1446035245365385025,71,1446035245363449096,robocape,16.3096811481,10.9525658821,157.462755018,0.0,10.0,0.0,0.0,0.0,10.0,0.0,0.0,0.0,10.0,0.00812264132474,0.0111852765783,0.00932106381528,1.0,0.0,0.0,0.0,1.0,0.0,0.0,0.0,1.0,0.00718505859375,-0.603544921875,10.1476977539,0.1,0.0,0.0,0.0,0.1,0.0,0.0,0.0,0.1
1446035245390803191,72,1446035245389015913,robocape,16.3214871132,10.9596767284,157.475901876,0.0,10.0,0.0,0.0,0.0,10.0,0.0,0.0,0.0,10.0,0.00785632521573,0.0107858024148,0.00852211548825,1.0,0.0,0.0,0.0,1.0,0.0,0.0,0.0,1.0,0.00119750976563,-0.607137451172,10.157277832,0.1,0.0,0.0,0.0,0.1,0.0,0.0,0.0,0.1
1446035245417866566,73,1446035245416165113,robocape,16.3334857677,10.9672406703,157.489226776,0.0,10.0,0.0,0.0,0.0,10.0,0.0,0.0,0.0,10.0,0.00798948327024,0.0113184346328,0.00852211548825,1.0,0.0,0.0,0.0,1.0,0.0,0.0,0.0,1.0,0.00239501953125,-0.611927490234,10.172845459,0.1,0.0,0.0,0.0,0.1,0.0,0.0,0.0,0.1
1446035245444221650,74,1446035245442015886,robocape,16.3452083953,10.9742774424,157.50267821,0.0,10.0,0.0,0.0,0.0,10.0,0.0,0.0,0.0,10.0,0.00772316716123,0.0107858024148,0.00878843159726,1.0,0.0,0.0,0.0,1.0,0.0,0.0,0.0,1.0,-0.00119750976563,-0.601149902344,10.152487793,0.1,0.0,0.0,0.0,0.1,0.0,0.0,0.0,0.1
1446035245465385858,75,1446035245463521957,robocape,16.357502495,10.9818141721,157.516651686,0.0,10.0,0.0,0.0,0.0,10.0,0.0,0.0,0.0,10.0,0.00812264132474,0.0114515926873,0.00905474770627,1.0,0.0,0.0,0.0,1.0,0.0,0.0,0.0,1.0,-0.00718505859375,-0.599952392578,10.1249450684,0.1,0.0,0.0,0.0,0.1,0.0,0.0,0.0,0.1
1446035245490616275,76,1446035245488856077,robocape,16.3698332852,10.9895950098,157.530072321,0.0,10.0,0.0,0.0,0.0,10.0,0.0,0.0,0.0,10.0,0.00825579937925,0.0115847507418,0.00852211548825,1.0,0.0,0.0,0.0,1.0,0.0,0.0,0.0,1.0,-0.00718505859375,-0.599952392578,10.152487793,0.1,0.0,0.0,0.0,0.1,0.0,0.0,0.0,0.1
1446035245516269275,77,1446035245514420986,robocape,16.3823006424,10.9971438316,157.54340759,0.0,10.0,0.0,0.0,0.0,10.0,0.0,0.0,0.0,10.0,0.00838895743375,0.0113184346328,0.00852211548825,1.0,0.0,0.0,0.0,1.0,0.0,0.0,0.0,1.0,-0.00598754882813,-0.595162353516,10.1465002441,0.1,0.0,0.0,0.0,0.1,0.0,0.0,0.0,0.1
1446035245545033608,78,1446035245542341947,robocape,16.3938668443,11.0041457267,157.557512396,0.0,10.0,0.0,0.0,0.0,10.0,0.0,0.0,0.0,10.0,0.00745685105222,0.0109189604693,0.00932106381528,1.0,0.0,0.0,0.0,1.0,0.0,0.0,0.0,1.0,-0.0119750976563,-0.595162353516,10.136920166,0.1,0.0,0.0,0.0,0.1,0.0,0.0,0.0,0.1
1446035245565508900,79,1446035245563630104,robocape,16.4053861115,11.0112313307,157.570676257,0.0,10.0,0.0,0.0,0.0,10.0,0.0,0.0,0.0,10.0,0.00759000910673,0.0107858024148,0.00852211548825,1.0,0.0,0.0,0.0,1.0,0.0,0.0,0.0,1.0,-0.00718505859375,-0.59396484375,10.136920166,0.1,0.0,0.0,0.0,0.1,0.0,0.0,0.0,0.1
1446035245590337816,80,1446035245588566064,robocape,16.4173488355,11.0189502473,157.583763479,0.0,10.0,0.0,0.0,0.0,10.0,0.0,0.0,0.0,10.0,0.00798948327024,0.0114515926873,0.00825579937925,1.0,0.0,0.0,0.0,1.0,0.0,0.0,0.0,1.0,-0.0047900390625,-0.592767333984,10.1824255371,0.1,0.0,0.0,0.0,0.1,0.0,0.0,0.0,0.1
1446035245615997400,81,1446035245613858938,robocape,16.4295588464,11.0263572017,157.596570958,0.0,10.0,0.0,0.0,0.0,10.0,0.0,0.0,0.0,10.0,0.00825579937925,0.0110521185238,0.00812264132474,1.0,0.0,0.0,0.0,1.0,0.0,0.0,0.0,1.0,0.00359252929688,-0.591569824219,10.1656604004,0.1,0.0,0.0,0.0,0.1,0.0,0.0,0.0,0.1
1446035245645408941,82,1446035245643248081,robocape,16.4417118164,11.0340349417,157.609813306,0.0,10.0,0.0,0.0,0.0,10.0,0.0,0.0,0.0,10.0,0.00812264132474,0.0114515926873,0.00838895743375,1.0,0.0,0.0,0.0,1.0,0.0,0.0,0.0,1.0,-0.00838256835938,-0.589174804688,10.1405126953,0.1,0.0,0.0,0.0,0.1,0.0,0.0,0.0,0.1
1446035245666675108,83,1446035245664716005,robocape,16.4539034233,11.0413000957,157.623225269,0.0,10.0,0.0,0.0,0.0,10.0,0.0,0.0,0.0,10.0,0.00812264132474,0.0110521185238,0.00865527354276,1.0,0.0,0.0,0.0,1.0,0.0,0.0,0.0,1.0,-0.009580078125,-0.59396484375,10.1704504395,0.1,0.0,0.0,0.0,0.1,0.0,0.0,0.0,0.1
1446035245693486525,84,1446035245688471078,robocape,16.4659605972,11.0491642499,157.636711272,0.0,10.0,0.0,0.0,0.0,10.0,0.0,0.0,0.0,10.0,0.00798948327024,0.0117179087963,0.00852211548825,1.0,0.0,0.0,0.0,1.0,0.0,0.0,0.0,1.0,-0.00718505859375,-0.586779785156,10.1620678711,0.1,0.0,0.0,0.0,0.1,0.0,0.0,0.0,0.1
1446035245719281566,85,1446035245717479944,robocape,16.4785641289,11.0562279632,157.649889859,0.0,10.0,0.0,0.0,0.0,10.0,0.0,0.0,0.0,10.0,0.00852211548825,0.0107858024148,0.00852211548825,1.0,0.0,0.0,0.0,1.0,0.0,0.0,0.0,1.0,-0.009580078125,-0.595162353516,10.1536853027,0.1,0.0,0.0,0.0,0.1,0.0,0.0,0.0,0.1
1446035245743847066,86,1446035245741898059,robocape,16.4899782337,11.0636293829,157.663203884,0.0,10.0,0.0,0.0,0.0,10.0,0.0,0.0,0.0,10.0,0.00745685105222,0.0111852765783,0.00852211548825,1.0,0.0,0.0,0.0,1.0,0.0,0.0,0.0,1.0,-0.009580078125,-0.59396484375,10.1680554199,0.1,0.0,0.0,0.0,0.1,0.0,0.0,0.0,0.1
1446035245766512775,87,1446035245764638900,robocape,16.5020149721,11.0711408662,157.676564767,0.0,10.0,0.0,0.0,0.0,10.0,0.0,0.0,0.0,10.0,0.00798948327024,0.0113184346328,0.00852211548825,1.0,0.0,0.0,0.0,1.0,0.0,0.0,0.0,1.0,-0.01916015625,-0.587977294922,10.1476977539,0.1,0.0,0.0,0.0,0.1,0.0,0.0,0.0,0.1
1446035245790194733,88,1446035245788403034,robocape,16.513707351,11.0785686239,157.689733961,0.0,10.0,0.0,0.0,0.0,10.0,0.0,0.0,0.0,10.0,0.00772316716123,0.0111852765783,0.00838895743375,1.0,0.0,0.0,0.0,1.0,0.0,0.0,0.0,1.0,-0.0143701171875,-0.605939941406,10.1536853027,0.1,0.0,0.0,0.0,0.1,0.0,0.0,0.0,0.1
1446035245815700108,89,1446035245813962936,robocape,16.5265676147,11.0858915159,157.703355212,0.0,10.0,0.0,0.0,0.0,10.0,0.0,0.0,0.0,10.0,0.00865527354276,0.0111852765783,0.00878843159726,1.0,0.0,0.0,0.0,1.0,0.0,0.0,0.0,1.0,-0.0143701171875,-0.602347412109,10.1644628906,0.1,0.0,0.0,0.0,0.1,0.0,0.0,0.0,0.1
1446035245843970400,90,1446035245842171907,robocape,16.5398105362,11.0935389281,157.716618651,0.0,10.0,0.0,0.0,0.0,10.0,0.0,0.0,0.0,10.0,0.00905474770627,0.0114515926873,0.00838895743375,1.0,0.0,0.0,0.0,1.0,0.0,0.0,0.0,1.0,-0.0143701171875,-0.599952392578,10.1453027344,0.1,0.0,0.0,0.0,0.1,0.0,0.0,0.0,0.1
1446035245869434316,91,1446035245867394924,robocape,16.5522320014,11.1008753728,157.7296015,0.0,10.0,0.0,0.0,0.0,10.0,0.0,0.0,0.0,10.0,0.00838895743375,0.0110521185238,0.00825579937925,1.0,0.0,0.0,0.0,1.0,0.0,0.0,0.0,1.0,-0.00838256835938,-0.607137451172,10.1536853027,0.1,0.0,0.0,0.0,0.1,0.0,0.0,0.0,0.1
1446035245890162108,92,1446035245888370990,robocape,16.564484203,11.1079810218,157.742497814,0.0,10.0,0.0,0.0,0.0,10.0,0.0,0.0,0.0,10.0,0.00825579937925,0.0107858024148,0.00825579937925,1.0,0.0,0.0,0.0,1.0,0.0,0.0,0.0,1.0,-0.00239501953125,-0.597557373047,10.152487793,0.1,0.0,0.0,0.0,0.1,0.0,0.0,0.0,0.1
1446035245915708192,93,1446035245913882970,robocape,16.5767451943,11.1155710056,157.755425102,0.0,10.0,0.0,0.0,0.0,10.0,0.0,0.0,0.0,10.0,0.00825579937925,0.0113184346328,0.00812264132474,1.0,0.0,0.0,0.0,1.0,0.0,0.0,0.0,1.0,-0.00359252929688,-0.601149902344,10.1453027344,0.1,0.0,0.0,0.0,0.1,0.0,0.0,0.0,0.1
1446035245944010733,94,1446035245942244052,robocape,16.5877784949,11.1230438328,157.768310303,0.0,10.0,0.0,0.0,0.0,10.0,0.0,0.0,0.0,10.0,0.00719053494321,0.0111852765783,0.00812264132474,1.0,0.0,0.0,0.0,1.0,0.0,0.0,0.0,1.0,0.0,-0.598754882812,10.1560803223,0.1,0.0,0.0,0.0,0.1,0.0,0.0,0.0,0.1
1446035245969162442,95,1446035245966938018,robocape,16.599545075,11.130264388,157.781752506,0.0,10.0,0.0,0.0,0.0,10.0,0.0,0.0,0.0,10.0,0.00772316716123,0.0110521185238,0.00865527354276,1.0,0.0,0.0,0.0,1.0,0.0,0.0,0.0,1.0,-0.0155676269531,-0.601149902344,10.1692529297,0.1,0.0,0.0,0.0,0.1,0.0,0.0,0.0,0.1
1446035245990358733,96,1446035245988475084,robocape,16.6109863318,11.1376286294,157.795092004,0.0,10.0,0.0,0.0,0.0,10.0,0.0,0.0,0.0,10.0,0.00745685105222,0.0111852765783,0.00852211548825,1.0,0.0,0.0,0.0,1.0,0.0,0.0,0.0,1.0,-0.0299377441406,-0.596359863281,10.1476977539,0.1,0.0,0.0,0.0,0.1,0.0,0.0,0.0,0.1
1446035246016085317,97,1446035246014187097,robocape,16.6223883943,11.1446271057,157.80894369,0.0,10.0,0.0,0.0,0.0,10.0,0.0,0.0,0.0,10.0,0.00732369299772,0.0109189604693,0.00905474770627,1.0,0.0,0.0,0.0,1.0,0.0,0.0,0.0,1.0,-0.0047900390625,-0.584384765625,10.1465002441,0.1,0.0,0.0,0.0,0.1,0.0,0.0,0.0,0.1
1446035246042057525,98,1446035246040302991,robocape,16.6334907506,11.1515307863,157.822109042,0.0,10.0,0.0,0.0,0.0,10.0,0.0,0.0,0.0,10.0,0.00719053494321,0.0106526443603,0.00852211548825,1.0,0.0,0.0,0.0,1.0,0.0,0.0,0.0,1.0,0.0,-0.602347412109,10.1644628906,0.1,0.0,0.0,0.0,0.1,0.0,0.0,0.0,0.1
1446035246070536025,99,1446035246068762063,robocape,16.645874861,11.1591111004,157.835545341,0.0,10.0,0.0,0.0,0.0,10.0,0.0,0.0,0.0,10.0,0.00825579937925,0.0114515926873,0.00852211548825,1.0,0.0,0.0,0.0,1.0,0.0,0.0,0.0,1.0,-0.00119750976563,-0.59396484375,10.193203125,0.1,0.0,0.0,0.0,0.1,0.0,0.0,0.0,0.1
1446035246090261692,100,1446035246088489055,robocape,16.6580472689,11.166381526,157.848700102,0.0,10.0,0.0,0.0,0.0,10.0,0.0,0.0,0.0,10.0,0.00812264132474,0.0110521185238,0.00838895743375,1.0,0.0,0.0,0.0,1.0,0.0,0.0,0.0,1.0,-0.00718505859375,-0.598754882812,10.1680554199,0.1,0.0,0.0,0.0,0.1,0.0,0.0,0.0,0.1
1446035246115703608,101,1446035246113933086,robocape,16.6701121596,11.1737276821,157.862051992,0.0,10.0,0.0,0.0,0.0,10.0,0.0,0.0,0.0,10.0,0.00798948327024,0.0111852765783,0.00852211548825,1.0,0.0,0.0,0.0,1.0,0.0,0.0,0.0,1.0,-0.0179626464844,-0.601149902344,10.1692529297,0.1,0.0,0.0,0.0,0.1,0.0,0.0,0.0,0.1
1446035246141789275,102,1446035246140007019,robocape,16.6826155728,11.1809344031,157.876005553,0.0,10.0,0.0,0.0,0.0,10.0,0.0,0.0,0.0,10.0,0.00825579937925,0.0111852765783,0.00905474770627,1.0,0.0,0.0,0.0,1.0,0.0,0.0,0.0,1.0,-0.00598754882813,-0.602347412109,10.1560803223,0.1,0.0,0.0,0.0,0.1,0.0,0.0,0.0,0.1
1446035246170062192,103,1446035246168087005,robocape,16.6950858513,11.1885448502,157.889796875,0.0,10.0,0.0,0.0,0.0,10.0,0.0,0.0,0.0,10.0,0.00825579937925,0.0115847507418,0.00878843159726,1.0,0.0,0.0,0.0,1.0,0.0,0.0,0.0,1.0,-0.00119750976563,-0.59396484375,10.1417102051,0.1,0.0,0.0,0.0,0.1,0.0,0.0,0.0,0.1
1446035246191691900,104,1446035246189395904,robocape,16.7073540703,11.1959589529,157.903351254,0.0,10.0,0.0,0.0,0.0,10.0,0.0,0.0,0.0,10.0,0.00812264132474,0.0113184346328,0.00865527354276,1.0,0.0,0.0,0.0,1.0,0.0,0.0,0.0,1.0,-0.00119750976563,-0.605939941406,10.1500927734,0.1,0.0,0.0,0.0,0.1,0.0,0.0,0.0,0.1
1446035246215285483,105,1446035246213484048,robocape,16.7192465664,11.2032336939,157.915874718,0.0,10.0,0.0,0.0,0.0,10.0,0.0,0.0,0.0,10.0,0.00798948327024,0.0109189604693,0.00785632521573,1.0,0.0,0.0,0.0,1.0,0.0,0.0,0.0,1.0,-0.00838256835938,-0.597557373047,10.1752404785,0.1,0.0,0.0,0.0,0.1,0.0,0.0,0.0,0.1
1446035246240873358,106,1446035246239098072,robocape,16.731347975,11.2104140786,157.929344211,0.0,10.0,0.0,0.0,0.0,10.0,0.0,0.0,0.0,10.0,0.00798948327024,0.0110521185238,0.00865527354276,1.0,0.0,0.0,0.0,1.0,0.0,0.0,0.0,1.0,-0.00718505859375,-0.602347412109,10.1536853027,0.1,0.0,0.0,0.0,0.1,0.0,0.0,0.0,0.1
1446035246269934233,107,1446035246268042087,robocape,16.7432878483,11.2175678811,157.943460241,0.0,10.0,0.0,0.0,0.0,10.0,0.0,0.0,0.0,10.0,0.00772316716123,0.0111852765783,0.00918790576077,1.0,0.0,0.0,0.0,1.0,0.0,0.0,0.0,1.0,-0.0047900390625,-0.595162353516,10.1441052246,0.1,0.0,0.0,0.0,0.1,0.0,0.0,0.0,0.1
1446035246291927108,108,1446035246289673089,robocape,16.7550123029,11.2247860427,157.957279238,0.0,10.0,0.0,0.0,0.0,10.0,0.0,0.0,0.0,10.0,0.00759000910673,0.0111852765783,0.00892158965177,1.0,0.0,0.0,0.0,1.0,0.0,0.0,0.0,1.0,-0.0131726074219,-0.583187255859,10.1512902832,0.1,0.0,0.0,0.0,0.1,0.0,0.0,0.0,0.1
1446035246315334192,109,1446035246313565015,robocape,16.7662488996,11.2320346366,157.970950909,0.0,10.0,0.0,0.0,0.0,10.0,0.0,0.0,0.0,10.0,0.00719053494321,0.0111852765783,0.00878843159726,1.0,0.0,0.0,0.0,1.0,0.0,0.0,0.0,1.0,-0.0131726074219,-0.592767333984,10.136920166,0.1,0.0,0.0,0.0,0.1,0.0,0.0,0.0,0.1
1446035246340482108,110,1446035246338721990,robocape,16.7781228717,11.2390427883,157.984040386,0.0,10.0,0.0,0.0,0.0,10.0,0.0,0.0,0.0,10.0,0.00785632521573,0.0107858024148,0.00838895743375,1.0,0.0,0.0,0.0,1.0,0.0,0.0,0.0,1.0,-0.0179626464844,-0.601149902344,10.1453027344,0.1,0.0,0.0,0.0,0.1,0.0,0.0,0.0,0.1
1446035246368951567,111,1446035246367234945,robocape,16.7903460999,11.2462159717,157.998016477,0.0,10.0,0.0,0.0,0.0,10.0,0.0,0.0,0.0,10.0,0.00798948327024,0.0111852765783,0.00905474770627,1.0,0.0,0.0,0.0,1.0,0.0,0.0,0.0,1.0,-0.00598754882813,-0.589174804688,10.1465002441,0.1,0.0,0.0,0.0,0.1,0.0,0.0,0.0,0.1
1446035246392737233,112,1446035246390460968,robocape,16.801983913,11.2534323007,158.010706779,0.0,10.0,0.0,0.0,0.0,10.0,0.0,0.0,0.0,10.0,0.00772316716123,0.0109189604693,0.00798948327024,1.0,0.0,0.0,0.0,1.0,0.0,0.0,0.0,1.0,-0.0047900390625,-0.601149902344,10.1536853027,0.1,0.0,0.0,0.0,0.1,0.0,0.0,0.0,0.1
1446035246418428900,113,1446035246416629076,robocape,16.8137689072,11.2602488066,158.024057689,0.0,10.0,0.0,0.0,0.0,10.0,0.0,0.0,0.0,10.0,0.00772316716123,0.0106526443603,0.00865527354276,1.0,0.0,0.0,0.0,1.0,0.0,0.0,0.0,1.0,-0.0047900390625,-0.597557373047,10.1393151855,0.1,0.0,0.0,0.0,0.1,0.0,0.0,0.0,0.1
1446035246441659650,114,1446035246439876079,robocape,16.8255972247,11.2674241297,158.036902549,0.0,10.0,0.0,0.0,0.0,10.0,0.0,0.0,0.0,10.0,0.00785632521573,0.0109189604693,0.00812264132474,1.0,0.0,0.0,0.0,1.0,0.0,0.0,0.0,1.0,-0.00359252929688,-0.597557373047,10.1632653809,0.1,0.0,0.0,0.0,0.1,0.0,0.0,0.0,0.1
1446035246468339192,115,1446035246466594934,robocape,16.8376450287,11.2747059355,158.051428283,0.0,10.0,0.0,0.0,0.0,10.0,0.0,0.0,0.0,10.0,0.00772316716123,0.0114515926873,0.00945422186978,1.0,0.0,0.0,0.0,1.0,0.0,0.0,0.0,1.0,0.00359252929688,-0.586779785156,10.1512902832,0.1,0.0,0.0,0.0,0.1,0.0,0.0,0.0,0.1
1446035246494763358,116,1446035246490242958,robocape,16.8504033975,11.282075941,158.065013003,0.0,10.0,0.0,0.0,0.0,10.0,0.0,0.0,0.0,10.0,0.00852211548825,0.0113184346328,0.00865527354276,1.0,0.0,0.0,0.0,1.0,0.0,0.0,0.0,1.0,0.0,-0.59396484375,10.1668579102,0.1,0.0,0.0,0.0,0.1,0.0,0.0,0.0,0.1
1446035246515717858,117,1446035246513547897,robocape,16.8623150245,11.2893738105,158.078899768,0.0,10.0,0.0,0.0,0.0,10.0,0.0,0.0,0.0,10.0,0.00772316716123,0.0113184346328,0.00892158965177,1.0,0.0,0.0,0.0,1.0,0.0,0.0,0.0,1.0,-0.0047900390625,-0.604742431641,10.1536853027,0.1,0.0,0.0,0.0,0.1,0.0,0.0,0.0,0.1
1446035246540475692,118,1446035246538696050,robocape,16.8734593813,11.2961828138,158.092757117,0.0,10.0,0.0,0.0,0.0,10.0,0.0,0.0,0.0,10.0,0.00705737688871,0.0107858024148,0.00905474770627,1.0,0.0,0.0,0.0,1.0,0.0,0.0,0.0,1.0,-0.00359252929688,-0.608334960938,10.1620678711,0.1,0.0,0.0,0.0,0.1,0.0,0.0,0.0,0.1
1446035246567925108,119,1446035246566189050,robocape,16.8851210765,11.3025413438,158.104801673,0.0,10.0,0.0,0.0,0.0,10.0,0.0,0.0,0.0,10.0,0.00785632521573,0.00985369603329,0.00772316716123,1.0,0.0,0.0,0.0,1.0,0.0,0.0,0.0,1.0,-0.158071289063,-0.595162353516,10.1201550293,0.1,0.0,0.0,0.0,0.1,0.0,0.0,0.0,0.1
1446035246595923192,120,1446035246593071937,robocape,16.8970651921,11.3108226882,158.11811578,0.0,10.0,0.0,0.0,0.0,10.0,0.0,0.0,0.0,10.0,0.00785632521573,0.0122505410144,0.00812264132474,1.0,0.0,0.0,0.0,1.0,0.0,0.0,0.0,1.0,0.0778381347656,-0.585582275391,10.1764379883,0.1,0.0,0.0,0.0,0.1,0.0,0.0,0.0,0.1
1446035246615720609,121,1446035246613945007,robocape,16.9085560705,11.3203292415,158.131438546,0.0,10.0,0.0,0.0,0.0,10.0,0.0,0.0,0.0,10.0,0.00745685105222,0.0135821215594,0.00772316716123,1.0,0.0,0.0,0.0,1.0,0.0,0.0,0.0,1.0,-0.0383203125,-0.595162353516,10.2351159668,0.1,0.0,0.0,0.0,0.1,0.0,0.0,0.0,0.1
1446035246640485025,122,1446035246638786077,robocape,16.9237292335,11.3245032427,158.142774631,0.0,10.0,0.0,0.0,0.0,10.0,0.0,0.0,0.0,10.0,0.0110521185238,0.00732369299772,0.00785632521573,1.0,0.0,0.0,0.0,1.0,0.0,0.0,0.0,1.0,-2.15192504883,-0.667012939453,10.26984375,0.1,0.0,0.0,0.0,0.1,0.0,0.0,0.0,0.1
1446035246666365567,123,1446035246664554119,robocape,16.941407019,11.349001677,158.159888675,0.0,10.0,0.0,0.0,0.0,10.0,0.0,0.0,0.0,10.0,0.0121173829599,0.0307595105904,0.00585895439817,1.0,0.0,0.0,0.0,1.0,0.0,0.0,0.0,1.0,-2.54710327148,-0.627495117188,10.5692211914,0.1,0.0,0.0,0.0,0.1,0.0,0.0,0.0,0.1
1446035246693972859,124,1446035246691942930,robocape,16.9453895092,11.3622455811,158.157895219,0.0,10.0,0.0,0.0,0.0,10.0,0.0,0.0,0.0,10.0,0.00386158358061,0.0138484376684,-0.00599211245268,1.0,0.0,0.0,0.0,1.0,0.0,0.0,0.0,1.0,-2.33634155273,-0.550854492188,10.3680395508,0.1,0.0,0.0,0.0,0.1,0.0,0.0,0.0,0.1
1446035246720028150,125,1446035246717952966,robocape,16.938123336,11.3783884781,158.15609736,0.0,10.0,0.0,0.0,0.0,10.0,0.0,0.0,0.0,10.0,-0.00599211245268,0.0170442309765,-0.0067910607797,1.0,0.0,0.0,0.0,1.0,0.0,0.0,0.0,1.0,-1.68848876953,-0.534089355469,10.2734362793,0.1,0.0,0.0,0.0,0.1,0.0,0.0,0.0,0.1
1446035246740787192,126,1446035246739028930,robocape,16.9147092726,11.3797034535,158.145505487,0.0,10.0,0.0,0.0,0.0,10.0,0.0,0.0,0.0,10.0,-0.0183758115215,-0.00119842249054,-0.00905474770627,1.0,0.0,0.0,0.0,1.0,0.0,0.0,0.0,1.0,-2.08007446289,-0.59396484375,10.2650537109,0.1,0.0,0.0,0.0,0.1,0.0,0.0,0.0,0.1
1446035246766238192,127,1446035246764481067,robocape,16.8775915296,11.3944144339,158.154238113,0.0,10.0,0.0,0.0,0.0,10.0,0.0,0.0,0.0,10.0,-0.034088461953,0.0181094954125,0.00226368692657,1.0,0.0,0.0,0.0,1.0,0.0,0.0,0.0,1.0,-1.81422729492,-0.444276123047,10.3764221191,0.1,0.0,0.0,0.0,0.1,0.0,0.0,0.0,0.1
1446035246794474775,128,1446035246792490959,robocape,16.79688959,11.4182289839,158.166624054,0.0,10.0,0.0,0.0,0.0,10.0,0.0,0.0,0.0,10.0,-0.0728374558137,0.0288952978274,0.00226368692657,1.0,0.0,0.0,0.0,1.0,0.0,0.0,0.0,1.0,-1.39869140625,-0.0107775878906,9.83395019531,0.1,0.0,0.0,0.0,0.1,0.0,0.0,0.0,0.1
1446035246816389317,129,1446035246814682006,robocape,16.650621876,11.4478968302,158.186689737,0.0,10.0,0.0,0.0,0.0,10.0,0.0,0.0,0.0,10.0,-0.13156015785,0.0371510972066,0.0066579027252,1.0,0.0,0.0,0.0,1.0,0.0,0.0,0.0,1.0,-1.29570556641,-0.132923583984,10.765612793,0.1,0.0,0.0,0.0,0.1,0.0,0.0,0.0,0.1
1446035246840244859,130,1446035246838476896,robocape,16.4418424702,11.4400502197,158.190601724,0.0,10.0,0.0,0.0,0.0,10.0,0.0,0.0,0.0,10.0,-0.182959166888,-0.00759000910673,0.00572579634367,1.0,0.0,0.0,0.0,1.0,0.0,0.0,0.0,1.0,-1.16876953125,-0.275427246094,10.0135766602,0.1,0.0,0.0,0.0,0.1,0.0,0.0,0.0,0.1
1446035246865644984,131,1446035246863866090,robocape,16.1708324352,11.4455651919,158.196669789,0.0,10.0,0.0,0.0,0.0,10.0,0.0,0.0,0.0,10.0,-0.23768712729,0.00745685105222,0.0031957933081,1.0,0.0,0.0,0.0,1.0,0.0,0.0,0.0,1.0,-1.46096191406,-0.09580078125,9.85670288086,0.1,0.0,0.0,0.0,0.1,0.0,0.0,0.0,0.1
1446035246894851109,132,1446035246893033981,robocape,15.8075497024,11.3671883354,158.181065841,0.0,10.0,0.0,0.0,0.0,10.0,0.0,0.0,0.0,10.0,-0.31398669252,-0.0890827384632,0.0117179087963,1.0,0.0,0.0,0.0,1.0,0.0,0.0,0.0,1.0,-0.486188964844,0.0993933105469,9.8135925293,0.1,0.0,0.0,0.0,0.1,0.0,0.0,0.0,0.1
1446035246917192900,133,1446035246914901971,robocape,15.3249469903,11.3915592253,158.20862766,0.0,10.0,0.0,0.0,0.0,10.0,0.0,0.0,0.0,10.0,-0.426505248576,0.0328900394625,0.0151800182135,1.0,0.0,0.0,0.0,1.0,0.0,0.0,0.0,1.0,1.04063598633,0.263452148438,10.9524243164,0.1,0.0,0.0,0.0,0.1,0.0,0.0,0.0,0.1
1446035246940316442,134,1446035246938564062,robocape,14.6918462461,11.3909416525,158.333183311,0.0,10.0,0.0,0.0,0.0,10.0,0.0,0.0,0.0,10.0,-0.576707534057,0.0267647689553,0.102531701968,1.0,0.0,0.0,0.0,1.0,0.0,0.0,0.0,1.0,-0.195194091797,0.124541015625,9.16933227539,0.1,0.0,0.0,0.0,0.1,0.0,0.0,0.0,0.1
1446035246965688525,135,1446035246963931083,robocape,13.8308527886,11.3375417589,158.501618239,0.0,10.0,0.0,0.0,0.0,10.0,0.0,0.0,0.0,10.0,-0.784034624919,-0.0233026595382,0.153797552952,1.0,0.0,0.0,0.0,1.0,0.0,0.0,0.0,1.0,-1.12326416016,0.154478759766,10.1584753418,0.1,0.0,0.0,0.0,0.1,0.0,0.0,0.0,0.1
1446035246993863609,136,1446035246992113113,robocape,12.7543159073,11.2856488831,158.704282086,0.0,10.0,0.0,0.0,0.0,10.0,0.0,0.0,0.0,10.0,-0.97857854255,-0.01744370514,0.181361270234,1.0,0.0,0.0,0.0,1.0,0.0,0.0,0.0,1.0,-4.3649230957,0.00838256835938,9.67348388672,0.1,0.0,0.0,0.0,0.1,0.0,0.0,0.0,0.1
1446035247021127734,137,1446035247017815113,robocape,11.4704068984,11.2740154697,158.956621674,0.0,10.0,0.0,0.0,0.0,10.0,0.0,0.0,0.0,10.0,-1.16899456049,0.03222424919,0.212786571097,1.0,0.0,0.0,0.0,1.0,0.0,0.0,0.0,1.0,-6.21507568359,0.2682421875,10.3345092773,0.1,0.0,0.0,0.0,0.1,0.0,0.0,0.0,0.1
1446035247040117942,138,1446035247038358926,robocape,9.92686067153,11.2485328848,159.224802956,0.0,10.0,0.0,0.0,0.0,10.0,0.0,0.0,0.0,10.0,-1.39855904646,0.0141147537774,0.229697644019,1.0,0.0,0.0,0.0,1.0,0.0,0.0,0.0,1.0,-5.38759643555,0.118553466797,11.0410400391,0.1,0.0,0.0,0.0,0.1,0.0,0.0,0.0,0.1
1446035247065623150,139,1446035247063857078,robocape,8.10070459741,11.0493223493,159.466184485,0.0,10.0,0.0,0.0,0.0,10.0,0.0,0.0,0.0,10.0,-1.63957512511,-0.18921759545,0.238219759508,1.0,0.0,0.0,0.0,1.0,0.0,0.0,0.0,1.0,-2.4105871582,0.51732421875,9.4303894043,0.1,0.0,0.0,0.0,0.1,0.0,0.0,0.0,0.1
1446035247093020484,140,1446035247091253995,robocape,5.88926688382,10.9209947919,159.750269552,0.0,10.0,0.0,0.0,0.0,10.0,0.0,0.0,0.0,10.0,-1.98312290573,-0.113184346328,0.257927151574,1.0,0.0,0.0,0.0,1.0,0.0,0.0,0.0,1.0,-6.23064331055,0.656235351563,8.39813598633,0.1,0.0,0.0,0.0,0.1,0.0,0.0,0.0,0.1
1446035247119640442,141,1446035247117844104,robocape,3.21450814563,10.8553187579,160.132357794,0.0,10.0,0.0,0.0,0.0,10.0,0.0,0.0,0.0,10.0,-2.40523393851,-0.0472711093489,0.330764607388,1.0,0.0,0.0,0.0,1.0,0.0,0.0,0.0,1.0,-2.63571899414,1.20589233398,9.31063842773,0.1,0.0,0.0,0.0,0.1,0.0,0.0,0.0,0.1
1446035247140413317,142,1446035247138535022,robocape,0.00481365444256,10.7289201059,160.555928394,0.0,10.0,0.0,0.0,0.0,10.0,0.0,0.0,0.0,10.0,-2.87927661254,-0.130628051468,0.365385701559,1.0,0.0,0.0,0.0,1.0,0.0,0.0,0.0,1.0,-2.82253051758,1.20469482422,7.67963012695,0.1,0.0,0.0,0.0,0.1,0.0,0.0,0.0,0.1
1446035247165532234,143,1446035247163757085,robocape,-4.12654807084,10.671648976,161.076935393,0.0,10.0,0.0,0.0,0.0,10.0,0.0,0.0,0.0,10.0,-3.70139444105,-0.0796285165934,0.442484215117,1.0,0.0,0.0,0.0,1.0,0.0,0.0,0.0,1.0,-1.07177124023,1.916015625,6.25818603516,0.1,0.0,0.0,0.0,0.1,0.0,0.0,0.0,0.1
1446035247191974067,144,1446035247190191984,robocape,-9.00345476289,10.6461385923,161.656968019,0.0,10.0,0.0,0.0,0.0,10.0,0.0,0.0,0.0,10.0,-4.36332312999,-0.084821680719,0.489222692248,1.0,0.0,0.0,0.0,1.0,0.0,0.0,0.0,1.0,2.96503417969,1.63100830078,4.58885742188,0.1,0.0,0.0,0.0,0.1,0.0,0.0,0.0,0.1
1446035247219612192,145,1446035247217247962,robocape,-13.9402772752,10.421458568,161.673395624,0.0,10.0,0.0,0.0,0.0,10.0,0.0,0.0,0.0,10.0,-4.31378833371,-0.246475558887,-0.0356863586071,1.0,0.0,0.0,0.0,1.0,0.0,0.0,0.0,1.0,1.64897094727,-19.5457543945,6.70126464844,0.1,0.0,0.0,0.0,0.1,0.0,0.0,0.0,0.1
1446035247241453067,146,1446035247239689111,robocape,-16.2220818798,10.248888976,159.665234036,0.0,10.0,0.0,0.0,0.0,10.0,0.0,0.0,0.0,10.0,-1.64130617982,0.263652947918,-1.70775204901,1.0,0.0,0.0,0.0,1.0,0.0,0.0,0.0,1.0,9.99920654297,-19.62,10.1213525391,0.1,0.0,0.0,0.0,0.1,0.0,0.0,0.0,0.1
1446035247265737900,147,1446035247263978004,robocape,-15.7652274352,10.991264055,156.810672704,0.0,10.0,0.0,0.0,0.0,10.0,0.0,0.0,0.0,10.0,0.911866357243,1.46287438678,-2.11721306661,1.0,0.0,0.0,0.0,1.0,0.0,0.0,0.0,1.0,8.9705456543,-19.62,7.62095214844,0.1,0.0,0.0,0.0,0.1,0.0,0.0,0.0,0.1
1446035247290783151,148,1446035247289031982,robocape,-14.226434299,12.1735522842,153.830540345,0.0,10.0,0.0,0.0,0.0,10.0,0.0,0.0,0.0,10.0,1.93398758362,1.95768971732,-2.09883725509,1.0,0.0,0.0,0.0,1.0,0.0,0.0,0.0,1.0,-6.60187133789,-3.62725708008,8.60889770508,0.1,0.0,0.0,0.0,0.1,0.0,0.0,0.0,0.1
1446035247318518984,149,1446035247316582918,robocape,-13.3051899293,12.8302416478,152.00608482,0.0,10.0,0.0,0.0,0.0,10.0,0.0,0.0,0.0,10.0,1.19842249054,1.11466607425,-1.31533526239,1.0,0.0,0.0,0.0,1.0,0.0,0.0,0.0,1.0,-3.61288696289,1.57831787109,7.67843261719,0.1,0.0,0.0,0.0,0.1,0.0,0.0,0.0,0.1
1446035247342045567,150,1446035247339685916,robocape,-13.1738649136,13.4325589182,150.08095573,0.0,10.0,0.0,0.0,0.0,10.0,0.0,0.0,0.0,10.0,0.555002771173,1.07218865487,-1.41347274856,1.0,0.0,0.0,0.0,1.0,0.0,0.0,0.0,1.0,-1.63579833984,0.368833007813,8.43046875,0.1,0.0,0.0,0.0,0.1,0.0,0.0,0.0,0.1
1446035247365383942,151,1446035247363615036,robocape,-13.9289025473,13.8684724657,148.160260823,0.0,10.0,0.0,0.0,0.0,10.0,0.0,0.0,0.0,10.0,-0.199337607592,0.892824755449,-1.44303383666,1.0,0.0,0.0,0.0,1.0,0.0,0.0,0.0,1.0,-0.452658691406,0.492176513672,10.9464367676,0.1,0.0,0.0,0.0,0.1,0.0,0.0,0.0,0.1
1446035247391083526,152,1446035247389313936,robocape,-15.3666703908,14.3043576532,146.22216589,0.0,10.0,0.0,0.0,0.0,10.0,0.0,0.0,0.0,10.0,-0.773648296668,0.93010901071,-1.43304698257,1.0,0.0,0.0,0.0,1.0,0.0,0.0,0.0,1.0,1.05979614258,1.7244140625,9.88544311523,0.1,0.0,0.0,0.0,0.1,0.0,0.0,0.0,0.1
1446035247420072067,153,1446035247418201923,robocape,-17.5348960716,14.7465913091,144.131965536,0.0,10.0,0.0,0.0,0.0,10.0,0.0,0.0,0.0,10.0,-1.35435057236,1.02451807135,-1.5152055022,1.0,0.0,0.0,0.0,1.0,0.0,0.0,0.0,1.0,3.69072509766,-1.74956176758,11.3116772461,0.1,0.0,0.0,0.0,0.1,0.0,0.0,0.0,0.1
1446035247441264734,154,1446035247439018964,robocape,-19.6566351079,15.0546559262,141.602630445,0.0,10.0,0.0,0.0,0.0,10.0,0.0,0.0,0.0,10.0,-1.18084562734,1.04089651206,-1.86900645302,1.0,0.0,0.0,0.0,1.0,0.0,0.0,0.0,1.0,3.11592041016,-10.3800146484,8.89270751953,0.1,0.0,0.0,0.0,0.1,0.0,0.0,0.0,0.1
1446035247465364359,155,1446035247463474035,robocape,-21.348402591,15.4716681039,138.566632322,0.0,10.0,0.0,0.0,0.0,10.0,0.0,0.0,0.0,10.0,-0.647813935162,1.38311271213,-2.17020997231,1.0,0.0,0.0,0.0,1.0,0.0,0.0,0.0,1.0,3.98291748047,-15.9927429199,9.29507080078,0.1,0.0,0.0,0.0,0.1,0.0,0.0,0.0,0.1
1446035247490469692,156,1446035247488693952,robocape,-22.7386125102,16.0566396808,135.517797981,0.0,10.0,0.0,0.0,0.0,10.0,0.0,0.0,0.0,10.0,-0.348341470582,1.65329040472,-2.0458403494,1.0,0.0,0.0,0.0,1.0,0.0,0.0,0.0,1.0,4.43437866211,-10.7572302246,4.7169909668,0.1,0.0,0.0,0.0,0.1,0.0,0.0,0.0,0.1
1446035247519187692,157,1446035247517427921,robocape,-23.0610884522,16.572273395,132.977926073,0.0,10.0,0.0,0.0,0.0,10.0,0.0,0.0,0.0,10.0,0.469382142126,1.44516436553,-1.65382303694,1.0,0.0,0.0,0.0,1.0,0.0,0.0,0.0,1.0,1.32803833008,-4.46551391602,10.9332641602,0.1,0.0,0.0,0.0,0.1,0.0,0.0,0.0,0.1
1446035247542426442,158,1446035247540446043,robocape,-23.9013919289,16.9910617596,130.831317491,0.0,10.0,0.0,0.0,0.0,10.0,0.0,0.0,0.0,10.0,-0.0766990393943,1.22052672758,-1.38284639602,1.0,0.0,0.0,0.0,1.0,0.0,0.0,0.0,1.0,0.281414794922,-2.56865844727,7.43893066406,0.1,0.0,0.0,0.0,0.1,0.0,0.0,0.0,0.1
1446035247565425526,159,1446035247563664913,robocape,-25.1426679923,17.276636086,128.548739134,0.0,10.0,0.0,0.0,0.0,10.0,0.0,0.0,0.0,10.0,-0.367116756267,1.12904714414,-1.52825499154,1.0,0.0,0.0,0.0,1.0,0.0,0.0,0.0,1.0,3.05125488281,-2.02618652344,9.72617431641,0.1,0.0,0.0,0.0,0.1,0.0,0.0,0.0,0.1
1446035247590532984,160,1446035247588742971,robocape,-26.4328783002,17.4086078653,126.399781887,0.0,10.0,0.0,0.0,0.0,10.0,0.0,0.0,0.0,10.0,-0.44168526679,0.924516372421,-1.49270179099,1.0,0.0,0.0,0.0,1.0,0.0,0.0,0.0,1.0,1.09931396484,-5.91330322266,6.6641418457,0.1,0.0,0.0,0.0,0.1,0.0,0.0,0.0,0.1
1446035247618336859,161,1446035247616513013,robocape,-27.8868855915,17.6168498047,124.208113471,0.0,10.0,0.0,0.0,0.0,10.0,0.0,0.0,0.0,10.0,-0.562592780279,1.07019128405,-1.44889279106,1.0,0.0,0.0,0.0,1.0,0.0,0.0,0.0,1.0,4.23319702148,-9.47828979492,8.76816650391,0.1,0.0,0.0,0.0,0.1,0.0,0.0,0.0,0.1
1446035247645125526,162,1446035247642858982,robocape,-28.9962071056,17.8393329118,121.776983463,0.0,10.0,0.0,0.0,0.0,10.0,0.0,0.0,0.0,10.0,-0.172705996692,1.21240408626,-1.58045294891,1.0,0.0,0.0,0.0,1.0,0.0,0.0,0.0,1.0,0.32572265625,-6.91801391602,7.20541625977,0.1,0.0,0.0,0.0,0.1,0.0,0.0,0.0,0.1
1446035247665594234,163,1446035247663651943,robocape,-29.9862855323,18.0169635727,119.681328123,0.0,10.0,0.0,0.0,0.0,10.0,0.0,0.0,0.0,10.0,-0.168844413111,1.05234810474,-1.34835845991,1.0,0.0,0.0,0.0,1.0,0.0,0.0,0.0,1.0,0.55564453125,-3.9433996582,9.42919189453,0.1,0.0,0.0,0.0,0.1,0.0,0.0,0.0,0.1
1446035247698080276,164,1446035247688607931,robocape,-31.0510779039,18.1030991667,117.696623928,0.0,10.0,0.0,0.0,0.0,10.0,0.0,0.0,0.0,10.0,-0.264851370408,0.918257943859,-1.3156015785,1.0,0.0,0.0,0.0,1.0,0.0,0.0,0.0,1.0,3.36260742188,-6.95753173828,7.18865112305,0.1,0.0,0.0,0.0,0.1,0.0,0.0,0.0,0.1
1446035247720142151,165,1446035247718305110,robocape,-32.0559810824,18.2644224504,115.66461463,0.0,10.0,0.0,0.0,0.0,10.0,0.0,0.0,0.0,10.0,-0.190948650159,1.05301389502,-1.27245836884,1.0,0.0,0.0,0.0,1.0,0.0,0.0,0.0,1.0,1.149609375,-5.60195068359,9.86388793945,0.1,0.0,0.0,0.0,0.1,0.0,0.0,0.0,0.1
1446035247744825484,166,1446035247742489099,robocape,-32.9758169623,18.3902247061,113.941195291,0.0,10.0,0.0,0.0,0.0,10.0,0.0,0.0,0.0,10.0,-0.215183416078,0.897352129302,-1.06992496794,1.0,0.0,0.0,0.0,1.0,0.0,0.0,0.0,1.0,-0.398770751953,-6.19711303711,7.72992553711,0.1,0.0,0.0,0.0,0.1,0.0,0.0,0.0,0.1
1446035247765428442,167,1446035247763660907,robocape,-34.2101322081,18.2176567842,111.506709464,0.0,10.0,0.0,0.0,0.0,10.0,0.0,0.0,0.0,10.0,-0.248472929704,0.875247892255,-1.76740685743,1.0,0.0,0.0,0.0,1.0,0.0,0.0,0.0,1.0,7.80057861328,-10.6781945801,9.75730957031,0.1,0.0,0.0,0.0,0.1,0.0,0.0,0.0,0.1
1446035247790393984,168,1446035247788640975,robocape,-36.0879083013,18.3402612267,108.591305638,0.0,10.0,0.0,0.0,0.0,10.0,0.0,0.0,0.0,10.0,-0.647947093216,1.49376705543,-1.81481112483,1.0,0.0,0.0,0.0,1.0,0.0,0.0,0.0,1.0,4.9852331543,-7.04015991211,3.76497070313,0.1,0.0,0.0,0.0,0.1,0.0,0.0,0.0,0.1
1446035247816759276,169,1446035247814681053,robocape,-37.1686885478,18.4648462692,105.213352376,0.0,10.0,0.0,0.0,0.0,10.0,0.0,0.0,0.0,10.0,0.214517625806,1.76261316747,-2.06861037672,1.0,0.0,0.0,0.0,1.0,0.0,0.0,0.0,1.0,-0.930465087891,-5.35047363281,11.3188623047,0.1,0.0,0.0,0.0,0.1,0.0,0.0,0.0,0.1
1446035247845156651,170,1446035247842781066,robocape,-37.8548626727,18.6351752185,103.011550137,0.0,10.0,0.0,0.0,0.0,10.0,0.0,0.0,0.0,10.0,0.163251774822,1.27099363024,-1.24822360292,1.0,0.0,0.0,0.0,1.0,0.0,0.0,0.0,1.0,-3.31590454102,-4.90739501953,11.4266381836,0.1,0.0,0.0,0.0,0.1,0.0,0.0,0.0,0.1
1446035247865432067,171,1446035247863662004,robocape,-38.3912926787,18.6428664443,101.605783455,0.0,10.0,0.0,0.0,0.0,10.0,0.0,0.0,0.0,10.0,0.0213052887206,0.70334084389,-0.878044211399,1.0,0.0,0.0,0.0,1.0,0.0,0.0,0.0,1.0,2.20940551758,-0.596359863281,7.51197875977,0.1,0.0,0.0,0.0,0.1,0.0,0.0,0.0,0.1
1446035247890208234,172,1446035247888475894,robocape,-39.293710956,18.5183168279,99.7777284861,0.0,10.0,0.0,0.0,0.0,10.0,0.0,0.0,0.0,10.0,-0.153531236843,0.776710931922,-1.25421571537,1.0,0.0,0.0,0.0,1.0,0.0,0.0,0.0,1.0,5.66182617188,-4.5253894043,5.98395629883,0.1,0.0,0.0,0.0,0.1,0.0,0.0,0.0,0.1
1446035247915969067,173,1446035247914202928,robocape,-40.3619227662,18.535627661,97.9486074109,0.0,10.0,0.0,0.0,0.0,10.0,0.0,0.0,0.0,10.0,-0.300138254852,0.958205360211,-1.10960606818,1.0,0.0,0.0,0.0,1.0,0.0,0.0,0.0,1.0,2.13994995117,-3.50630859375,9.31902099609,0.1,0.0,0.0,0.0,0.1,0.0,0.0,0.0,0.1
1446035247944293192,174,1446035247941812992,robocape,-41.2013875481,18.4397243644,96.5098989405,0.0,10.0,0.0,0.0,0.0,10.0,0.0,0.0,0.0,10.0,-0.236755020908,0.647947093216,-0.964463788772,1.0,0.0,0.0,0.0,1.0,0.0,0.0,0.0,1.0,1.23104003906,-5.22713012695,8.34784057617,0.1,0.0,0.0,0.0,0.1,0.0,0.0,0.0,0.1
1446035247967209651,175,1446035247965259075,robocape,-42.4302194004,18.3206629173,94.9922668896,0.0,10.0,0.0,0.0,0.0,10.0,0.0,0.0,0.0,10.0,-0.553138558409,0.684032925987,-1.0229201747,1.0,0.0,0.0,0.0,1.0,0.0,0.0,0.0,1.0,1.71124145508,-6.08694213867,8.34664306641,0.1,0.0,0.0,0.0,0.1,0.0,0.0,0.0,0.1
1446035247990379443,176,1446035247988614082,robocape,-43.58541389,18.1223765588,92.7912787182,0.0,10.0,0.0,0.0,0.0,10.0,0.0,0.0,0.0,10.0,-0.2631203157,0.999351199052,-1.48910652352,1.0,0.0,0.0,0.0,1.0,0.0,0.0,0.0,1.0,3.9505847168,-6.58869873047,4.40204589844,0.1,0.0,0.0,0.0,0.1,0.0,0.0,0.0,0.1
1446035248015497401,177,1446035248013784885,robocape,-44.5246785171,18.1346432425,90.4768947214,0.0,10.0,0.0,0.0,0.0,10.0,0.0,0.0,0.0,10.0,-0.0412789968962,1.30867735966,-1.3273194873,1.0,0.0,0.0,0.0,1.0,0.0,0.0,0.0,1.0,-2.67763183594,-10.3812121582,11.9870727539,0.1,0.0,0.0,0.0,0.1,0.0,0.0,0.0,0.1
1446035248043582443,178,1446035248041435956,robocape,-44.939795801,18.0582571527,89.0711512307,0.0,10.0,0.0,0.0,0.0,10.0,0.0,0.0,0.0,10.0,0.109455920802,0.719452968485,-0.881373162762,1.0,0.0,0.0,0.0,1.0,0.0,0.0,0.0,1.0,-1.6825012207,-0.752036132813,9.76688964844,0.1,0.0,0.0,0.0,0.1,0.0,0.0,0.0,0.1
1446035248067505151,179,1446035248065572977,robocape,-45.6570047085,17.972581948,87.8930556671,0.0,10.0,0.0,0.0,0.0,10.0,0.0,0.0,0.0,10.0,-0.232760279273,0.589357549235,-0.755006169037,1.0,0.0,0.0,0.0,1.0,0.0,0.0,0.0,1.0,0.446671142578,-6.19232299805,7.57065673828,0.1,0.0,0.0,0.0,0.1,0.0,0.0,0.0,0.1
1446035248090159401,180,1446035248088396072,robocape,-46.4630891392,17.8100805635,86.4406522908,0.0,10.0,0.0,0.0,0.0,10.0,0.0,0.0,0.0,10.0,-0.22290658324,0.684698716259,-0.97977696504,1.0,0.0,0.0,0.0,1.0,0.0,0.0,0.0,1.0,-0.411943359375,-5.61632080078,9.05556884766,0.1,0.0,0.0,0.0,0.1,0.0,0.0,0.0,0.1
1446035248115410859,181,1446035248113643884,robocape,-47.4802481184,17.4629546952,84.7115380956,0.0,10.0,0.0,0.0,0.0,10.0,0.0,0.0,0.0,10.0,-0.325571443262,0.691356618985,-1.31173999492,1.0,0.0,0.0,0.0,1.0,0.0,0.0,0.0,1.0,1.63340332031,-11.6541650391,9.16693725586,0.1,0.0,0.0,0.0,0.1,0.0,0.0,0.0,0.1
1446035248144167109,182,1446035248142261981,robocape,-48.5945215901,17.2719812235,82.6177256688,0.0,10.0,0.0,0.0,0.0,10.0,0.0,0.0,0.0,10.0,-0.304532470651,1.08750183113,-1.33451002224,1.0,0.0,0.0,0.0,1.0,0.0,0.0,0.0,1.0,4.39246582031,-3.70030517578,4.59244995117,0.1,0.0,0.0,0.0,0.1,0.0,0.0,0.0,0.1
1446035248167198484,183,1446035248165215015,robocape,-49.0057525904,17.1278841568,80.9725703002,0.0,10.0,0.0,0.0,0.0,10.0,0.0,0.0,0.0,10.0,0.15965650735,0.876446314745,-1.03144229019,1.0,0.0,0.0,0.0,1.0,0.0,0.0,0.0,1.0,-2.08246948242,-5.94803100586,11.3248498535,0.1,0.0,0.0,0.0,0.1,0.0,0.0,0.0,0.1
1446035248190359943,184,1446035248188532114,robocape,-49.7825094669,16.9493325659,79.5948672389,0.0,10.0,0.0,0.0,0.0,10.0,0.0,0.0,0.0,10.0,-0.248606087759,0.693353989802,-0.91679320526,1.0,0.0,0.0,0.0,1.0,0.0,0.0,0.0,1.0,-0.202379150391,-3.74102050781,8.34065551758,0.1,0.0,0.0,0.0,0.1,0.0,0.0,0.0,0.1
1446035248215944943,185,1446035248214200019,robocape,-50.6302659825,16.7362417022,77.9963672629,0.0,10.0,0.0,0.0,0.0,10.0,0.0,0.0,0.0,10.0,-0.248739245813,0.817723612709,-1.05847337525,1.0,0.0,0.0,0.0,1.0,0.0,0.0,0.0,1.0,1.48251708984,-3.20333862305,8.3574206543,0.1,0.0,0.0,0.0,0.1,0.0,0.0,0.0,0.1
1446035248243122443,186,1446035248241345882,robocape,-51.6984758638,16.2811043838,75.920424412,0.0,10.0,0.0,0.0,0.0,10.0,0.0,0.0,0.0,10.0,-0.309725634776,0.941960077561,-1.5433018517,1.0,0.0,0.0,0.0,1.0,0.0,0.0,0.0,1.0,-1.01668579102,-7.75028320313,10.0159716797,0.1,0.0,0.0,0.0,0.1,0.0,0.0,0.0,0.1
1446035248268311193,187,1446035248266551017,robocape,-52.6758810083,16.0111720995,73.8727510957,0.0,10.0,0.0,0.0,0.0,10.0,0.0,0.0,0.0,10.0,-0.255263990484,1.11120396484,-1.31520210434,1.0,0.0,0.0,0.0,1.0,0.0,0.0,0.0,1.0,-2.34711914063,-5.88935302734,9.63037353516,0.1,0.0,0.0,0.0,0.1,0.0,0.0,0.0,0.1
1446035248290283068,188,1446035248288408041,robocape,-53.3667857498,15.7567470225,72.1242134442,0.0,10.0,0.0,0.0,0.0,10.0,0.0,0.0,0.0,10.0,-0.102531701968,0.950748509158,-1.13397399216,1.0,0.0,0.0,0.0,1.0,0.0,0.0,0.0,1.0,-0.450263671875,-4.9085925293,8.83881958008,0.1,0.0,0.0,0.0,0.1,0.0,0.0,0.0,0.1
1446035248315476318,189,1446035248313705921,robocape,-54.2442692053,15.4757964651,70.2833000101,0.0,10.0,0.0,0.0,0.0,10.0,0.0,0.0,0.0,10.0,-0.24953819414,1.01213437228,-1.19322932641,1.0,0.0,0.0,0.0,1.0,0.0,0.0,0.0,1.0,-0.598754882812,-3.60450439453,10.0638720703,0.1,0.0,0.0,0.0,0.1,0.0,0.0,0.0,0.1
1446035248342551609,190,1446035248340773105,robocape,-55.5276562962,14.9812349445,68.0087191115,0.0,10.0,0.0,0.0,0.0,10.0,0.0,0.0,0.0,10.0,-0.500940601044,1.17818246625,-1.60375560845,1.0,0.0,0.0,0.0,1.0,0.0,0.0,0.0,1.0,5.2151550293,-3.38895263672,5.20437744141,0.1,0.0,0.0,0.0,0.1,0.0,0.0,0.0,0.1
1446035248369663276,191,1446035248367407083,robocape,-56.4252114951,14.2302908527,65.3527633836,0.0,10.0,0.0,0.0,0.0,10.0,0.0,0.0,0.0,10.0,-0.0952080089703,1.30747893717,-2.01974137072,1.0,0.0,0.0,0.0,1.0,0.0,0.0,0.0,1.0,-2.30640380859,-17.0788842773,9.48786987305,0.1,0.0,0.0,0.0,0.1,0.0,0.0,0.0,0.1
1446035248393208234,192,1446035248390957117,robocape,-57.3449221228,13.8199027333,62.5957395123,0.0,10.0,0.0,0.0,0.0,10.0,0.0,0.0,0.0,10.0,-0.121706461817,1.65728514636,-1.68391675726,1.0,0.0,0.0,0.0,1.0,0.0,0.0,0.0,1.0,-3.42487792969,-8.88552246094,12.0002453613,0.1,0.0,0.0,0.0,0.1,0.0,0.0,0.0,0.1
1446035248416883068,193,1446035248413669109,robocape,-57.5454802029,13.4371899193,60.5503483178,0.0,10.0,0.0,0.0,0.0,10.0,0.0,0.0,0.0,10.0,0.313454060302,1.19709090999,-1.31573473655,1.0,0.0,0.0,0.0,1.0,0.0,0.0,0.0,1.0,-0.609532470703,-2.6476940918,8.77774658203,0.1,0.0,0.0,0.0,0.1,0.0,0.0,0.0,0.1
1446035248441573151,194,1446035248439804077,robocape,-58.0096857655,12.949446648,58.6680274883,0.0,10.0,0.0,0.0,0.0,10.0,0.0,0.0,0.0,10.0,0.0278300333913,1.02917860326,-1.33917055415,1.0,0.0,0.0,0.0,1.0,0.0,0.0,0.0,1.0,1.15799194336,-2.57225097656,8.97773071289,0.1,0.0,0.0,0.0,0.1,0.0,0.0,0.0,0.1
1446035248471024693,195,1446035248468960046,robocape,-58.850073052,12.4486642362,56.799398701,0.0,10.0,0.0,0.0,0.0,10.0,0.0,0.0,0.0,10.0,-0.322109333845,1.03543703182,-1.32931685811,1.0,0.0,0.0,0.0,1.0,0.0,0.0,0.0,1.0,-0.256267089844,-2.58302856445,10.8386608887,0.1,0.0,0.0,0.0,0.1,0.0,0.0,0.0,0.1
1446035248490332276,196,1446035248488497018,robocape,-59.7801314175,11.7569691739,55.0063000432,0.0,10.0,0.0,0.0,0.0,10.0,0.0,0.0,0.0,10.0,-0.438089999318,0.898284235684,-1.46420596733,1.0,0.0,0.0,0.0,1.0,0.0,0.0,0.0,1.0,0.111368408203,-2.5327331543,7.39821533203,0.1,0.0,0.0,0.0,0.1,0.0,0.0,0.0,0.1
1446035248515164318,197,1446035248513380050,robocape,-60.8618839833,11.1039067248,53.1160478995,0.0,10.0,0.0,0.0,0.0,10.0,0.0,0.0,0.0,10.0,-0.574976479348,1.03011070964,-1.43997120141,1.0,0.0,0.0,0.0,1.0,0.0,0.0,0.0,1.0,0.461041259766,-7.00662963867,9.53098022461,0.1,0.0,0.0,0.0,0.1,0.0,0.0,0.0,0.1
1446035248541223943,198,1446035248539433956,robocape,-61.9367735515,10.7000780361,51.6011434067,0.0,10.0,0.0,0.0,0.0,10.0,0.0,0.0,0.0,10.0,-0.657667631195,0.918391101914,-1.01466437532,1.0,0.0,0.0,0.0,1.0,0.0,0.0,0.0,1.0,-0.444276123047,-4.59244995117,7.77064086914,0.1,0.0,0.0,0.0,0.1,0.0,0.0,0.0,0.1
1446035248570062568,199,1446035248568099975,robocape,-62.7461724485,10.2857031261,50.3285598064,0.0,10.0,0.0,0.0,0.0,10.0,0.0,0.0,0.0,10.0,-0.480700576759,0.750745111293,-0.910135302535,1.0,0.0,0.0,0.0,1.0,0.0,0.0,0.0,1.0,2.87522094727,-8.03289550781,7.81734375,0.1,0.0,0.0,0.0,0.1,0.0,0.0,0.0,0.1
1446035248591553526,200,1446035248589787006,robocape,-63.1524348027,9.80885014729,48.9496604483,0.0,10.0,0.0,0.0,0.0,10.0,0.0,0.0,0.0,10.0,-0.121573303762,0.814927293564,-1.00015014738,1.0,0.0,0.0,0.0,1.0,0.0,0.0,0.0,1.0,3.99369506836,-9.16334472656,7.16110839844,0.1,0.0,0.0,0.0,0.1,0.0,0.0,0.0,0.1
1446035248615143609,201,1446035248613385915,robocape,-63.2409686977,9.22751160478,47.6716970888,0.0,10.0,0.0,0.0,0.0,10.0,0.0,0.0,0.0,10.0,0.126100677615,0.696949257274,-1.05234810474,1.0,0.0,0.0,0.0,1.0,0.0,0.0,0.0,1.0,0.595162353516,-4.79243408203,7.8209362793,0.1,0.0,0.0,0.0,0.1,0.0,0.0,0.0,0.1
1446035248640814068,202,1446035248639034032,robocape,-63.5127251271,8.88806614851,46.4653024522,0.0,10.0,0.0,0.0,0.0,10.0,0.0,0.0,0.0,10.0,-0.0553937506736,0.765525655343,-0.786964102118,1.0,0.0,0.0,0.0,1.0,0.0,0.0,0.0,1.0,1.86212768555,-3.99848510742,7.09883789063,0.1,0.0,0.0,0.0,0.1,0.0,0.0,0.0,0.1
1446035248669180901,203,1446035248667342901,robocape,-64.011845685,8.31213603054,45.2605500893,0.0,10.0,0.0,0.0,0.0,10.0,0.0,0.0,0.0,10.0,-0.264052422081,0.663260269484,-1.0006827796,1.0,0.0,0.0,0.0,1.0,0.0,0.0,0.0,1.0,3.20932617188,-6.61863647461,8.47597412109,0.1,0.0,0.0,0.0,0.1,0.0,0.0,0.0,0.1
1446035248693958318,204,1446035248688972949,robocape,-64.2710721097,7.85381462355,43.9817926909,0.0,10.0,0.0,0.0,0.0,10.0,0.0,0.0,0.0,10.0,-0.0560595409462,0.785499363519,-0.908137931717,1.0,0.0,0.0,0.0,1.0,0.0,0.0,0.0,1.0,0.579594726562,-6.39470214844,8.16821411133,0.1,0.0,0.0,0.0,0.1,0.0,0.0,0.0,0.1
1446035248717966151,205,1446035248716048002,robocape,-64.5000406155,7.53139556449,42.8250337484,0.0,10.0,0.0,0.0,0.0,10.0,0.0,0.0,0.0,10.0,-0.0539290120741,0.757802488182,-0.729972454791,1.0,0.0,0.0,0.0,1.0,0.0,0.0,0.0,1.0,4.18290161133,-5.5217175293,7.90955200195,0.1,0.0,0.0,0.0,0.1,0.0,0.0,0.0,0.1
1446035248741536610,206,1446035248739749908,robocape,-64.7780694117,7.06021813729,41.7462412347,0.0,10.0,0.0,0.0,0.0,10.0,0.0,0.0,0.0,10.0,-0.11411645271,0.637827081074,-0.831838366486,1.0,0.0,0.0,0.0,1.0,0.0,0.0,0.0,1.0,1.87889282227,-4.63436279297,8.96934814453,0.1,0.0,0.0,0.0,0.1,0.0,0.0,0.0,0.1
1446035248768353443,207,1446035248766577959,robocape,-65.2742130089,6.59282228487,40.7216221437,0.0,10.0,0.0,0.0,0.0,10.0,0.0,0.0,0.0,10.0,-0.319313014701,0.605869147993,-0.799880433405,1.0,0.0,0.0,0.0,1.0,0.0,0.0,0.0,1.0,1.3064831543,-6.62701904297,8.05684570313,0.1,0.0,0.0,0.0,0.1,0.0,0.0,0.0,0.1
1446035248790972943,208,1446035248789256095,robocape,-65.607934634,6.04611840575,39.7726373044,0.0,10.0,0.0,0.0,0.0,10.0,0.0,0.0,0.0,10.0,-0.194277601521,0.522645363928,-0.835167317849,1.0,0.0,0.0,0.0,1.0,0.0,0.0,0.0,1.0,-0.813109130859,-6.67851196289,8.58375,0.1,0.0,0.0,0.0,0.1,0.0,0.0,0.0,0.1
1446035248815520360,209,1446035248813565015,robocape,-65.8207771945,5.45255258454,38.6460836659,0.0,10.0,0.0,0.0,0.0,10.0,0.0,0.0,0.0,10.0,-0.0816258874109,0.652074992906,-0.931840065419,1.0,0.0,0.0,0.0,1.0,0.0,0.0,0.0,1.0,0.913699951172,-8.26401489258,8.21611450195,0.1,0.0,0.0,0.0,0.1,0.0,0.0,0.0,0.1
1446035248840419776,210,1446035248838644981,robocape,-65.9554619367,4.97972740124,37.552923337,0.0,10.0,0.0,0.0,0.0,10.0,0.0,0.0,0.0,10.0,-0.0263652947918,0.679905026297,-0.805473071694,1.0,0.0,0.0,0.0,1.0,0.0,0.0,0.0,1.0,0.929267578125,-3.77215576172,9.40284667969,0.1,0.0,0.0,0.0,0.1,0.0,0.0,0.0,0.1
1446035248869045318,211,1446035248867348909,robocape,-66.163441604,4.53803113839,36.5737310175,0.0,10.0,0.0,0.0,0.0,10.0,0.0,0.0,0.0,10.0,-0.10732539193,0.606401780211,-0.732102983663,1.0,0.0,0.0,0.0,1.0,0.0,0.0,0.0,1.0,2.34711914063,-5.37442382813,7.40779541016,0.1,0.0,0.0,0.0,0.1,0.0,0.0,0.0,0.1
1446035248891973026,212,1446035248890173912,robocape,-66.4092147579,4.06434527075,35.5975267032,0.0,10.0,0.0,0.0,0.0,10.0,0.0,0.0,0.0,10.0,-0.147938598554,0.596947558341,-0.752875640165,1.0,0.0,0.0,0.0,1.0,0.0,0.0,0.0,1.0,0.750838623047,-5.7516394043,8.70110595703,0.1,0.0,0.0,0.0,0.1,0.0,0.0,0.0,0.1
1446035248915608943,213,1446035248913650989,robocape,-66.6227681423,3.61515326341,34.7039111195,0.0,10.0,0.0,0.0,0.0,10.0,0.0,0.0,0.0,10.0,-0.132225948122,0.545415391248,-0.696949257274,1.0,0.0,0.0,0.0,1.0,0.0,0.0,0.0,1.0,2.65248413086,-6.64857421875,8.68194580078,0.1,0.0,0.0,0.0,0.1,0.0,0.0,0.0,0.1
1446035248941017485,214,1446035248938740968,robocape,-66.8407012227,3.06000171059,33.8801234706,0.0,10.0,0.0,0.0,0.0,10.0,0.0,0.0,0.0,10.0,-0.147006492172,0.455400546404,-0.757536172073,1.0,0.0,0.0,0.0,1.0,0.0,0.0,0.0,1.0,-0.801134033203,-8.51309692383,7.8137512207,0.1,0.0,0.0,0.0,0.1,0.0,0.0,0.0,0.1
1446035248967382151,215,1446035248965415000,robocape,-66.9025309731,2.66298040541,33.0221592299,0.0,10.0,0.0,0.0,0.0,10.0,0.0,0.0,0.0,10.0,-0.015579492377,0.544083810703,-0.629837597804,1.0,0.0,0.0,0.0,1.0,0.0,0.0,0.0,1.0,0.874182128906,-5.9815612793,8.7753515625,0.1,0.0,0.0,0.0,0.1,0.0,0.0,0.0,0.1
1446035248995761610,216,1446035248993871927,robocape,-66.9856386495,2.34019824307,32.227242496,0.0,10.0,0.0,0.0,0.0,10.0,0.0,0.0,0.0,10.0,-0.0415453130052,0.52211273171,-0.542885388213,1.0,0.0,0.0,0.0,1.0,0.0,0.0,0.0,1.0,2.42495727539,-7.12039306641,7.4760534668,0.1,0.0,0.0,0.0,0.1,0.0,0.0,0.0,0.1
1446035249015402276,217,1446035249013741970,robocape,-67.1926446014,1.96716225805,31.4881925033,0.0,10.0,0.0,0.0,0.0,10.0,0.0,0.0,0.0,10.0,-0.155928081824,0.46179213302,-0.562859096388,1.0,0.0,0.0,0.0,1.0,0.0,0.0,0.0,1.0,2.1842578125,-5.19838989258,9.0052734375,0.1,0.0,0.0,0.0,0.1,0.0,0.0,0.0,0.1
1446035249040666651,218,1446035249038893938,robocape,-67.3596317092,1.54810511957,30.8059121747,0.0,10.0,0.0,0.0,0.0,10.0,0.0,0.0,0.0,10.0,-0.127165942051,0.403069430983,-0.578172272656,1.0,0.0,0.0,0.0,1.0,0.0,0.0,0.0,1.0,-0.368833007813,-4.34935546875,6.91561889648,0.1,0.0,0.0,0.0,0.1,0.0,0.0,0.0,0.1
1446035249066747276,219,1446035249064853906,robocape,-67.4085284938,1.0402475394,30.0152511543,0.0,10.0,0.0,0.0,0.0,10.0,0.0,0.0,0.0,10.0,-0.0268979270098,0.462324765238,-0.684032925987,1.0,0.0,0.0,0.0,1.0,0.0,0.0,0.0,1.0,0.367635498047,-5.87498291016,8.03050048828,0.1,0.0,0.0,0.0,0.1,0.0,0.0,0.0,0.1
1446035249093551776,220,1446035249091335058,robocape,-67.5596538982,0.69607177817,29.2318594809,0.0,10.0,0.0,0.0,0.0,10.0,0.0,0.0,0.0,10.0,-0.121440145708,0.514655880658,-0.543551178485,1.0,0.0,0.0,0.0,1.0,0.0,0.0,0.0,1.0,0.813109130859,-5.45465698242,9.8064074707,0.1,0.0,0.0,0.0,0.1,0.0,0.0,0.0,0.1
1446035249116946443,221,1446035249114711999,robocape,-67.6291769734,0.302170604032,28.4018762804,0.0,10.0,0.0,0.0,0.0,10.0,0.0,0.0,0.0,10.0,-0.0543284862376,0.537425907978,-0.596681242232,1.0,0.0,0.0,0.0,1.0,0.0,0.0,0.0,1.0,-0.445473632813,-6.37434448242,7.52874389648,0.1,0.0,0.0,0.0,0.1,0.0,0.0,0.0,0.1
1446035249140600526,222,1446035249138761043,robocape,-67.8666216778,-9.75019764221e-05,27.6444708518,0.0,10.0,0.0,0.0,0.0,10.0,0.0,0.0,0.0,10.0,-0.2054628781,0.511593245404,-0.495081646646,1.0,0.0,0.0,0.0,1.0,0.0,0.0,0.0,1.0,-0.213156738281,-6.13843505859,8.73703125,0.1,0.0,0.0,0.0,0.1,0.0,0.0,0.0,0.1
1446035249166009151,223,1446035249164248943,robocape,-68.1590308088,-0.243776881736,27.0220205307,0.0,10.0,0.0,0.0,0.0,10.0,0.0,0.0,0.0,10.0,-0.25632925492,0.42424156165,-0.400139953784,1.0,0.0,0.0,0.0,1.0,0.0,0.0,0.0,1.0,-0.694555664063,-6.12047241211,8.61009521484,0.1,0.0,0.0,0.0,0.1,0.0,0.0,0.0,0.1
1446035249194386235,224,1446035249192435026,robocape,-68.3971238365,-0.516351486853,26.6380284261,0.0,10.0,0.0,0.0,0.0,10.0,0.0,0.0,0.0,10.0,-0.209990251953,0.223838689621,-0.34354778062,1.0,0.0,0.0,0.0,1.0,0.0,0.0,0.0,1.0,-3.39733520508,-6.48092285156,6.55516845703,0.1,0.0,0.0,0.0,0.1,0.0,0.0,0.0,0.1
1446035249217343526,225,1446035249215049982,robocape,-68.7634930229,-0.635092777913,26.135072738,0.0,10.0,0.0,0.0,0.0,10.0,0.0,0.0,0.0,10.0,-0.324106704663,0.371111497903,-0.255796622702,1.0,0.0,0.0,0.0,1.0,0.0,0.0,0.0,1.0,-0.168848876953,-6.81263305664,7.37067260742,0.1,0.0,0.0,0.0,0.1,0.0,0.0,0.0,0.1
1446035249240341026,226,1446035249238538980,robocape,-68.7643704384,-0.836077956132,25.629661973,0.0,10.0,0.0,0.0,0.0,10.0,0.0,0.0,0.0,10.0,-0.00639158661619,0.348341470582,-0.321177227464,1.0,0.0,0.0,0.0,1.0,0.0,0.0,0.0,1.0,-1.94475585938,-6.83179321289,8.42448120117,0.1,0.0,0.0,0.0,0.1,0.0,0.0,0.0,0.1
1446035249265896985,227,1446035249263962030,robocape,-68.7981383744,-0.872814688157,25.2823064883,0.0,10.0,0.0,0.0,0.0,10.0,0.0,0.0,0.0,10.0,-0.0339553038985,0.27110979897,-0.139150166957,1.0,0.0,0.0,0.0,1.0,0.0,0.0,0.0,1.0,0.299377441406,-5.24269775391,7.71316040039,0.1,0.0,0.0,0.0,0.1,0.0,0.0,0.0,0.1
1446035249293280068,228,1446035249291111946,robocape,-68.852604166,-0.941450659261,25.0389534722,0.0,10.0,0.0,0.0,0.0,10.0,0.0,0.0,0.0,10.0,-0.0508663768205,0.176700738327,-0.131693315904,1.0,0.0,0.0,0.0,1.0,0.0,0.0,0.0,1.0,3.19615356445,-5.71451660156,7.79339355469,0.1,0.0,0.0,0.0,0.1,0.0,0.0,0.0,0.1
1446035249316685901,229,1446035249314873933,robocape,-68.9358079982,-1.08378030438,24.7801397614,0.0,10.0,0.0,0.0,0.0,10.0,0.0,0.0,0.0,10.0,-0.0765658813398,0.166713884239,-0.195209707903,1.0,0.0,0.0,0.0,1.0,0.0,0.0,0.0,1.0,-0.0167651367188,-6.90484130859,8.57656494141,0.1,0.0,0.0,0.0,0.1,0.0,0.0,0.0,0.1
1446035249340393026,230,1446035249338629007,robocape,-68.9901954542,-1.19000862278,24.503941035,0.0,10.0,0.0,0.0,0.0,10.0,0.0,0.0,0.0,10.0,-0.0521979573656,0.192280230704,-0.171374416147,1.0,0.0,0.0,0.0,1.0,0.0,0.0,0.0,1.0,-1.11368408203,-6.3958996582,7.23056396484,0.1,0.0,0.0,0.0,0.1,0.0,0.0,0.0,0.1
1446035249365714610,231,1446035249363922119,robocape,-68.988078482,-1.2842525746,24.261995133,0.0,10.0,0.0,0.0,0.0,10.0,0.0,0.0,0.0,10.0,-0.00266316109008,0.168178622839,-0.150868075753,1.0,0.0,0.0,0.0,1.0,0.0,0.0,0.0,1.0,2.09803710938,-7.89158935547,9.04838378906,0.1,0.0,0.0,0.0,0.1,0.0,0.0,0.0,0.1
1446035249393564985,232,1446035249391782999,robocape,-68.8668732139,-1.47906412713,24.0229451326,0.0,10.0,0.0,0.0,0.0,10.0,0.0,0.0,0.0,10.0,0.100800647259,0.134889109213,-0.229963960128,1.0,0.0,0.0,0.0,1.0,0.0,0.0,0.0,1.0,2.9542565918,-6.35039428711,6.38631958008,0.1,0.0,0.0,0.0,0.1,0.0,0.0,0.0,0.1
1446035249418377235,233,1446035249416506052,robocape,-68.7831308016,-1.65410688307,23.7072411254,0.0,10.0,0.0,0.0,0.0,10.0,0.0,0.0,0.0,10.0,0.0656469208705,0.203066033119,-0.238219759508,1.0,0.0,0.0,0.0,1.0,0.0,0.0,0.0,1.0,1.74237670898,-6.81622558594,8.91186767578,0.1,0.0,0.0,0.0,0.1,0.0,0.0,0.0,0.1
1446035249440582068,234,1446035249438633918,robocape,-68.6453852746,-1.97615310753,23.4052394297,0.0,10.0,0.0,0.0,0.0,10.0,0.0,0.0,0.0,10.0,0.111985923838,0.146473859954,-0.349673051127,1.0,0.0,0.0,0.0,1.0,0.0,0.0,0.0,1.0,0.622705078125,-5.31814086914,8.28796508789,0.1,0.0,0.0,0.0,0.1,0.0,0.0,0.0,0.1
1446035249465808652,235,1446035249464057922,robocape,-68.5097828565,-2.40350014619,23.0241241297,0.0,10.0,0.0,0.0,0.0,10.0,0.0,0.0,0.0,10.0,0.105860653331,0.178032318872,-0.456199494731,1.0,0.0,0.0,0.0,1.0,0.0,0.0,0.0,1.0,0.626297607422,-3.86915405273,8.60889770508,0.1,0.0,0.0,0.0,0.1,0.0,0.0,0.0,0.1
1446035249490449152,236,1446035249488661050,robocape,-68.3782437791,-3.05784489793,22.3553767206,0.0,10.0,0.0,0.0,0.0,10.0,0.0,0.0,0.0,10.0,0.0876179998636,0.341550409803,-0.722116129575,1.0,0.0,0.0,0.0,1.0,0.0,0.0,0.0,1.0,1.99385375977,-7.83051635742,8.24844726562,0.1,0.0,0.0,0.0,0.1,0.0,0.0,0.0,0.1
1446035249515448693,237,1446035249513763904,robocape,-68.1977885397,-3.54131839393,21.5635885751,0.0,10.0,0.0,0.0,0.0,10.0,0.0,0.0,0.0,10.0,0.118776984618,0.492951117774,-0.626908120605,1.0,0.0,0.0,0.0,1.0,0.0,0.0,0.0,1.0,-0.0467028808594,-5.12055175781,9.94891113281,0.1,0.0,0.0,0.0,0.1,0.0,0.0,0.0,0.1
1446035249542158068,238,1446035249540343046,robocape,-68.2713357189,-4.03918442441,20.837373702,0.0,10.0,0.0,0.0,0.0,10.0,0.0,0.0,0.0,10.0,-0.104795388895,0.435693154337,-0.614391263481,1.0,0.0,0.0,0.0,1.0,0.0,0.0,0.0,1.0,3.81047607422,-3.42847045898,7.94308227539,0.1,0.0,0.0,0.0,0.1,0.0,0.0,0.0,0.1
1446035249570872610,239,1446035249567922115,robocape,-68.4422976307,-4.44967776894,20.0679522829,0.0,10.0,0.0,0.0,0.0,10.0,0.0,0.0,0.0,10.0,-0.19720707872,0.498943230226,-0.55846488059,1.0,0.0,0.0,0.0,1.0,0.0,0.0,0.0,1.0,3.11711791992,-4.10985351563,8.27119995117,0.1,0.0,0.0,0.0,0.1,0.0,0.0,0.0,0.1
1446035249590365610,240,1446035249588593006,robocape,-68.5376384873,-5.07015225629,19.4352158636,0.0,10.0,0.0,0.0,0.0,10.0,0.0,0.0,0.0,10.0,-0.127299100106,0.327701972134,-0.6696518561,1.0,0.0,0.0,0.0,1.0,0.0,0.0,0.0,1.0,-0.391585693359,-6.95393920898,8.04966064453,0.1,0.0,0.0,0.0,0.1,0.0,0.0,0.0,0.1
1446035249615802485,241,1446035249614031076,robocape,-68.6012090895,-5.45623672769,18.6141295038,0.0,10.0,0.0,0.0,0.0,10.0,0.0,0.0,0.0,10.0,-0.118510668509,0.550874871483,-0.550075923156,1.0,0.0,0.0,0.0,1.0,0.0,0.0,0.0,1.0,3.09077270508,-7.64609985352,9.33219360352,0.1,0.0,0.0,0.0,0.1,0.0,0.0,0.0,0.1
1446035249641182152,242,1446035249639394044,robocape,-68.5744393686,-5.81879238485,18.0710003182,0.0,10.0,0.0,0.0,0.0,10.0,0.0,0.0,0.0,10.0,-0.0211721306661,0.333294610423,-0.442617373171,1.0,0.0,0.0,0.0,1.0,0.0,0.0,0.0,1.0,2.55069580078,-3.86915405273,7.22098388672,0.1,0.0,0.0,0.0,0.1,0.0,0.0,0.0,0.1
1446035249668480152,243,1446035249666152000,robocape,-68.6782693288,-6.26518527643,17.4576299356,0.0,10.0,0.0,0.0,0.0,10.0,0.0,0.0,0.0,10.0,-0.144343331082,0.36631780794,-0.525308525018,1.0,0.0,0.0,0.0,1.0,0.0,0.0,0.0,1.0,1.80344970703,-7.51197875977,7.23056396484,0.1,0.0,0.0,0.0,0.1,0.0,0.0,0.0,0.1
1446035249694901027,244,1446035249689994096,robocape,-68.7825311985,-6.59549646591,16.908028055,0.0,10.0,0.0,0.0,0.0,10.0,0.0,0.0,0.0,10.0,-0.142079644156,0.349406735018,-0.417051026706,1.0,0.0,0.0,0.0,1.0,0.0,0.0,0.0,1.0,1.15080688477,-5.50974243164,8.85079467773,0.1,0.0,0.0,0.0,0.1,0.0,0.0,0.0,0.1
1446035249719646610,245,1446035249716556072,robocape,-68.876756526,-7.12576360417,16.3538126944,0.0,10.0,0.0,0.0,0.0,10.0,0.0,0.0,0.0,10.0,-0.137019638085,0.297075619598,-0.563524886661,1.0,0.0,0.0,0.0,1.0,0.0,0.0,0.0,1.0,2.45010498047,-9.60522583008,7.82812133789,0.1,0.0,0.0,0.0,0.1,0.0,0.0,0.0,0.1
1446035249741801360,246,1446035249740025997,robocape,-68.7609347117,-7.38681841282,15.8339638393,0.0,10.0,0.0,0.0,0.0,10.0,0.0,0.0,0.0,10.0,0.0468716351854,0.345944625601,-0.353800950817,1.0,0.0,0.0,0.0,1.0,0.0,0.0,0.0,1.0,1.18553466797,-8.42448120117,7.6640625,0.1,0.0,0.0,0.0,0.1,0.0,0.0,0.0,0.1
1446035249769315027,247,1446035249766838073,robocape,-68.8135221023,-7.57172131697,15.5294513587,0.0,10.0,0.0,0.0,0.0,10.0,0.0,0.0,0.0,10.0,-0.0785632521573,0.193478653194,-0.230363434292,1.0,0.0,0.0,0.0,1.0,0.0,0.0,0.0,1.0,1.61903320313,-4.48467407227,7.39462280273,0.1,0.0,0.0,0.0,0.1,0.0,0.0,0.0,0.1
1446035249791536402,248,1446035249789755105,robocape,-68.8592207404,-7.80845440458,15.1782519301,0.0,10.0,0.0,0.0,0.0,10.0,0.0,0.0,0.0,10.0,-0.0785632521573,0.216781312732,-0.282161917494,1.0,0.0,0.0,0.0,1.0,0.0,0.0,0.0,1.0,1.83099243164,-6.60666137695,7.18386108398,0.1,0.0,0.0,0.0,0.1,0.0,0.0,0.0,0.1
1446035249815281235,249,1446035249813519001,robocape,-69.0949449611,-7.9350108124,14.9699365963,0.0,10.0,0.0,0.0,0.0,10.0,0.0,0.0,0.0,10.0,-0.229165011801,0.132891738395,-0.156727030151,1.0,0.0,0.0,0.0,1.0,0.0,0.0,0.0,1.0,1.41066650391,-5.25946289063,8.19096679688,0.1,0.0,0.0,0.0,0.1,0.0,0.0,0.0,0.1
1446035249840974068,250,1446035249839046001,robocape,-69.1032435544,-8.21762747225,14.6702556767,0.0,10.0,0.0,0.0,0.0,10.0,0.0,0.0,0.0,10.0,-0.0418116291142,0.16378440704,-0.297741409871,1.0,0.0,0.0,0.0,1.0,0.0,0.0,0.0,1.0,1.91841064453,-8.52746704102,7.21379882813,0.1,0.0,0.0,0.0,0.1,0.0,0.0,0.0,0.1
1446035249869321110,251,1446035249867274999,robocape,-69.1082327412,-8.23037231358,14.5655103341,0.0,10.0,0.0,0.0,0.0,10.0,0.0,0.0,0.0,10.0,-0.016644756813,0.0810932551929,-0.0415453130052,1.0,0.0,0.0,0.0,1.0,0.0,0.0,0.0,1.0,1.95553344727,-8.16821411133,8.06283325195,0.1,0.0,0.0,0.0,0.1,0.0,0.0,0.0,0.1
1446035249891914652,252,1446035249890068054,robocape,-69.0069699164,-8.35714481503,14.3925433452,0.0,10.0,0.0,0.0,0.0,10.0,0.0,0.0,0.0,10.0,0.067910607797,0.104529072786,-0.145275437464,1.0,0.0,0.0,0.0,1.0,0.0,0.0,0.0,1.0,1.55915771484,-5.79474975586,7.78141845703,0.1,0.0,0.0,0.0,0.1,0.0,0.0,0.0,0.1
1446035249915478068,253,1446035249913652896,robocape,-69.0200279011,-8.39835494216,14.3318502535,0.0,10.0,0.0,0.0,0.0,10.0,0.0,0.0,0.0,10.0,-0.0186421276306,0.0375505713701,-0.0486026898939,1.0,0.0,0.0,0.0,1.0,0.0,0.0,0.0,1.0,1.5328125,-6.92879150391,7.42216552734,0.1,0.0,0.0,0.0,0.1,0.0,0.0,0.0,0.1
1446035249940805443,254,1446035249938992977,robocape,-69.0076254141,-8.34309542928,14.3549745143,0.0,10.0,0.0,0.0,0.0,10.0,0.0,0.0,0.0,10.0,0.0135821215594,-0.0033289513626,0.0471379512944,1.0,0.0,0.0,0.0,1.0,0.0,0.0,0.0,1.0,1.43222167969,-6.17196533203,7.85686157227,0.1,0.0,0.0,0.0,0.1,0.0,0.0,0.0,0.1
1446035249967865402,255,1446035249966080904,robocape,-69.0483991081,-8.24312533078,14.4205184928,0.0,10.0,0.0,0.0,0.0,10.0,0.0,0.0,0.0,10.0,-0.0278300333913,-0.0251668723012,0.0926780059348,1.0,0.0,0.0,0.0,1.0,0.0,0.0,0.0,1.0,0.849034423828,-6.43302246094,8.12869628906,0.1,0.0,0.0,0.0,0.1,0.0,0.0,0.0,0.1
1446035249993869152,256,1446035249991993904,robocape,-69.0681738647,-8.11736831509,14.4907693687,0.0,10.0,0.0,0.0,0.0,10.0,0.0,0.0,0.0,10.0,-0.00905474770627,-0.0218379209386,0.112918030219,1.0,0.0,0.0,0.0,1.0,0.0,0.0,0.0,1.0,0.334105224609,-6.15520019531,8.24964477539,0.1,0.0,0.0,0.0,0.1,0.0,0.0,0.0,0.1
1446035250015367485,257,1446035250013416051,robocape,-69.1021787811,-8.02651665255,14.5448823312,0.0,10.0,0.0,0.0,0.0,10.0,0.0,0.0,0.0,10.0,-0.0234358175927,-0.0185089695761,0.082691151847,1.0,0.0,0.0,0.0,1.0,0.0,0.0,0.0,1.0,-0.0419128417969,-6.2881237793,8.24006469727,0.1,0.0,0.0,0.0,0.1,0.0,0.0,0.0,0.1
1446035250040627985,258,1446035250038871049,robocape,-69.1152809101,-7.95943674372,14.5715363376,0.0,10.0,0.0,0.0,0.0,10.0,0.0,0.0,0.0,10.0,-0.00838895743375,-0.00292947719909,0.0569916473277,1.0,0.0,0.0,0.0,1.0,0.0,0.0,0.0,1.0,-0.0203576660156,-6.40547973633,8.21611450195,0.1,0.0,0.0,0.0,0.1,0.0,0.0,0.0,0.1
1446035250068285318,259,1446035250066545963,robocape,-69.1149818857,-7.94735112189,14.5598723479,0.0,10.0,0.0,0.0,0.0,10.0,0.0,0.0,0.0,10.0,-0.00106526443603,0.0127831732324,0.00519316412565,1.0,0.0,0.0,0.0,1.0,0.0,0.0,0.0,1.0,0.124541015625,-6.3264440918,8.21252197266,0.1,0.0,0.0,0.0,0.1,0.0,0.0,0.0,0.1
1446035250094622277,260,1446035250092235088,robocape,-69.1036941857,-7.95165078522,14.537640005,0.0,10.0,0.0,0.0,0.0,10.0,0.0,0.0,0.0,10.0,0.00732369299772,0.0167779148675,-0.0099868540878,1.0,0.0,0.0,0.0,1.0,0.0,0.0,0.0,1.0,0.282612304688,-6.52044067383,8.13109130859,0.1,0.0,0.0,0.0,0.1,0.0,0.0,0.0,0.1
1446035250115362235,261,1446035250113569974,robocape,-69.0813350621,-7.95742455098,14.5124259807,0.0,10.0,0.0,0.0,0.0,10.0,0.0,0.0,0.0,10.0,0.016644756813,0.0187752856851,-0.0119842249054,1.0,0.0,0.0,0.0,1.0,0.0,0.0,0.0,1.0,0.489781494141,-6.30129638672,8.09756103516,0.1,0.0,0.0,0.0,0.1,0.0,0.0,0.0,0.1
1446035250140878110,262,1446035250139097929,robocape,-69.0706563847,-7.9513303487,14.4972221859,0.0,10.0,0.0,0.0,0.0,10.0,0.0,0.0,0.0,10.0,0.00759000910673,0.0139815957229,-0.000266316109008,1.0,0.0,0.0,0.0,1.0,0.0,0.0,0.0,1.0,0.584384765625,-6.50367553711,8.06642578125,0.1,0.0,0.0,0.0,0.1,0.0,0.0,0.0,0.1
1446035250167249652,263,1446035250165484905,robocape,-69.0598645528,-7.9285489793,14.4940253773,0.0,10.0,0.0,0.0,0.0,10.0,0.0,0.0,0.0,10.0,0.00905474770627,0.00892158965177,0.015579492377,1.0,0.0,0.0,0.0,1.0,0.0,0.0,0.0,1.0,0.560434570312,-6.38631958008,8.10833862305,0.1,0.0,0.0,0.0,0.1,0.0,0.0,0.0,0.1
1446035250193479235,264,1446035250191041946,robocape,-69.0524054377,-7.90587153773,14.490633253,0.0,10.0,0.0,0.0,0.0,10.0,0.0,0.0,0.0,10.0,0.00612527050718,0.00905474770627,0.0154463343225,1.0,0.0,0.0,0.0,1.0,0.0,0.0,0.0,1.0,0.320932617188,-6.41505981445,8.10714111328,0.1,0.0,0.0,0.0,0.1,0.0,0.0,0.0,0.1
1446035250218883235,265,1446035250215477943,robocape,-69.0461946245,-7.88548143647,14.4874456907,0.0,10.0,0.0,0.0,0.0,10.0,0.0,0.0,0.0,10.0,0.00506000607115,0.00825579937925,0.0138484376684,1.0,0.0,0.0,0.0,1.0,0.0,0.0,0.0,1.0,0.382005615234,-6.45338012695,8.15025146484,0.1,0.0,0.0,0.0,0.1,0.0,0.0,0.0,0.1
1446035250240650277,266,1446035250238858938,robocape,-69.0325060484,-7.87080881808,14.4783357294,0.0,10.0,0.0,0.0,0.0,10.0,0.0,0.0,0.0,10.0,0.0109189604693,0.0114515926873,0.00785632521573,1.0,0.0,0.0,0.0,1.0,0.0,0.0,0.0,1.0,0.213156738281,-6.37314697266,8.14067138672,0.1,0.0,0.0,0.0,0.1,0.0,0.0,0.0,0.1
1446035250266242944,267,1446035250264478921,robocape,-69.0276889003,-7.86008815738,14.4681938806,0.0,10.0,0.0,0.0,0.0,10.0,0.0,0.0,0.0,10.0,0.00306263525359,0.0111852765783,0.00466053190764,1.0,0.0,0.0,0.0,1.0,0.0,0.0,0.0,1.0,0.446671142578,-6.48331787109,8.09396850586,0.1,0.0,0.0,0.0,0.1,0.0,0.0,0.0,0.1
1446035250294495110,268,1446035250292510032,robocape,-69.0126011041,-7.83914577458,14.462408348,0.0,10.0,0.0,0.0,0.0,10.0,0.0,0.0,0.0,10.0,0.0125168571234,0.0105194863058,0.0134489635049,1.0,0.0,0.0,0.0,1.0,0.0,0.0,0.0,1.0,0.458646240234,-6.37793701172,8.10833862305,0.1,0.0,0.0,0.0,0.1,0.0,0.0,0.0,0.1
1446035250315396694,269,1446035250313530921,robocape,-69.0082456787,-7.82033928411,14.4581964706,0.0,10.0,0.0,0.0,0.0,10.0,0.0,0.0,0.0,10.0,0.0033289513626,0.00865527354276,0.0123836990689,1.0,0.0,0.0,0.0,1.0,0.0,0.0,0.0,1.0,0.404758300781,-6.41386230469,8.10594360352,0.1,0.0,0.0,0.0,0.1,0.0,0.0,0.0,0.1
1446035250340716819,270,1446035250338949918,robocape,-68.9975069778,-7.79814062217,14.4541726262,0.0,10.0,0.0,0.0,0.0,10.0,0.0,0.0,0.0,10.0,0.00892158965177,0.00945422186978,0.0149137021044,1.0,0.0,0.0,0.0,1.0,0.0,0.0,0.0,1.0,0.354462890625,-6.42104736328,8.11791870117,0.1,0.0,0.0,0.0,0.1,0.0,0.0,0.0,0.1
1446035250366258944,271,1446035250364439964,robocape,-68.9880538966,-7.78604854156,14.4446785673,0.0,10.0,0.0,0.0,0.0,10.0,0.0,0.0,0.0,10.0,0.00719053494321,0.0110521185238,0.00585895439817,1.0,0.0,0.0,0.0,1.0,0.0,0.0,0.0,1.0,0.221539306641,-6.40787475586,8.15025146484,0.1,0.0,0.0,0.0,0.1,0.0,0.0,0.0,0.1
1446035250393612069,272,1446035250391632080,robocape,-68.9707817836,-7.78588369139,14.4241336868,0.0,10.0,0.0,0.0,0.0,10.0,0.0,0.0,0.0,10.0,0.0127831732324,0.016644756813,-0.00625842856169,1.0,0.0,0.0,0.0,1.0,0.0,0.0,0.0,1.0,0.174836425781,-6.5527734375,8.1622265625,0.1,0.0,0.0,0.0,0.1,0.0,0.0,0.0,0.1
1446035250417084527,273,1446035250415277004,robocape,-68.9527980223,-7.79612990694,14.3872850449,0.0,10.0,0.0,0.0,0.0,10.0,0.0,0.0,0.0,10.0,0.0115847507418,0.0268979270098,-0.0189084437396,1.0,0.0,0.0,0.0,1.0,0.0,0.0,0.0,1.0,0.304167480469,-6.29530883789,8.20892944336,0.1,0.0,0.0,0.0,0.1,0.0,0.0,0.0,0.1
1446035250440308569,274,1446035250438549995,robocape,-68.9148505526,-7.83871217707,14.3233739988,0.0,10.0,0.0,0.0,0.0,10.0,0.0,0.0,0.0,10.0,0.0259658206283,0.0396811002422,-0.0508663768205,1.0,0.0,0.0,0.0,1.0,0.0,0.0,0.0,1.0,0.252674560547,-6.28453125,8.34664306641,0.1,0.0,0.0,0.0,0.1,0.0,0.0,0.0,0.1
1446035250466143777,275,1446035250464090108,robocape,-68.863286139,-7.91995131322,14.2312971362,0.0,10.0,0.0,0.0,0.0,10.0,0.0,0.0,0.0,10.0,0.034621094171,0.051532167093,-0.0877511579181,1.0,0.0,0.0,0.0,1.0,0.0,0.0,0.0,1.0,0.225131835938,-6.35638183594,8.31431030273,0.1,0.0,0.0,0.0,0.1,0.0,0.0,0.0,0.1
1446035250493541444,276,1446035250491748094,robocape,-68.7938787836,-7.93709427986,14.1198668255,0.0,10.0,0.0,0.0,0.0,10.0,0.0,0.0,0.0,10.0,0.0479368996214,0.085087996828,-0.0472711093489,1.0,0.0,0.0,0.0,1.0,0.0,0.0,0.0,1.0,-0.59396484375,-6.51565063477,8.44244384766,0.1,0.0,0.0,0.0,0.1,0.0,0.0,0.0,0.1
1446035250519848694,277,1446035250516544103,robocape,-68.7812345915,-8.06977790971,13.9058073748,0.0,10.0,0.0,0.0,0.0,10.0,0.0,0.0,0.0,10.0,-0.0134489635049,0.135288583376,-0.163251774822,1.0,0.0,0.0,0.0,1.0,0.0,0.0,0.0,1.0,-1.11727661133,-5.02235595703,8.86396728516,0.1,0.0,0.0,0.0,0.1,0.0,0.0,0.0,0.1
1446035250540259860,278,1446035250538469076,robocape,-68.9172456637,-8.59811822209,13.2517013212,0.0,10.0,0.0,0.0,0.0,10.0,0.0,0.0,0.0,10.0,-0.196408130393,0.379633613391,-0.586028597872,1.0,0.0,0.0,0.0,1.0,0.0,0.0,0.0,1.0,-2.33514404297,-5.57680297852,7.53832397461,0.1,0.0,0.0,0.0,0.1,0.0,0.0,0.0,0.1
1446035250566180069,279,1446035250564431905,robocape,-69.1673045681,-9.43830644951,12.1243176285,0.0,10.0,0.0,0.0,0.0,10.0,0.0,0.0,0.0,10.0,-0.36245622436,0.677641339371,-0.951813773594,1.0,0.0,0.0,0.0,1.0,0.0,0.0,0.0,1.0,-0.687370605469,-7.25810668945,9.84353027344,0.1,0.0,0.0,0.0,0.1,0.0,0.0,0.0,0.1
1446035250593207777,280,1446035250591424942,robocape,-69.19958412,-10.4574008503,10.4980788603,0.0,10.0,0.0,0.0,0.0,10.0,0.0,0.0,0.0,10.0,-0.256196096866,1.03343966101,-1.22372252089,1.0,0.0,0.0,0.0,1.0,0.0,0.0,0.0,1.0,-1.94834838867,-6.77670776367,8.94899047852,0.1,0.0,0.0,0.0,0.1,0.0,0.0,0.0,0.1
1446035250620276485,281,1446035250617912054,robocape,-69.1220014014,-11.5513858263,8.76833681759,0.0,10.0,0.0,0.0,0.0,10.0,0.0,0.0,0.0,10.0,-0.19867181732,1.0952249983,-1.29975577001,1.0,0.0,0.0,0.0,1.0,0.0,0.0,0.0,1.0,-1.78428955078,-7.55508911133,9.31303344727,0.1,0.0,0.0,0.0,0.1,0.0,0.0,0.0,0.1
1446035250640362652,282,1446035250638475894,robocape,-68.7605166648,-12.9175568016,6.85113750515,0.0,10.0,0.0,0.0,0.0,10.0,0.0,0.0,0.0,10.0,-0.0101200121423,1.16553245107,-1.54077184867,1.0,0.0,0.0,0.0,1.0,0.0,0.0,0.0,1.0,-3.40332275391,-5.71451660156,8.79331420898,0.1,0.0,0.0,0.0,0.1,0.0,0.0,0.0,0.1
1446035250665685819,283,1446035250663932085,robocape,-68.3129626151,-14.1569669464,4.71444499852,0.0,10.0,0.0,0.0,0.0,10.0,0.0,0.0,0.0,10.0,-0.00759000910673,1.36087531703,-1.51786866329,1.0,0.0,0.0,0.0,1.0,0.0,0.0,0.0,1.0,-5.05588623047,-6.15759521484,9.89741821289,0.1,0.0,0.0,0.0,0.1,0.0,0.0,0.0,0.1
1446035250697558610,284,1446035250690321922,robocape,-67.7145355544,-15.3139970794,2.6959040346,0.0,10.0,0.0,0.0,0.0,10.0,0.0,0.0,0.0,10.0,0.115847507418,1.27272468495,-1.4265222379,1.0,0.0,0.0,0.0,1.0,0.0,0.0,0.0,1.0,-3.26680664063,-5.34688110352,9.86628295898,0.1,0.0,0.0,0.0,0.1,0.0,0.0,0.0,0.1
1446035250723684402,285,1446035250719794034,robocape,-66.8377331515,-15.9742763659,1.29934608046,0.0,10.0,0.0,0.0,0.0,10.0,0.0,0.0,0.0,10.0,0.46831687769,0.904942138409,-0.89934950012,1.0,0.0,0.0,0.0,1.0,0.0,0.0,0.0,1.0,-1.916015625,-1.29570556641,10.7236999512,0.1,0.0,0.0,0.0,0.1,0.0,0.0,0.0,0.1
1446035250740519402,286,1446035250738744974,robocape,-66.6559883222,-16.5661811476,0.210951303104,0.0,10.0,0.0,0.0,0.0,10.0,0.0,0.0,0.0,10.0,-0.0810932551929,0.67524449439,-0.756604065692,1.0,0.0,0.0,0.0,1.0,0.0,0.0,0.0,1.0,-1.04542602539,0.311352539063,8.38975341797,0.1,0.0,0.0,0.0,0.1,0.0,0.0,0.0,0.1
1446035250765810777,287,1446035250764023065,robocape,-66.6905516077,-17.4399075954,-1.25070564084,0.0,10.0,0.0,0.0,0.0,10.0,0.0,0.0,0.0,10.0,-0.36511938545,0.880840530544,-1.06579706825,1.0,0.0,0.0,0.0,1.0,0.0,0.0,0.0,1.0,4.80081665039,-4.22361694336,7.6221496582,0.1,0.0,0.0,0.0,0.1,0.0,0.0,0.0,0.1
1446035250791670194,288,1446035250789654970,robocape,-66.7713901755,-18.1306294498,-2.45058962412,0.0,10.0,0.0,0.0,0.0,10.0,0.0,0.0,0.0,10.0,-0.356863586071,0.729439822573,-0.853409971316,1.0,0.0,0.0,0.0,1.0,0.0,0.0,0.0,1.0,1.92320068359,-4.86069213867,12.4253613281,0.1,0.0,0.0,0.0,0.1,0.0,0.0,0.0,0.1
1446035250818751402,289,1446035250816515922,robocape,-66.7511395485,-18.9796202735,-3.51843151523,0.0,10.0,0.0,0.0,0.0,10.0,0.0,0.0,0.0,10.0,-0.247008191105,0.581501224019,-0.910401618644,1.0,0.0,0.0,0.0,1.0,0.0,0.0,0.0,1.0,1.60346557617,-7.71196289063,6.15759521484,0.1,0.0,0.0,0.0,0.1,0.0,0.0,0.0,0.1
1446035250841942611,290,1446035250839616060,robocape,-66.7171090507,-19.5831540626,-4.62148233534,0.0,10.0,0.0,0.0,0.0,10.0,0.0,0.0,0.0,10.0,-0.253266619667,0.675377652444,-0.758601436509,1.0,0.0,0.0,0.0,1.0,0.0,0.0,0.0,1.0,3.32428710938,-5.10618164063,9.34776123047,0.1,0.0,0.0,0.0,0.1,0.0,0.0,0.0,0.1
1446035250865460236,291,1446035250863678932,robocape,-66.6671074613,-20.2358586689,-5.66045889339,0.0,10.0,0.0,0.0,0.0,10.0,0.0,0.0,0.0,10.0,-0.230629750401,0.610130205737,-0.768055658379,1.0,0.0,0.0,0.0,1.0,0.0,0.0,0.0,1.0,2.42974731445,-8.98491577148,6.84736083984,0.1,0.0,0.0,0.0,0.1,0.0,0.0,0.0,0.1
1446035250890580569,292,1446035250888868093,robocape,-66.4799132664,-21.113067877,-6.83246555729,0.0,10.0,0.0,0.0,0.0,10.0,0.0,0.0,0.0,10.0,-0.156593872097,0.64421866769,-0.956740621611,1.0,0.0,0.0,0.0,1.0,0.0,0.0,0.0,1.0,4.52419189453,-6.68689453125,7.42935058594,0.1,0.0,0.0,0.0,0.1,0.0,0.0,0.0,0.1
1446035250918918361,293,1446035250916953086,robocape,-66.0710093221,-21.5763689673,-7.993035881,0.0,10.0,0.0,0.0,0.0,10.0,0.0,0.0,0.0,10.0,0.0308926686449,0.746084579386,-0.685763980695,1.0,0.0,0.0,0.0,1.0,0.0,0.0,0.0,1.0,1.22026245117,-7.7790234375,11.1248657227,0.1,0.0,0.0,0.0,0.1,0.0,0.0,0.0,0.1
1446035250941405777,294,1446035250939672946,robocape,-65.6599769848,-22.1200921483,-9.04436415943,0.0,10.0,0.0,0.0,0.0,10.0,0.0,0.0,0.0,10.0,0.0572579634367,0.633832339439,-0.704672424435,1.0,0.0,0.0,0.0,1.0,0.0,0.0,0.0,1.0,0.05748046875,-4.51461181641,6.67012939453,0.1,0.0,0.0,0.0,0.1,0.0,0.0,0.0,0.1
1446035250965366027,295,1446035250963593959,robocape,-65.3503630339,-22.8938495799,-10.4891847889,0.0,10.0,0.0,0.0,0.0,10.0,0.0,0.0,0.0,10.0,-0.155129133497,0.854075761588,-0.988432238583,1.0,0.0,0.0,0.0,1.0,0.0,0.0,0.0,1.0,0.142503662109,-4.49185913086,8.90468261719,0.1,0.0,0.0,0.0,0.1,0.0,0.0,0.0,0.1
1446035250990801777,296,1446035250989039897,robocape,-65.1300914191,-24.0699066601,-12.2033904016,0.0,10.0,0.0,0.0,0.0,10.0,0.0,0.0,0.0,10.0,-0.331696713769,0.926114269075,-1.33797213166,1.0,0.0,0.0,0.0,1.0,0.0,0.0,0.0,1.0,-4.80680419922,-5.16126708984,7.91314453125,0.1,0.0,0.0,0.0,0.1,0.0,0.0,0.0,0.1
1446035251018789152,297,1446035251016923904,robocape,-64.6873235702,-25.2466253905,-14.260857819,0.0,10.0,0.0,0.0,0.0,10.0,0.0,0.0,0.0,10.0,-0.270177692589,1.1634019222,-1.45674911627,1.0,0.0,0.0,0.0,1.0,0.0,0.0,0.0,1.0,-3.09556274414,-6.45338012695,11.4817236328,0.1,0.0,0.0,0.0,0.1,0.0,0.0,0.0,0.1
1446035251041982027,298,1446035251039925098,robocape,-63.8133606889,-26.2063656473,-16.1561038837,0.0,10.0,0.0,0.0,0.0,10.0,0.0,0.0,0.0,10.0,0.134889109213,1.08603709253,-1.27086047219,1.0,0.0,0.0,0.0,1.0,0.0,0.0,0.0,1.0,-2.49201782227,-4.31582519531,12.4038061523,0.1,0.0,0.0,0.0,0.1,0.0,0.0,0.0,0.1
1446035251065516236,299,1446035251063693046,robocape,-63.1456573055,-27.056260241,-17.5615552261,0.0,10.0,0.0,0.0,0.0,10.0,0.0,0.0,0.0,10.0,0.102798018077,0.744087208568,-1.03690177042,1.0,0.0,0.0,0.0,1.0,0.0,0.0,0.0,1.0,-1.26217529297,-2.40938964844,7.33115478516,0.1,0.0,0.0,0.0,0.1,0.0,0.0,0.0,0.1
1446035251090753611,300,1446035251088970899,robocape,-62.7859342628,-27.8229897226,-19.1162265315,0.0,10.0,0.0,0.0,0.0,10.0,0.0,0.0,0.0,10.0,-0.231029224564,0.862597877077,-1.04329335704,1.0,0.0,0.0,0.0,1.0,0.0,0.0,0.0,1.0,0.629890136719,-4.85949462891,11.0266699219,0.1,0.0,0.0,0.0,0.1,0.0,0.0,0.0,0.1
1446035251118536444,301,1446035251116585969,robocape,-62.3615870447,-28.8025649851,-20.7398554916,0.0,10.0,0.0,0.0,0.0,10.0,0.0,0.0,0.0,10.0,-0.21465078386,0.829308363451,-1.20388197077,1.0,0.0,0.0,0.0,1.0,0.0,0.0,0.0,1.0,2.87881347656,-1.96750854492,6.96351928711,0.1,0.0,0.0,0.0,0.1,0.0,0.0,0.0,0.1
1446035251144717986,302,1446035251142090082,robocape,-61.8896552136,-29.6494833712,-22.4350536141,0.0,10.0,0.0,0.0,0.0,10.0,0.0,0.0,0.0,10.0,-0.21611552246,0.906406877008,-1.1514176973,1.0,0.0,0.0,0.0,1.0,0.0,0.0,0.0,1.0,0.603544921875,-7.4377331543,10.1668579102,0.1,0.0,0.0,0.0,0.1,0.0,0.0,0.0,0.1
1446035251165366527,303,1446035251163429021,robocape,-61.2760913913,-30.4277576863,-24.1214054733,0.0,10.0,0.0,0.0,0.0,10.0,0.0,0.0,0.0,10.0,-0.104395914731,0.905607928681,-1.11133712289,1.0,0.0,0.0,0.0,1.0,0.0,0.0,0.0,1.0,4.20804931641,-1.44898681641,8.78852416992,0.1,0.0,0.0,0.0,0.1,0.0,0.0,0.0,0.1
1446035251190827777,304,1446035251189066886,robocape,-60.8589333949,-31.3094027868,-25.7481508893,0.0,10.0,0.0,0.0,0.0,10.0,0.0,0.0,0.0,10.0,-0.268047163716,0.812663606638,-1.1575429678,1.0,0.0,0.0,0.0,1.0,0.0,0.0,0.0,1.0,3.07879760742,-4.32301025391,8.47477661133,0.1,0.0,0.0,0.0,0.1,0.0,0.0,0.0,0.1
1446035251217419444,305,1446035251215584039,robocape,-60.4802116884,-32.1606689918,-27.2909525489,0.0,10.0,0.0,0.0,0.0,10.0,0.0,0.0,0.0,10.0,-0.283626656093,0.750878269348,-1.10973922624,1.0,0.0,0.0,0.0,1.0,0.0,0.0,0.0,1.0,1.3376184082,-3.99249755859,9.36572387695,0.1,0.0,0.0,0.0,0.1,0.0,0.0,0.0,0.1
1446035251246390152,306,1446035251243913888,robocape,-60.1669522915,-32.7540625386,-28.8319904708,0.0,10.0,0.0,0.0,0.0,10.0,0.0,0.0,0.0,10.0,-0.352203054163,0.827044676524,-0.953278512194,1.0,0.0,0.0,0.0,1.0,0.0,0.0,0.0,1.0,3.31590454102,-4.24038208008,6.1731628418,0.1,0.0,0.0,0.0,0.1,0.0,0.0,0.0,0.1
1446035251265420777,307,1446035251263612985,robocape,-59.7456019001,-33.5213971824,-30.5803427175,0.0,10.0,0.0,0.0,0.0,10.0,0.0,0.0,0.0,10.0,-0.354999373308,0.891626332959,-1.14249610764,1.0,0.0,0.0,0.0,1.0,0.0,0.0,0.0,1.0,2.47046264648,-7.94787231445,10.612331543,0.1,0.0,0.0,0.0,0.1,0.0,0.0,0.0,0.1
1446035251291207944,308,1446035251289402961,robocape,-59.1079023307,-34.2766013076,-32.2798781298,0.0,10.0,0.0,0.0,0.0,10.0,0.0,0.0,0.0,10.0,-0.160055981514,0.845819962209,-1.12145713503,1.0,0.0,0.0,0.0,1.0,0.0,0.0,0.0,1.0,5.02954101562,-8.19455932617,8.86516479492,0.1,0.0,0.0,0.0,0.1,0.0,0.0,0.0,0.1
1446035251316279444,309,1446035251314578056,robocape,-58.140663354,-34.8190057086,-33.9744883085,0.0,10.0,0.0,0.0,0.0,10.0,0.0,0.0,0.0,10.0,0.117711720182,0.899216342065,-0.999750673216,1.0,0.0,0.0,0.0,1.0,0.0,0.0,0.0,1.0,3.76616821289,-5.9396484375,5.87258789063,0.1,0.0,0.0,0.0,0.1,0.0,0.0,0.0,0.1
1446035251344389194,310,1446035251342137098,robocape,-57.4644056464,-35.3915439796,-35.4361231445,0.0,10.0,0.0,0.0,0.0,10.0,0.0,0.0,0.0,10.0,-0.0451405804768,0.718787178212,-0.934370068454,1.0,0.0,0.0,0.0,1.0,0.0,0.0,0.0,1.0,1.70764892578,-4.49545166016,8.99928588867,0.1,0.0,0.0,0.0,0.1,0.0,0.0,0.0,0.1
1446035251365440236,311,1446035251363657951,robocape,-56.7763761368,-35.8980642185,-36.9643859799,0.0,10.0,0.0,0.0,0.0,10.0,0.0,0.0,0.0,10.0,-0.0727042977592,0.770718819469,-0.928644272111,1.0,0.0,0.0,0.0,1.0,0.0,0.0,0.0,1.0,3.49553100586,-3.58534423828,9.47948730469,0.1,0.0,0.0,0.0,0.1,0.0,0.0,0.0,0.1
1446035251390519277,312,1446035251388739109,robocape,-56.3905469589,-36.5512597572,-38.4076884442,0.0,10.0,0.0,0.0,0.0,10.0,0.0,0.0,0.0,10.0,-0.307994580068,0.645816564344,-0.986035393602,1.0,0.0,0.0,0.0,1.0,0.0,0.0,0.0,1.0,1.79506713867,-4.64993041992,7.36947509766,0.1,0.0,0.0,0.0,0.1,0.0,0.0,0.0,0.1
1446035251416007944,313,1446035251414292097,robocape,-55.7774768525,-36.8963401309,-39.924136871,0.0,10.0,0.0,0.0,0.0,10.0,0.0,0.0,0.0,10.0,-0.150468601589,0.801345172005,-0.837031530612,1.0,0.0,0.0,0.0,1.0,0.0,0.0,0.0,1.0,5.0618737793,-6.20310058594,8.20533691406,0.1,0.0,0.0,0.0,0.1,0.0,0.0,0.0,0.1
1446035251444856694,314,1446035251442790985,robocape,-55.3088322457,-37.4374827983,-41.2314233347,0.0,10.0,0.0,0.0,0.0,10.0,0.0,0.0,0.0,10.0,-0.188152331014,0.581501224019,-0.870720518401,1.0,0.0,0.0,0.0,1.0,0.0,0.0,0.0,1.0,0.725690917969,-6.83658325195,7.25571166992,0.1,0.0,0.0,0.0,0.1,0.0,0.0,0.0,0.1
1446035251467036902,315,1446035251464643955,robocape,-54.84516433,-37.8213728354,-42.4544752251,0.0,10.0,0.0,0.0,0.0,10.0,0.0,0.0,0.0,10.0,-0.160055981514,0.584297543163,-0.745285631059,1.0,0.0,0.0,0.0,1.0,0.0,0.0,0.0,1.0,4.64873291016,-5.96479614258,8.87474487305,0.1,0.0,0.0,0.0,0.1,0.0,0.0,0.0,0.1
1446035251490333444,316,1446035251488523960,robocape,-54.3176126844,-38.3130542739,-43.702588317,0.0,10.0,0.0,0.0,0.0,10.0,0.0,0.0,0.0,10.0,-0.121706461817,0.544483284867,-0.822916776834,1.0,0.0,0.0,0.0,1.0,0.0,0.0,0.0,1.0,0.920885009766,-6.33602416992,6.48451538086,0.1,0.0,0.0,0.0,0.1,0.0,0.0,0.0,0.1
1446035251515779694,317,1446035251514015913,robocape,-53.9523688887,-38.5656042411,-44.8913050734,0.0,10.0,0.0,0.0,0.0,10.0,0.0,0.0,0.0,10.0,-0.24035028838,0.601075458031,-0.660064476176,1.0,0.0,0.0,0.0,1.0,0.0,0.0,0.0,1.0,2.30520629883,-7.31079711914,9.60163330078,0.1,0.0,0.0,0.0,0.1,0.0,0.0,0.0,0.1
1446035251544247444,318,1446035251542268037,robocape,-53.5017709677,-39.0012553019,-45.9296443355,0.0,10.0,0.0,0.0,0.0,10.0,0.0,0.0,0.0,10.0,-0.0989364344964,0.426505248576,-0.704805582489,1.0,0.0,0.0,0.0,1.0,0.0,0.0,0.0,1.0,0.748443603516,-6.35638183594,6.64737670898,0.1,0.0,0.0,0.0,0.1,0.0,0.0,0.0,0.1
1446035251567532028,319,1446035251565160036,robocape,-53.147361513,-39.2967227327,-46.8739038696,0.0,10.0,0.0,0.0,0.0,10.0,0.0,0.0,0.0,10.0,-0.141946486101,0.424774193868,-0.584031227054,1.0,0.0,0.0,0.0,1.0,0.0,0.0,0.0,1.0,1.60107055664,-5.66901123047,8.83163452148,0.1,0.0,0.0,0.0,0.1,0.0,0.0,0.0,0.1
1446035251590154069,320,1446035251588392019,robocape,-52.727264613,-39.542959483,-47.8018550308,0.0,10.0,0.0,0.0,0.0,10.0,0.0,0.0,0.0,10.0,-0.0794953585389,0.431298938538,-0.550342239265,1.0,0.0,0.0,0.0,1.0,0.0,0.0,0.0,1.0,2.50638793945,-6.21627319336,8.38496337891,0.1,0.0,0.0,0.0,0.1,0.0,0.0,0.0,0.1
1446035251615491861,321,1446035251613704919,robocape,-52.2812801863,-39.772558355,-48.7287279346,0.0,10.0,0.0,0.0,0.0,10.0,0.0,0.0,0.0,10.0,-0.0587227020362,0.432497361029,-0.542752230158,1.0,0.0,0.0,0.0,1.0,0.0,0.0,0.0,1.0,1.14841186523,-6.85454589844,6.6713269043,0.1,0.0,0.0,0.0,0.1,0.0,0.0,0.0,0.1
1446035251644218069,322,1446035251642478942,robocape,-51.9408656238,-39.917494211,-49.4844609501,0.0,10.0,0.0,0.0,0.0,10.0,0.0,0.0,0.0,10.0,-0.0696416625056,0.367649388485,-0.42011366196,1.0,0.0,0.0,0.0,1.0,0.0,0.0,0.0,1.0,1.48730712891,-5.21994506836,8.2771875,0.1,0.0,0.0,0.0,0.1,0.0,0.0,0.0,0.1
1446035251667428319,323,1446035251665436029,robocape,-51.6935420164,-40.0662573063,-50.1469442454,0.0,10.0,0.0,0.0,0.0,10.0,0.0,0.0,0.0,10.0,-0.106659601658,0.309991950885,-0.382030458372,1.0,0.0,0.0,0.0,1.0,0.0,0.0,0.0,1.0,1.95673095703,-6.4378125,8.07840087891,0.1,0.0,0.0,0.0,0.1,0.0,0.0,0.0,0.1
1446035251697258403,324,1446035251688518047,robocape,-51.5372633469,-40.3613373893,-50.8618691738,0.0,10.0,0.0,0.0,0.0,10.0,0.0,0.0,0.0,10.0,-0.213319203315,0.270976640916,-0.490021640575,1.0,0.0,0.0,0.0,1.0,0.0,0.0,0.0,1.0,2.34592163086,-6.76832519531,7.32396972656,0.1,0.0,0.0,0.0,0.1,0.0,0.0,0.0,0.1
1446035251719016278,325,1446035251717225074,robocape,-51.3338011028,-40.457760689,-51.4166195123,0.0,10.0,0.0,0.0,0.0,10.0,0.0,0.0,0.0,10.0,-0.0949416928613,0.268846112043,-0.304665628705,1.0,0.0,0.0,0.0,1.0,0.0,0.0,0.0,1.0,0.441881103516,-7.36947509766,8.30832275391,0.1,0.0,0.0,0.0,0.1,0.0,0.0,0.0,0.1
1446035251743064153,326,1446035251741183996,robocape,-51.0760185006,-40.5924106659,-51.9426816529,0.0,10.0,0.0,0.0,0.0,10.0,0.0,0.0,0.0,10.0,-0.034088461953,0.2335592276,-0.314386166684,1.0,0.0,0.0,0.0,1.0,0.0,0.0,0.0,1.0,2.31837890625,-7.85087402344,7.6987902832,0.1,0.0,0.0,0.0,0.1,0.0,0.0,0.0,0.1
1446035251770630111,327,1446035251767333030,robocape,-50.8406857426,-40.6304920227,-52.3068700012,0.0,10.0,0.0,0.0,0.0,10.0,0.0,0.0,0.0,10.0,0.0256995045193,0.186021802142,-0.186820750469,1.0,0.0,0.0,0.0,1.0,0.0,0.0,0.0,1.0,2.08965454102,-6.43901000977,7.15152832031,0.1,0.0,0.0,0.0,0.1,0.0,0.0,0.0,0.1
1446035251790265903,328,1446035251788302898,robocape,-50.6434121187,-40.66353735,-52.6013520879,0.0,10.0,0.0,0.0,0.0,10.0,0.0,0.0,0.0,10.0,0.0267647689553,0.148737546881,-0.152865446571,1.0,0.0,0.0,0.0,1.0,0.0,0.0,0.0,1.0,1.96511352539,-5.9396484375,7.49760864258,0.1,0.0,0.0,0.0,0.1,0.0,0.0,0.0,0.1
1446035251815771569,329,1446035251814013957,robocape,-50.5562461775,-40.6752994297,-52.809535247,0.0,10.0,0.0,0.0,0.0,10.0,0.0,0.0,0.0,10.0,-0.0267647689553,0.110254869129,-0.101732753641,1.0,0.0,0.0,0.0,1.0,0.0,0.0,0.0,1.0,1.23583007813,-6.29530883789,7.34552490234,0.1,0.0,0.0,0.0,0.1,0.0,0.0,0.0,0.1
1446035251842253028,330,1446035251840118885,robocape,-50.5219606964,-40.7154400727,-52.9619502239,0.0,10.0,0.0,0.0,0.0,10.0,0.0,0.0,0.0,10.0,-0.0454068965859,0.0659132369795,-0.0924116898257,1.0,0.0,0.0,0.0,1.0,0.0,0.0,0.0,1.0,1.88368286133,-7.3575,7.33474731445,0.1,0.0,0.0,0.0,0.1,0.0,0.0,0.0,0.1
1446035251869743153,331,1446035251867513895,robocape,-50.4869822425,-40.6903345411,-52.9636298002,0.0,10.0,0.0,0.0,0.0,10.0,0.0,0.0,0.0,10.0,0.0296942461544,0.0126500151779,0.0134489635049,1.0,0.0,0.0,0.0,1.0,0.0,0.0,0.0,1.0,1.34600097656,-6.49050292969,7.62095214844,0.1,0.0,0.0,0.0,0.1,0.0,0.0,0.0,0.1
1446035251891620194,332,1446035251889851093,robocape,-50.5233169611,-40.6468197841,-52.8606152155,0.0,10.0,0.0,0.0,0.0,10.0,0.0,0.0,0.0,10.0,0.0191747598486,-0.0368847810976,0.0717721913776,1.0,0.0,0.0,0.0,1.0,0.0,0.0,0.0,1.0,0.518521728516,-6.69886962891,7.84728149414,0.1,0.0,0.0,0.0,0.1,0.0,0.0,0.0,0.1
1446035251915748569,333,1446035251913935899,robocape,-50.5951096938,-40.5699857744,-52.6855642259,0.0,10.0,0.0,0.0,0.0,10.0,0.0,0.0,0.0,10.0,0.0237021337017,-0.0615190211808,0.12357067458,1.0,0.0,0.0,0.0,1.0,0.0,0.0,0.0,1.0,-0.100590820313,-6.26297607422,8.15983154297,0.1,0.0,0.0,0.0,0.1,0.0,0.0,0.0,0.1
1446035251941861778,334,1446035251940042018,robocape,-50.6832148775,-40.4979167355,-52.5467583361,0.0,10.0,0.0,0.0,0.0,10.0,0.0,0.0,0.0,10.0,-0.00852211548825,-0.0438089999318,0.104262756677,1.0,0.0,0.0,0.0,1.0,0.0,0.0,0.0,1.0,-0.447868652344,-6.54079833984,8.39095092773,0.1,0.0,0.0,0.0,0.1,0.0,0.0,0.0,0.1
1446035251968663903,335,1446035251966660976,robocape,-50.6843088152,-40.4742684336,-52.5096347659,0.0,10.0,0.0,0.0,0.0,10.0,0.0,0.0,0.0,10.0,0.0173105470855,-0.00972053797879,0.0303600364269,1.0,0.0,0.0,0.0,1.0,0.0,0.0,0.0,1.0,-0.623902587891,-6.56834106445,8.30353271484,0.1,0.0,0.0,0.0,0.1,0.0,0.0,0.0,0.1
1446035251990472653,336,1446035251988687038,robocape,-50.6298032573,-40.4835769904,-52.5508346813,0.0,10.0,0.0,0.0,0.0,10.0,0.0,0.0,0.0,10.0,0.0272974011733,0.0186421276306,-0.0241016078652,1.0,0.0,0.0,0.0,1.0,0.0,0.0,0.0,1.0,-0.51732421875,-6.53121826172,8.28197753906,0.1,0.0,0.0,0.0,0.1,0.0,0.0,0.0,0.1
1446035252015480403,337,1446035252013767957,robocape,-50.4909282134,-40.5384688188,-52.6644785027,0.0,10.0,0.0,0.0,0.0,10.0,0.0,0.0,0.0,10.0,0.0652474467069,0.0376837294246,-0.0830906260105,1.0,0.0,0.0,0.0,1.0,0.0,0.0,0.0,1.0,-0.171243896484,-6.57073608398,8.20174438477,0.1,0.0,0.0,0.0,0.1,0.0,0.0,0.0,0.1
1446035252040439903,338,1446035252038683891,robocape,-50.3058708077,-40.6212577623,-52.8213486611,0.0,10.0,0.0,0.0,0.0,10.0,0.0,0.0,0.0,10.0,0.0841558904465,0.0483363737849,-0.118776984618,1.0,0.0,0.0,0.0,1.0,0.0,0.0,0.0,1.0,0.135318603516,-6.45577514648,8.15504150391,0.1,0.0,0.0,0.0,0.1,0.0,0.0,0.0,0.1
1446035252069207444,339,1446035252066916942,robocape,-50.1090927346,-40.7083456014,-52.9897461165,0.0,10.0,0.0,0.0,0.0,10.0,0.0,0.0,0.0,10.0,0.0885501062451,0.0521979573656,-0.126633309833,1.0,0.0,0.0,0.0,1.0,0.0,0.0,0.0,1.0,0.104183349609,-6.36596191406,8.08438842773,0.1,0.0,0.0,0.0,0.1,0.0,0.0,0.0,0.1
1446035252092125736,340,1446035252089797973,robocape,-49.9909507435,-40.7455325683,-53.1128616272,0.0,10.0,0.0,0.0,0.0,10.0,0.0,0.0,0.0,10.0,0.0422111032778,0.0503337446025,-0.0777643038303,1.0,0.0,0.0,0.0,1.0,0.0,0.0,0.0,1.0,0.164058837891,-6.50128051758,8.10714111328,0.1,0.0,0.0,0.0,0.1,0.0,0.0,0.0,0.1
1446035252115617361,341,1446035252113853931,robocape,-49.9098445815,-40.7523909274,-53.1891679049,0.0,10.0,0.0,0.0,0.0,10.0,0.0,0.0,0.0,10.0,0.033023197517,0.0387489938607,-0.0391484680242,1.0,0.0,0.0,0.0,1.0,0.0,0.0,0.0,1.0,0.486188964844,-6.39230712891,7.95745239258,0.1,0.0,0.0,0.0,0.1,0.0,0.0,0.0,0.1
1446035252141058194,342,1446035252138818979,robocape,-49.8970714933,-40.7272688899,-53.1966266645,0.0,10.0,0.0,0.0,0.0,10.0,0.0,0.0,0.0,10.0,0.00745685105222,0.0159789665405,0.0106526443603,1.0,0.0,0.0,0.0,1.0,0.0,0.0,0.0,1.0,0.44068359375,-6.55995849609,7.94667480469,0.1,0.0,0.0,0.0,0.1,0.0,0.0,0.0,0.1
1446035252165592569,343,1446035252163800001,robocape,-49.9143240153,-40.6865404986,-53.1548574096,0.0,10.0,0.0,0.0,0.0,10.0,0.0,0.0,0.0,10.0,0.00559263828917,-0.00372842552611,0.0422111032778,1.0,0.0,0.0,0.0,1.0,0.0,0.0,0.0,1.0,0.290994873047,-6.38751708984,8.06043823242,0.1,0.0,0.0,0.0,0.1,0.0,0.0,0.0,0.1
1446035252190699320,344,1446035252188682079,robocape,-49.9465904776,-40.6477827482,-53.1078238251,0.0,10.0,0.0,0.0,0.0,10.0,0.0,0.0,0.0,10.0,-0.00492684801665,-0.00759000910673,0.0435426838228,1.0,0.0,0.0,0.0,1.0,0.0,0.0,0.0,1.0,0.0179626464844,-6.52403320313,8.0125378418,0.1,0.0,0.0,0.0,0.1,0.0,0.0,0.0,0.1
1446035252219346778,345,1446035252217549085,robocape,-49.9858671007,-40.6034800424,-53.0718272899,0.0,10.0,0.0,0.0,0.0,10.0,0.0,0.0,0.0,10.0,-0.0165115987585,0.00106526443603,0.0415453130052,1.0,0.0,0.0,0.0,1.0,0.0,0.0,0.0,1.0,-0.0694555664063,-6.04383178711,8.21850952148,0.1,0.0,0.0,0.0,0.1,0.0,0.0,0.0,0.1
1446035252241629945,346,1446035252239830970,robocape,-50.1586370449,-40.4742117743,-52.9617295167,0.0,10.0,0.0,0.0,0.0,10.0,0.0,0.0,0.0,10.0,-0.0965395895154,0.0,0.12357067458,1.0,0.0,0.0,0.0,1.0,0.0,0.0,0.0,1.0,-0.0167651367188,-6.73239990234,8.03888305664,0.1,0.0,0.0,0.0,0.1,0.0,0.0,0.0,0.1
1446035252265408195,347,1446035252263724088,robocape,-50.3193855445,-40.3434512287,-52.8575003601,0.0,10.0,0.0,0.0,0.0,10.0,0.0,0.0,0.0,10.0,-0.0890827384632,0.0034621094171,0.121706461817,1.0,0.0,0.0,0.0,1.0,0.0,0.0,0.0,1.0,0.267044677734,-6.28333374023,8.05684570313,0.1,0.0,0.0,0.0,0.1,0.0,0.0,0.0,0.1
1446035252290619486,348,1446035252288635015,robocape,-50.5079815853,-40.2138624734,-52.7321813534,0.0,10.0,0.0,0.0,0.0,10.0,0.0,0.0,0.0,10.0,-0.103197492241,-0.00932106381528,0.130761209523,1.0,0.0,0.0,0.0,1.0,0.0,0.0,0.0,1.0,0.255069580078,-6.79706542969,7.95146484375,0.1,0.0,0.0,0.0,0.1,0.0,0.0,0.0,0.1
1446035252318862028,349,1446035252317091941,robocape,-50.6643474496,-40.0833411152,-52.6027539434,0.0,10.0,0.0,0.0,0.0,10.0,0.0,0.0,0.0,10.0,-0.0732369299772,-0.0117179087963,0.133158054504,1.0,0.0,0.0,0.0,1.0,0.0,0.0,0.0,1.0,0.0934057617188,-6.43302246094,8.08079589844,0.1,0.0,0.0,0.0,0.1,0.0,0.0,0.0,0.1
1446035252344625403,350,1446035252341310977,robocape,-50.795945394,-39.9939243909,-52.5097225732,0.0,10.0,0.0,0.0,0.0,10.0,0.0,0.0,0.0,10.0,-0.0695085044511,-0.0107858024148,0.0932106381528,1.0,0.0,0.0,0.0,1.0,0.0,0.0,0.0,1.0,0.0526904296875,-6.66294433594,8.06283325195,0.1,0.0,0.0,0.0,0.1,0.0,0.0,0.0,0.1
1446035252366184153,351,1446035252364337921,robocape,-50.8737417965,-39.911697029,-52.4426889908,0.0,10.0,0.0,0.0,0.0,10.0,0.0,0.0,0.0,10.0,-0.0352868844435,0.000266316109008,0.0772316716123,1.0,0.0,0.0,0.0,1.0,0.0,0.0,0.0,1.0,-0.279019775391,-6.59588378906,8.12869628906,0.1,0.0,0.0,0.0,0.1,0.0,0.0,0.0,0.1
1446035252391143528,352,1446035252389324903,robocape,-50.9910885707,-39.8204525413,-52.375474506,0.0,10.0,0.0,0.0,0.0,10.0,0.0,0.0,0.0,10.0,-0.0697748205601,0.00412789968962,0.082424835738,1.0,0.0,0.0,0.0,1.0,0.0,0.0,0.0,1.0,-0.342487792969,-6.3958996582,8.09875854492,0.1,0.0,0.0,0.0,0.1,0.0,0.0,0.0,0.1
1446035252417796028,353,1446035252416023015,robocape,-51.1000666078,-39.726069283,-52.3174261584,0.0,10.0,0.0,0.0,0.0,10.0,0.0,0.0,0.0,10.0,-0.0669785014155,0.0105194863058,0.0800279907569,1.0,0.0,0.0,0.0,1.0,0.0,0.0,0.0,1.0,-0.135318603516,-6.38751708984,7.97541503906,0.1,0.0,0.0,0.0,0.1,0.0,0.0,0.0,0.1
1446035252441521111,354,1446035252439537048,robocape,-51.3458489746,-39.5633302149,-52.1736153025,0.0,10.0,0.0,0.0,0.0,10.0,0.0,0.0,0.0,10.0,-0.145009121355,-0.00719053494321,0.157925452642,1.0,0.0,0.0,0.0,1.0,0.0,0.0,0.0,1.0,0.117355957031,-6.67372192383,7.90715698242,0.1,0.0,0.0,0.0,0.1,0.0,0.0,0.0,0.1
1446035252465460986,355,1446035252463593959,robocape,-51.6246985405,-39.3543262831,-51.9839085647,0.0,10.0,0.0,0.0,0.0,10.0,0.0,0.0,0.0,10.0,-0.152066498244,-0.0133158054504,0.205063403936,1.0,0.0,0.0,0.0,1.0,0.0,0.0,0.0,1.0,0.664617919922,-6.67970947266,7.83291137695,0.1,0.0,0.0,0.0,0.1,0.0,0.0,0.0,0.1
1446035252490705945,356,1446035252488848924,robocape,-51.884355175,-39.1506128975,-51.7927186922,0.0,10.0,0.0,0.0,0.0,10.0,0.0,0.0,0.0,10.0,-0.135022267267,-0.0178431793035,0.202666558955,1.0,0.0,0.0,0.0,1.0,0.0,0.0,0.0,1.0,0.523311767578,-6.67491943359,7.92032958984,0.1,0.0,0.0,0.0,0.1,0.0,0.0,0.0,0.1
1446035252516123528,357,1446035252514343023,robocape,-52.1657619095,-38.9072188697,-51.5663388262,0.0,10.0,0.0,0.0,0.0,10.0,0.0,0.0,0.0,10.0,-0.137685428357,-0.0217047628841,0.241149236707,1.0,0.0,0.0,0.0,1.0,0.0,0.0,0.0,1.0,-0.331710205078,-6.84855834961,8.01493286133,0.1,0.0,0.0,0.0,0.1,0.0,0.0,0.0,0.1
1446035252543972653,358,1446035252541732072,robocape,-52.3703929824,-38.7246054078,-51.4197749427,0.0,10.0,0.0,0.0,0.0,10.0,0.0,0.0,0.0,10.0,-0.109056446639,-0.00386158358061,0.170442309765,1.0,0.0,0.0,0.0,1.0,0.0,0.0,0.0,1.0,-0.886157226563,-6.64977172852,8.6184777832,0.1,0.0,0.0,0.0,0.1,0.0,0.0,0.0,0.1
1446035252568685528,359,1446035252566519975,robocape,-52.5973339394,-38.7659993634,-51.3240943415,0.0,10.0,0.0,0.0,0.0,10.0,0.0,0.0,0.0,10.0,-0.152732288516,-0.0739027202497,0.0189084437396,1.0,0.0,0.0,0.0,1.0,0.0,0.0,0.0,1.0,-3.14945068359,-6.31207397461,7.44970825195,0.1,0.0,0.0,0.0,0.1,0.0,0.0,0.0,0.1
1446035252590743861,360,1446035252588952064,robocape,-52.757074064,-38.9056901833,-51.547775566,0.0,10.0,0.0,0.0,0.0,10.0,0.0,0.0,0.0,10.0,-0.245543452505,0.0688427141785,-0.179896531635,1.0,0.0,0.0,0.0,1.0,0.0,0.0,0.0,1.0,0.24908203125,-5.77079956055,7.3227722168,0.1,0.0,0.0,0.0,0.1,0.0,0.0,0.0,0.1
1446035252615762361,361,1446035252613966941,robocape,-52.7985345846,-38.9577417426,-51.9124267842,0.0,10.0,0.0,0.0,0.0,10.0,0.0,0.0,0.0,10.0,-0.209590777789,0.189617069614,-0.191481282377,1.0,0.0,0.0,0.0,1.0,0.0,0.0,0.0,1.0,0.86220703125,-7.71316040039,7.44132568359,0.1,0.0,0.0,0.0,0.1,0.0,0.0,0.0,0.1
1446035252644851903,362,1446035252642854928,robocape,-52.7333700546,-38.9609893702,-52.2818284461,0.0,10.0,0.0,0.0,0.0,10.0,0.0,0.0,0.0,10.0,-0.118910142672,0.213718677479,-0.165382303694,1.0,0.0,0.0,0.0,1.0,0.0,0.0,0.0,1.0,-0.552052001953,-7.97661254883,8.05445068359,0.1,0.0,0.0,0.0,0.1,0.0,0.0,0.0,0.1
1446035252666592153,363,1446035252664855957,robocape,-52.5157445805,-38.9866391019,-52.5496105276,0.0,10.0,0.0,0.0,0.0,10.0,0.0,0.0,0.0,10.0,0.0624511275624,0.144343331082,-0.133690686722,1.0,0.0,0.0,0.0,1.0,0.0,0.0,0.0,1.0,-1.56993530273,-9.75970458984,8.507109375,0.1,0.0,0.0,0.0,0.1,0.0,0.0,0.0,0.1
1446035252695583903,364,1446035252688468933,robocape,-52.0560525534,-38.9329042171,-52.6197511342,0.0,10.0,0.0,0.0,0.0,10.0,0.0,0.0,0.0,10.0,0.36778254654,0.0644484983799,-0.000532632218016,1.0,0.0,0.0,0.0,1.0,0.0,0.0,0.0,1.0,-1.49688720703,-8.0053527832,8.2735949707,0.1,0.0,0.0,0.0,0.1,0.0,0.0,0.0,0.1
1446035252719191403,365,1446035252717190980,robocape,-51.6034566773,-38.823988651,-52.6410983388,0.0,10.0,0.0,0.0,0.0,10.0,0.0,0.0,0.0,10.0,0.384826777516,0.0611195470173,0.0524642734746,1.0,0.0,0.0,0.0,1.0,0.0,0.0,0.0,1.0,-1.92439819336,-5.98754882812,7.71795043945,0.1,0.0,0.0,0.0,0.1,0.0,0.0,0.0,0.1
1446035252744421778,366,1446035252742579936,robocape,-51.2170324882,-38.8153233895,-52.7293757565,0.0,10.0,0.0,0.0,0.0,10.0,0.0,0.0,0.0,10.0,0.29534456489,0.0544616442921,-0.0354200424981,1.0,0.0,0.0,0.0,1.0,0.0,0.0,0.0,1.0,-2.14833251953,-3.73024291992,8.07600585937,0.1,0.0,0.0,0.0,0.1,0.0,0.0,0.0,0.1
1446035252767157695,367,1446035252765326023,robocape,-51.1547461798,-38.7987630344,-52.8083343553,0.0,10.0,0.0,0.0,0.0,10.0,0.0,0.0,0.0,10.0,0.016911072922,0.0525974315291,-0.0268979270098,1.0,0.0,0.0,0.0,1.0,0.0,0.0,0.0,1.0,-2.16509765625,-5.57919799805,8.82325195313,0.1,0.0,0.0,0.0,0.1,0.0,0.0,0.0,0.1
1446035252790171570,368,1446035252788419961,robocape,-51.2868225666,-38.8137425777,-52.9123480443,0.0,10.0,0.0,0.0,0.0,10.0,0.0,0.0,0.0,10.0,-0.164583355367,0.0525974315291,-0.0561926990007,1.0,0.0,0.0,0.0,1.0,0.0,0.0,0.0,1.0,-2.3722668457,-4.47269897461,7.75028320313,0.1,0.0,0.0,0.0,0.1,0.0,0.0,0.0,0.1
1446035252815391236,369,1446035252813627004,robocape,-51.5024028675,-38.8993117372,-53.1168654595,0.0,10.0,0.0,0.0,0.0,10.0,0.0,0.0,0.0,10.0,-0.285224552747,0.0782969360483,-0.141946486101,1.0,0.0,0.0,0.0,1.0,0.0,0.0,0.0,1.0,-3.28237426758,-7.07009765625,8.79570922852,0.1,0.0,0.0,0.0,0.1,0.0,0.0,0.0,0.1
1446035252843575236,370,1446035252841856956,robocape,-51.5252011163,-39.0040617716,-53.4257428888,0.0,10.0,0.0,0.0,0.0,10.0,0.0,0.0,0.0,10.0,-0.166847042293,0.129562787032,-0.200136555919,1.0,0.0,0.0,0.0,1.0,0.0,0.0,0.0,1.0,-0.744851074219,-6.47733032227,6.67252441406,0.1,0.0,0.0,0.0,0.1,0.0,0.0,0.0,0.1
1446035252867096986,371,1446035252865118026,robocape,-51.4592836337,-39.0767729928,-53.7050736419,0.0,10.0,0.0,0.0,0.0,10.0,0.0,0.0,0.0,10.0,-0.0756337749583,0.126899625942,-0.168444938948,1.0,0.0,0.0,0.0,1.0,0.0,0.0,0.0,1.0,-1.46096191406,-9.06993896484,8.51788696289,0.1,0.0,0.0,0.0,0.1,0.0,0.0,0.0,0.1
1446035252890582528,372,1446035252888770103,robocape,-51.0963160804,-39.1938997669,-53.9307844557,0.0,10.0,0.0,0.0,0.0,10.0,0.0,0.0,0.0,10.0,0.208924987517,0.0753674588492,-0.169510203384,1.0,0.0,0.0,0.0,1.0,0.0,0.0,0.0,1.0,1.22744750977,-8.32748291016,9.1238269043,0.1,0.0,0.0,0.0,0.1,0.0,0.0,0.0,0.1
1446035252915505362,373,1446035252913675069,robocape,-50.6632099946,-39.103296888,-54.2170822522,0.0,10.0,0.0,0.0,0.0,10.0,0.0,0.0,0.0,10.0,0.241149236707,0.203731823391,-0.0808269390839,1.0,0.0,0.0,0.0,1.0,0.0,0.0,0.0,1.0,-2.82133300781,-6.91322387695,8.38975341797,0.1,0.0,0.0,0.0,0.1,0.0,0.0,0.0,0.1
1446035252943059487,374,1446035252941286087,robocape,-50.5518391695,-39.1484359333,-54.341951851,0.0,10.0,0.0,0.0,0.0,10.0,0.0,0.0,0.0,10.0,0.0375505713701,0.04966795433,-0.083223784065,1.0,0.0,0.0,0.0,1.0,0.0,0.0,0.0,1.0,-2.66326171875,-4.42479858398,7.56586669922,0.1,0.0,0.0,0.0,0.1,0.0,0.0,0.0,0.1
1446035252970326237,375,1446035252968142986,robocape,-50.5389506352,-39.2577401962,-54.4072094399,0.0,10.0,0.0,0.0,0.0,10.0,0.0,0.0,0.0,10.0,-0.0199737081756,-0.0137152796139,-0.0916127414987,1.0,0.0,0.0,0.0,1.0,0.0,0.0,0.0,1.0,-3.91705444336,-6.10370727539,8.62087280273,0.1,0.0,0.0,0.0,0.1,0.0,0.0,0.0,0.1
1446035252990487362,376,1446035252988574981,robocape,-50.5312189692,-39.2776444968,-54.5838785823,0.0,10.0,0.0,0.0,0.0,10.0,0.0,0.0,0.0,10.0,-0.0778974618848,0.0902811609537,-0.0930774800983,1.0,0.0,0.0,0.0,1.0,0.0,0.0,0.0,1.0,-2.50040039063,-6.73239990234,9.74174194336,0.1,0.0,0.0,0.0,0.1,0.0,0.0,0.0,0.1
1446035253015583237,377,1446035253013870954,robocape,-50.3919806514,-39.2611143095,-54.8794447616,0.0,10.0,0.0,0.0,0.0,10.0,0.0,0.0,0.0,10.0,-0.0201068662301,0.173904419182,-0.127964890378,1.0,0.0,0.0,0.0,1.0,0.0,0.0,0.0,1.0,0.687370605469,-4.96128295898,6.77431274414,0.1,0.0,0.0,0.0,0.1,0.0,0.0,0.0,0.1
1446035253041898195,378,1446035253040102958,robocape,-50.1509846104,-39.3668719109,-55.1402583681,0.0,10.0,0.0,0.0,0.0,10.0,0.0,0.0,0.0,10.0,0.0852211548825,0.0970722217334,-0.180695479962,1.0,0.0,0.0,0.0,1.0,0.0,0.0,0.0,1.0,-2.22138061523,-5.94204345703,8.09277099609,0.1,0.0,0.0,0.0,0.1,0.0,0.0,0.0,0.1
1446035253070067778,379,1446035253067471027,robocape,-49.7922838884,-39.1766204065,-55.5531566773,0.0,10.0,0.0,0.0,0.0,10.0,0.0,0.0,0.0,10.0,0.115181717146,0.31957933081,-0.0877511579181,1.0,0.0,0.0,0.0,1.0,0.0,0.0,0.0,1.0,-2.44291992188,-7.6676550293,8.30353271484,0.1,0.0,0.0,0.0,0.1,0.0,0.0,0.0,0.1
1446035253090565153,380,1446035253088795900,robocape,-49.3519530485,-39.3218661228,-55.906197602,0.0,10.0,0.0,0.0,0.0,10.0,0.0,0.0,0.0,10.0,0.215183416078,0.127565416215,-0.247407665268,1.0,0.0,0.0,0.0,1.0,0.0,0.0,0.0,1.0,-2.00343383789,-3.11831542969,6.40188720703,0.1,0.0,0.0,0.0,0.1,0.0,0.0,0.0,0.1
1446035253115655445,381,1446035253113862037,robocape,-49.385194613,-39.2555189248,-56.0893065908,0.0,10.0,0.0,0.0,0.0,10.0,0.0,0.0,0.0,10.0,-0.1167796138,0.13275858034,-0.0503337446025,1.0,0.0,0.0,0.0,1.0,0.0,0.0,0.0,1.0,-0.655037841797,-5.80432983398,9.67108886719,0.1,0.0,0.0,0.0,0.1,0.0,0.0,0.0,0.1
1446035253140964820,382,1446035253139055967,robocape,-49.3078455971,-39.4885178437,-56.4719350417,0.0,10.0,0.0,0.0,0.0,10.0,0.0,0.0,0.0,10.0,-0.116246981582,0.101066963369,-0.310258266994,1.0,0.0,0.0,0.0,1.0,0.0,0.0,0.0,1.0,0.221539306641,-8.15144897461,7.43294311523,0.1,0.0,0.0,0.0,0.1,0.0,0.0,0.0,0.1
1446035253169218195,383,1446035253166717052,robocape,-49.1221342542,-39.476008865,-56.9955812243,0.0,10.0,0.0,0.0,0.0,10.0,0.0,0.0,0.0,10.0,-0.0900148448447,0.294545616563,-0.242081343088,1.0,0.0,0.0,0.0,1.0,0.0,0.0,0.0,1.0,-2.38304443359,-8.58375,8.55021972656,0.1,0.0,0.0,0.0,0.1,0.0,0.0,0.0,0.1
1446035253192037528,384,1446035253188740015,robocape,-48.9389646533,-39.5444403474,-57.170408775,0.0,10.0,0.0,0.0,0.0,10.0,0.0,0.0,0.0,10.0,0.0756337749583,0.0633832339439,-0.121040671544,1.0,0.0,0.0,0.0,1.0,0.0,0.0,0.0,1.0,-0.265847167969,-5.76720703125,8.44124633789,0.1,0.0,0.0,0.0,0.1,0.0,0.0,0.0,0.1
1446035253215237903,385,1446035253213479995,robocape,-48.9269730926,-39.4954177177,-57.3264512659,0.0,10.0,0.0,0.0,0.0,10.0,0.0,0.0,0.0,10.0,-0.0647148144889,0.109056446639,-0.0476705835124,1.0,0.0,0.0,0.0,1.0,0.0,0.0,0.0,1.0,-0.694555664063,-3.82963623047,7.97302001953,0.1,0.0,0.0,0.0,0.1,0.0,0.0,0.0,0.1
1446035253240710070,386,1446035253238915920,robocape,-48.8122553358,-39.4878873533,-57.7038967752,0.0,10.0,0.0,0.0,0.0,10.0,0.0,0.0,0.0,10.0,-0.0816258874109,0.210522884171,-0.176567580272,1.0,0.0,0.0,0.0,1.0,0.0,0.0,0.0,1.0,1.23104003906,-5.60195068359,8.1622265625,0.1,0.0,0.0,0.0,0.1,0.0,0.0,0.0,0.1
1446035253269379403,387,1446035253267383098,robocape,-48.9328993634,-39.5861637899,-57.8294231133,0.0,10.0,0.0,0.0,0.0,10.0,0.0,0.0,0.0,10.0,-0.165781777857,0.0217047628841,-0.113983294655,1.0,0.0,0.0,0.0,1.0,0.0,0.0,0.0,1.0,-0.367635498047,-6.10849731445,6.29890136719,0.1,0.0,0.0,0.0,0.1,0.0,0.0,0.0,0.1
1446035253291380862,388,1446035253289608955,robocape,-48.7778743252,-39.518876677,-58.3099754976,0.0,10.0,0.0,0.0,0.0,10.0,0.0,0.0,0.0,10.0,-0.0964064314609,0.295477722944,-0.193079179031,1.0,0.0,0.0,0.0,1.0,0.0,0.0,0.0,1.0,2.06690185547,-9.82556762695,9.43877197266,0.1,0.0,0.0,0.0,0.1,0.0,0.0,0.0,0.1
1446035253315344153,389,1446035253313589096,robocape,-48.2798765236,-39.639474592,-58.6452557663,0.0,10.0,0.0,0.0,0.0,10.0,0.0,0.0,0.0,10.0,0.272840853679,0.124502780961,-0.227300799038,1.0,0.0,0.0,0.0,1.0,0.0,0.0,0.0,1.0,1.79506713867,-6.23303833008,7.2461315918,0.1,0.0,0.0,0.0,0.1,0.0,0.0,0.0,0.1
1446035253340463945,390,1446035253338702917,robocape,-48.0561422776,-39.6957883043,-58.8640662478,0.0,10.0,0.0,0.0,0.0,10.0,0.0,0.0,0.0,10.0,0.0894822126267,0.0910801092807,-0.136620163921,1.0,0.0,0.0,0.0,1.0,0.0,0.0,0.0,1.0,0.796343994141,-2.59859619141,6.44859008789,0.1,0.0,0.0,0.0,0.1,0.0,0.0,0.0,0.1
1446035253368880737,391,1446035253367048025,robocape,-47.9222547444,-39.9101110865,-59.1836331293,0.0,10.0,0.0,0.0,0.0,10.0,0.0,0.0,0.0,10.0,-0.0380832035881,0.067644291688,-0.271376115079,1.0,0.0,0.0,0.0,1.0,0.0,0.0,0.0,1.0,-2.15671508789,-5.44268188477,9.36452636719,0.1,0.0,0.0,0.0,0.1,0.0,0.0,0.0,0.1
1446035253391966737,392,1446035253390127897,robocape,-48.0883478443,-39.8745223944,-59.4795618739,0.0,10.0,0.0,0.0,0.0,10.0,0.0,0.0,0.0,10.0,-0.288686662165,0.176833896381,-0.124236464852,1.0,0.0,0.0,0.0,1.0,0.0,0.0,0.0,1.0,0.227526855469,-4.99122070313,7.30840209961,0.1,0.0,0.0,0.0,0.1,0.0,0.0,0.0,0.1
