%time,field.header.seq,field.header.stamp,field.header.frame_id,field.orientation.x,field.orientation.y,field.orientation.z,field.orientation.w,field.orientation_covariance0,field.orientation_covariance1,field.orientation_covariance2,field.orientation_covariance3,field.orientation_covariance4,field.orientation_covariance5,field.orientation_covariance6,field.orientation_covariance7,field.orientation_covariance8,field.angular_velocity.x,field.angular_velocity.y,field.angular_velocity.z,field.angular_velocity_covariance0,field.angular_velocity_covariance1,field.angular_velocity_covariance2,field.angular_velocity_covariance3,field.angular_velocity_covariance4,field.angular_velocity_covariance5,field.angular_velocity_covariance6,field.angular_velocity_covariance7,field.angular_velocity_covariance8,field.linear_acceleration.x,field.linear_acceleration.y,field.linear_acceleration.z,field.linear_acceleration_covariance0,field.linear_acceleration_covariance1,field.linear_acceleration_covariance2,field.linear_acceleration_covariance3,field.linear_acceleration_covariance4,field.linear_acceleration_covariance5,field.linear_acceleration_covariance6,field.linear_acceleration_covariance7,field.linear_acceleration_covariance8
1452007976621630749,1,1452007976604000091,robocape,-61.7039213825,-25.9453489953,-19.473471719,0.0,10.0,0.0,0.0,0.0,10.0,0.0,0.0,0.0,10.0,0.00492684801665,0.0209058145571,0.00825579937925,1.0,0.0,0.0,0.0,1.0,0.0,0.0,0.0,1.0,0.0143701171875,0.165256347656,10.1045874023,0.1,0.0,0.0,0.0,0.1,0.0,0.0,0.0,0.1
1452007976642000291,2,1452007976638082981,robocape,-61.2673972976,-25.6905334791,-19.4773569988,0.0,10.0,0.0,0.0,0.0,10.0,0.0,0.0,0.0,10.0,0.00466053190764,0.0206394984481,0.00812264132474,1.0,0.0,0.0,0.0,1.0,0.0,0.0,0.0,1.0,0.0131726074219,0.159268798828,10.0938098145,0.1,0.0,0.0,0.0,0.1,0.0,0.0,0.0,0.1
1452007976662648791,3,1452007976659482002,robocape,-60.8380067116,-25.4381370304,-19.4808330039,0.0,10.0,0.0,0.0,0.0,10.0,0.0,0.0,0.0,10.0,0.00452737385313,0.0215716048296,0.00825579937925,1.0,0.0,0.0,0.0,1.0,0.0,0.0,0.0,1.0,0.0179626464844,0.149688720703,10.1117724609,0.1,0.0,0.0,0.0,0.1,0.0,0.0,0.0,0.1
1452007976698666666,4,1452007976694926023,robocape,-60.4148984846,-25.1894589665,-19.4821685502,0.0,10.0,0.0,0.0,0.0,10.0,0.0,0.0,0.0,10.0,0.00532632218016,0.0214384467751,0.00825579937925,1.0,0.0,0.0,0.0,1.0,0.0,0.0,0.0,1.0,-0.00359252929688,0.15328125,10.0938098145,0.1,0.0,0.0,0.0,0.1,0.0,0.0,0.0,0.1
1452007976730301707,5,1452007976726913928,robocape,-59.9986375662,-24.9447151867,-19.4820877053,0.0,10.0,0.0,0.0,0.0,10.0,0.0,0.0,0.0,10.0,0.00532632218016,0.0214384467751,0.00785632521573,1.0,0.0,0.0,0.0,1.0,0.0,0.0,0.0,1.0,-0.00119750976563,0.154478759766,10.1021923828,0.1,0.0,0.0,0.0,0.1,0.0,0.0,0.0,0.1
1452007976763277374,6,1452007976759828090,robocape,-59.5897470337,-24.7028623892,-19.4793794362,0.0,10.0,0.0,0.0,0.0,10.0,0.0,0.0,0.0,10.0,0.00532632218016,0.0211721306661,0.00825579937925,1.0,0.0,0.0,0.0,1.0,0.0,0.0,0.0,1.0,0.0131726074219,0.164058837891,10.1141674805,0.1,0.0,0.0,0.0,0.1,0.0,0.0,0.0,0.1
1452007976797300957,7,1452007976793895006,robocape,-59.1861719151,-24.464329381,-19.475304967,0.0,10.0,0.0,0.0,0.0,10.0,0.0,0.0,0.0,10.0,0.00625842856169,0.0213052887206,0.00825579937925,1.0,0.0,0.0,0.0,1.0,0.0,0.0,0.0,1.0,-0.00119750976563,0.152083740234,10.0938098145,0.1,0.0,0.0,0.0,0.1,0.0,0.0,0.0,0.1
1452007976830189416,8,1452007976826525926,robocape,-58.7904658174,-24.2282919278,-19.4689785994,0.0,10.0,0.0,0.0,0.0,10.0,0.0,0.0,0.0,10.0,0.00559263828917,0.0211721306661,0.00865527354276,1.0,0.0,0.0,0.0,1.0,0.0,0.0,0.0,1.0,-0.00239501953125,0.149688720703,10.1285375977,0.1,0.0,0.0,0.0,0.1,0.0,0.0,0.0,0.1
1452007976865696707,9,1452007976862082004,robocape,-58.4001992184,-23.9968924965,-19.4615534672,0.0,10.0,0.0,0.0,0.0,10.0,0.0,0.0,0.0,10.0,0.00599211245268,0.0209058145571,0.00785632521573,1.0,0.0,0.0,0.0,1.0,0.0,0.0,0.0,1.0,0.00838256835938,0.156873779297,10.132130127,0.1,0.0,0.0,0.0,0.1,0.0,0.0,0.0,0.1
1452007976899596499,10,1452007976896359920,robocape,-58.0167048568,-23.7680476964,-19.4524279269,0.0,10.0,0.0,0.0,0.0,10.0,0.0,0.0,0.0,10.0,0.00572579634367,0.0209058145571,0.00812264132474,1.0,0.0,0.0,0.0,1.0,0.0,0.0,0.0,1.0,0.00598754882813,0.144898681641,10.1105749512,0.1,0.0,0.0,0.0,0.1,0.0,0.0,0.0,0.1
1452007976933500749,11,1452007976929757118,robocape,-57.6396645994,-23.542140933,-19.4423264808,0.0,10.0,0.0,0.0,0.0,10.0,0.0,0.0,0.0,10.0,0.00532632218016,0.0210389726116,0.00798948327024,1.0,0.0,0.0,0.0,1.0,0.0,0.0,0.0,1.0,0.00598754882813,0.159268798828,10.1201550293,0.1,0.0,0.0,0.0,0.1,0.0,0.0,0.0,0.1
1452007976966101166,12,1452007976962316036,robocape,-57.2673968805,-23.3180327715,-19.4330659309,0.0,10.0,0.0,0.0,0.0,10.0,0.0,0.0,0.0,10.0,0.00559263828917,0.0222373951022,0.00798948327024,1.0,0.0,0.0,0.0,1.0,0.0,0.0,0.0,1.0,0.00119750976563,0.162861328125,10.0974023437,0.1,0.0,0.0,0.0,0.1,0.0,0.0,0.0,0.1
1452007976999640374,13,1452007976995115041,robocape,-56.9010325832,-23.0977084487,-19.420579971,0.0,10.0,0.0,0.0,0.0,10.0,0.0,0.0,0.0,10.0,0.00599211245268,0.0211721306661,0.00812264132474,1.0,0.0,0.0,0.0,1.0,0.0,0.0,0.0,1.0,0.0047900390625,0.159268798828,10.1045874023,0.1,0.0,0.0,0.0,0.1,0.0,0.0,0.0,0.1
1452007977032089291,14,1452007977028171062,robocape,-56.5409162979,-22.8808758694,-19.4065200711,0.0,10.0,0.0,0.0,0.0,10.0,0.0,0.0,0.0,10.0,0.00559263828917,0.0207726565026,0.00785632521573,1.0,0.0,0.0,0.0,1.0,0.0,0.0,0.0,1.0,0.00119750976563,0.164058837891,10.1093774414,0.1,0.0,0.0,0.0,0.1,0.0,0.0,0.0,0.1
1452007977065615374,15,1452007977062038898,robocape,-56.1865226364,-22.665132965,-19.3921433374,0.0,10.0,0.0,0.0,0.0,10.0,0.0,0.0,0.0,10.0,0.00532632218016,0.0215716048296,0.00838895743375,1.0,0.0,0.0,0.0,1.0,0.0,0.0,0.0,1.0,0.0047900390625,0.152083740234,10.1345251465,0.1,0.0,0.0,0.0,0.1,0.0,0.0,0.0,0.1
1452007977099972666,16,1452007977095983028,robocape,-55.8367234169,-22.4525881608,-19.3774011514,0.0,10.0,0.0,0.0,0.0,10.0,0.0,0.0,0.0,10.0,0.00559263828917,0.0217047628841,0.00798948327024,1.0,0.0,0.0,0.0,1.0,0.0,0.0,0.0,1.0,0.0107775878906,0.146096191406,10.1165625,0.1,0.0,0.0,0.0,0.1,0.0,0.0,0.0,0.1
1452007977131525374,17,1452007977128173112,robocape,-55.4927524883,-22.2426914768,-19.3610338745,0.0,10.0,0.0,0.0,0.0,10.0,0.0,0.0,0.0,10.0,0.00532632218016,0.0214384467751,0.00812264132474,1.0,0.0,0.0,0.0,1.0,0.0,0.0,0.0,1.0,0.00239501953125,0.147293701172,10.100994873,0.1,0.0,0.0,0.0,0.1,0.0,0.0,0.0,0.1
1452007977164569791,18,1452007977161317110,robocape,-55.1536590437,-22.0361830189,-19.342977399,0.0,10.0,0.0,0.0,0.0,10.0,0.0,0.0,0.0,10.0,0.00559263828917,0.0209058145571,0.00798948327024,1.0,0.0,0.0,0.0,1.0,0.0,0.0,0.0,1.0,0.0143701171875,0.147293701172,10.100994873,0.1,0.0,0.0,0.0,0.1,0.0,0.0,0.0,0.1
1452007977199052582,19,1452007977195231914,robocape,-54.8192960369,-21.8312166071,-19.3238825005,0.0,10.0,0.0,0.0,0.0,10.0,0.0,0.0,0.0,10.0,0.00585895439817,0.0211721306661,0.00852211548825,1.0,0.0,0.0,0.0,1.0,0.0,0.0,0.0,1.0,-0.00239501953125,0.158071289063,10.1093774414,0.1,0.0,0.0,0.0,0.1,0.0,0.0,0.0,0.1
1452007977233677291,20,1452007977230088949,robocape,-54.4886394662,-21.628176696,-19.3054482533,0.0,10.0,0.0,0.0,0.0,10.0,0.0,0.0,0.0,10.0,0.00625842856169,0.0219710789932,0.00838895743375,1.0,0.0,0.0,0.0,1.0,0.0,0.0,0.0,1.0,-0.130528564453,0.144898681641,10.1357226563,0.1,0.0,0.0,0.0,0.1,0.0,0.0,0.0,0.1
1452007977265563666,21,1452007977262229919,robocape,-54.2571170172,-21.3245107816,-19.2062245786,0.0,10.0,0.0,0.0,0.0,10.0,0.0,0.0,0.0,10.0,-0.0284958236638,0.0215716048296,0.0751011427402,1.0,0.0,0.0,0.0,1.0,0.0,0.0,0.0,1.0,0.00359252929688,0.820294189453,10.1261425781,0.1,0.0,0.0,0.0,0.1,0.0,0.0,0.0,0.1
1452007977297651124,22,1452007977294433116,robocape,-54.4813902552,-20.6860325217,-18.8376255881,0.0,10.0,0.0,0.0,0.0,10.0,0.0,0.0,0.0,10.0,-0.24035028838,0.0127831732324,0.285224552747,1.0,0.0,0.0,0.0,1.0,0.0,0.0,0.0,1.0,-0.110170898438,-0.350870361328,10.0614770508,0.1,0.0,0.0,0.0,0.1,0.0,0.0,0.0,0.1
1452007977330882624,23,1452007977327539920,robocape,-54.5412581138,-20.1411013422,-18.5380668037,0.0,10.0,0.0,0.0,0.0,10.0,0.0,0.0,0.0,10.0,-0.155129133497,0.0143810698864,0.234225017872,1.0,0.0,0.0,0.0,1.0,0.0,0.0,0.0,1.0,0.0922082519531,-1.27175537109,10.1476977539,0.1,0.0,0.0,0.0,0.1,0.0,0.0,0.0,0.1
1452007977365399958,24,1452007977362344026,robocape,-53.921883162,-19.9185330746,-18.4790991569,0.0,10.0,0.0,0.0,0.0,10.0,0.0,0.0,0.0,10.0,0.224371321839,0.0255663464648,0.0596548084178,1.0,0.0,0.0,0.0,1.0,0.0,0.0,0.0,1.0,0.305364990234,-1.31007568359,10.0830322266,0.1,0.0,0.0,0.0,0.1,0.0,0.0,0.0,0.1
1452007977397547499,25,1452007977394516944,robocape,-52.9801053022,-19.9133188275,-18.5658179777,0.0,10.0,0.0,0.0,0.0,10.0,0.0,0.0,0.0,10.0,0.394547315495,0.0214384467751,-0.0628506017259,1.0,0.0,0.0,0.0,1.0,0.0,0.0,0.0,1.0,-0.229921875,-0.372425537109,10.1153649902,0.1,0.0,0.0,0.0,0.1,0.0,0.0,0.0,0.1
1452007977431474291,26,1452007977427813053,robocape,-51.7588532878,-20.1412258228,-18.835560055,0.0,10.0,0.0,0.0,0.0,10.0,0.0,0.0,0.0,10.0,0.523311154201,0.0199737081756,-0.208791829462,1.0,0.0,0.0,0.0,1.0,0.0,0.0,0.0,1.0,-0.293389892578,0.847836914063,10.1297351074,0.1,0.0,0.0,0.0,0.1,0.0,0.0,0.0,0.1
1452007977464230749,27,1452007977461131095,robocape,-50.894460647,-20.165542928,-18.9556367808,0.0,10.0,0.0,0.0,0.0,10.0,0.0,0.0,0.0,10.0,0.33968619704,0.0207726565026,-0.0922785317712,1.0,0.0,0.0,0.0,1.0,0.0,0.0,0.0,1.0,0.150886230469,1.40587646484,10.2363134766,0.1,0.0,0.0,0.0,0.1,0.0,0.0,0.0,0.1
1452007977497751749,28,1452007977494618892,robocape,-50.4916274946,-20.0098080672,-18.9426674397,0.0,10.0,0.0,0.0,0.0,10.0,0.0,0.0,0.0,10.0,0.083223784065,0.0214384467751,0.00226368692657,1.0,0.0,0.0,0.0,1.0,0.0,0.0,0.0,1.0,0.120948486328,1.66932861328,10.0063916016,0.1,0.0,0.0,0.0,0.1,0.0,0.0,0.0,0.1
1452007977530699208,29,1452007977527281045,robocape,-50.3865948207,-19.8025094865,-18.9086354134,0.0,10.0,0.0,0.0,0.0,10.0,0.0,0.0,0.0,10.0,-0.10199906975,0.0246342400832,0.0133158054504,1.0,0.0,0.0,0.0,1.0,0.0,0.0,0.0,1.0,0.067060546875,1.40228393555,10.1081799316,0.1,0.0,0.0,0.0,0.1,0.0,0.0,0.0,0.1
1452007977563663291,30,1452007977560477018,robocape,-50.3498240211,-19.6396251629,-18.9091460219,0.0,10.0,0.0,0.0,0.0,10.0,0.0,0.0,0.0,10.0,-0.157259662369,0.0209058145571,-0.0219710789932,1.0,0.0,0.0,0.0,1.0,0.0,0.0,0.0,1.0,-0.0131726074219,0.547261962891,10.1249450684,0.1,0.0,0.0,0.0,0.1,0.0,0.0,0.0,0.1
1452007977597918791,31,1452007977594914913,robocape,-50.2422404496,-19.5224438833,-18.9451194169,0.0,10.0,0.0,0.0,0.0,10.0,0.0,0.0,0.0,10.0,-0.121440145708,0.0205063403936,-0.0492684801665,1.0,0.0,0.0,0.0,1.0,0.0,0.0,0.0,1.0,-0.0742456054688,0.358055419922,10.0722546387,0.1,0.0,0.0,0.0,0.1,0.0,0.0,0.0,0.1
1452007977629255791,32,1452007977626246929,robocape,-50.1161487318,-19.4313224186,-19.0019726083,0.0,10.0,0.0,0.0,0.0,10.0,0.0,0.0,0.0,10.0,-0.114915401037,0.0201068662301,-0.0664458691975,1.0,0.0,0.0,0.0,1.0,0.0,0.0,0.0,1.0,-0.0131726074219,0.506546630859,10.1189575195,0.1,0.0,0.0,0.0,0.1,0.0,0.0,0.0,0.1
1452007977662447583,33,1452007977659245014,robocape,-50.2014475885,-19.2265522502,-18.9594637116,0.0,10.0,0.0,0.0,0.0,10.0,0.0,0.0,0.0,10.0,-0.221708160749,0.0183758115215,0.00452737385313,1.0,0.0,0.0,0.0,1.0,0.0,0.0,0.0,1.0,0.0383203125,0.993933105469,10.0890197754,0.1,0.0,0.0,0.0,0.1,0.0,0.0,0.0,0.1
1452007977695986749,34,1452007977692825078,robocape,-50.6681744472,-18.7716745974,-18.7033403219,0.0,10.0,0.0,0.0,0.0,10.0,0.0,0.0,0.0,10.0,-0.406664698455,0.0167779148675,0.164716513421,1.0,0.0,0.0,0.0,1.0,0.0,0.0,0.0,1.0,-0.0395178222656,0.880169677734,10.100994873,0.1,0.0,0.0,0.0,0.1,0.0,0.0,0.0,0.1
1452007977728827624,35,1452007977725790977,robocape,-51.1919235332,-18.3250003231,-18.4362394074,0.0,10.0,0.0,0.0,0.0,10.0,0.0,0.0,0.0,10.0,-0.446878430915,0.00719053494321,0.162452826495,1.0,0.0,0.0,0.0,1.0,0.0,0.0,0.0,1.0,-0.0323327636719,-0.706530761719,10.0818347168,0.1,0.0,0.0,0.0,0.1,0.0,0.0,0.0,0.1
1452007977761885791,36,1452007977758797883,robocape,-51.309846791,-17.977951275,-18.2417989708,0.0,10.0,0.0,0.0,0.0,10.0,0.0,0.0,0.0,10.0,-0.205063403936,0.00958737992429,0.120508039326,1.0,0.0,0.0,0.0,1.0,0.0,0.0,0.0,1.0,-0.160466308594,-1.66214355469,10.080637207,0.1,0.0,0.0,0.0,0.1,0.0,0.0,0.0,0.1
1452007977795174916,37,1452007977791897058,robocape,-50.9383569532,-17.7767917547,-18.1881252273,0.0,10.0,0.0,0.0,0.0,10.0,0.0,0.0,0.0,10.0,0.0781637779938,0.0253000303558,0.0403468905147,1.0,0.0,0.0,0.0,1.0,0.0,0.0,0.0,1.0,0.507744140625,-1.75674682617,10.0351318359,0.1,0.0,0.0,0.0,0.1,0.0,0.0,0.0,0.1
1452007977828271291,38,1452007977825035095,robocape,-50.2648656321,-17.6465580327,-18.1867573271,0.0,10.0,0.0,0.0,0.0,10.0,0.0,0.0,0.0,10.0,0.263919264027,0.0284958236638,0.0111852765783,1.0,0.0,0.0,0.0,1.0,0.0,0.0,0.0,1.0,0.112565917969,-0.828676757813,10.0518969727,0.1,0.0,0.0,0.0,0.1,0.0,0.0,0.0,0.1
1452007977862814916,39,1452007977859704971,robocape,-49.3784983768,-17.5904089892,-18.2463475493,0.0,10.0,0.0,0.0,0.0,10.0,0.0,0.0,0.0,10.0,0.388555203043,0.0308926686449,-0.0283626656093,1.0,0.0,0.0,0.0,1.0,0.0,0.0,0.0,1.0,-0.452658691406,-0.295784912109,10.0794396973,0.1,0.0,0.0,0.0,0.1,0.0,0.0,0.0,0.1
1452007977894704499,40,1452007977891650915,robocape,-48.3299508585,-17.7078860552,-18.4570332914,0.0,10.0,0.0,0.0,0.0,10.0,0.0,0.0,0.0,10.0,0.45353633364,0.0282295075548,-0.145941227736,1.0,0.0,0.0,0.0,1.0,0.0,0.0,0.0,1.0,-0.233514404297,0.506546630859,10.0435144043,0.1,0.0,0.0,0.0,0.1,0.0,0.0,0.0,0.1
1452007977928258624,41,1452007977925235033,robocape,-47.3904384405,-17.765467559,-18.6160840041,0.0,10.0,0.0,0.0,0.0,10.0,0.0,0.0,0.0,10.0,0.400273111839,0.0268979270098,-0.10879013053,1.0,0.0,0.0,0.0,1.0,0.0,0.0,0.0,1.0,-0.00598754882813,1.39629638672,10.0770446777,0.1,0.0,0.0,0.0,0.1,0.0,0.0,0.0,0.1
1452007977961490041,42,1452007977958478927,robocape,-46.9142750585,-17.6310093144,-18.6008384838,0.0,10.0,0.0,0.0,0.0,10.0,0.0,0.0,0.0,10.0,0.155262291552,0.0247673981377,0.00825579937925,1.0,0.0,0.0,0.0,1.0,0.0,0.0,0.0,1.0,0.119750976563,1.20110229492,10.1237475586,0.1,0.0,0.0,0.0,0.1,0.0,0.0,0.0,0.1
1452007977994718833,43,1452007977991668939,robocape,-46.6602724333,-17.5025627831,-18.5944742291,0.0,10.0,0.0,0.0,0.0,10.0,0.0,0.0,0.0,10.0,0.0138484376684,0.0218379209386,-0.00932106381528,1.0,0.0,0.0,0.0,1.0,0.0,0.0,0.0,1.0,0.0131726074219,1.22026245117,10.0770446777,0.1,0.0,0.0,0.0,0.1,0.0,0.0,0.0,0.1
1452007978028735666,44,1452007978025669097,robocape,-46.4431093157,-17.4576669053,-18.673662993,0.0,10.0,0.0,0.0,0.0,10.0,0.0,0.0,0.0,10.0,-0.0307595105904,0.0209058145571,-0.0769653555033,1.0,0.0,0.0,0.0,1.0,0.0,0.0,0.0,1.0,0.0275427246094,0.850231933594,10.1273400879,0.1,0.0,0.0,0.0,0.1,0.0,0.0,0.0,0.1
1452007978061729875,45,1452007978058536052,robocape,-46.270320354,-17.5158335998,-18.8536113597,0.0,10.0,0.0,0.0,0.0,10.0,0.0,0.0,0.0,10.0,-0.0849548387735,0.0173105470855,-0.159257033187,1.0,0.0,0.0,0.0,1.0,0.0,0.0,0.0,1.0,-0.0359252929688,1.56155273438,10.0542919922,0.1,0.0,0.0,0.0,0.1,0.0,0.0,0.0,0.1
1452007978095039333,46,1452007978091916084,robocape,-46.402201095,-17.5395897395,-19.0056317817,0.0,10.0,0.0,0.0,0.0,10.0,0.0,0.0,0.0,10.0,-0.270710324807,0.0141147537774,-0.152465972407,1.0,0.0,0.0,0.0,1.0,0.0,0.0,0.0,1.0,0.107775878906,1.81183227539,10.0566870117,0.1,0.0,0.0,0.0,0.1,0.0,0.0,0.0,0.1
1452007978128269250,47,1452007978125189065,robocape,-47.0451023581,-17.292295334,-18.87268899,0.0,10.0,0.0,0.0,0.0,10.0,0.0,0.0,0.0,10.0,-0.522512205874,0.00359526747161,0.0358195166616,1.0,0.0,0.0,0.0,1.0,0.0,0.0,0.0,1.0,-0.247884521484,1.80704223633,10.0004040527,0.1,0.0,0.0,0.0,0.1,0.0,0.0,0.0,0.1
1452007978161573875,48,1452007978158395051,robocape,-48.001307061,-16.9875398569,-18.6629198655,0.0,10.0,0.0,0.0,0.0,10.0,0.0,0.0,0.0,10.0,-0.710664536888,-0.0106526443603,0.0699079786146,1.0,0.0,0.0,0.0,1.0,0.0,0.0,0.0,1.0,-0.409548339844,-0.451461181641,10.1441052246,0.1,0.0,0.0,0.0,0.1,0.0,0.0,0.0,0.1
1452007978194566208,49,1452007978191494941,robocape,-48.5245758122,-16.7927103985,-18.5426452719,0.0,10.0,0.0,0.0,0.0,10.0,0.0,0.0,0.0,10.0,-0.465786874655,-0.0106526443603,0.0147805440499,1.0,0.0,0.0,0.0,1.0,0.0,0.0,0.0,1.0,0.118553466797,-1.9579284668,10.1033898926,0.1,0.0,0.0,0.0,0.1,0.0,0.0,0.0,0.1
1452007978228068041,50,1452007978225011110,robocape,-48.5421092795,-16.6606538067,-18.5227186094,0.0,10.0,0.0,0.0,0.0,10.0,0.0,0.0,0.0,10.0,-0.166980200348,0.0134489635049,-0.0190416017941,1.0,0.0,0.0,0.0,1.0,0.0,0.0,0.0,1.0,0.529299316406,-2.3722668457,9.99202148437,0.1,0.0,0.0,0.0,0.1,0.0,0.0,0.0,0.1
1452007978263315625,51,1452007978260245084,robocape,-48.124984991,-16.5152630189,-18.5076662604,0.0,10.0,0.0,0.0,0.0,10.0,0.0,0.0,0.0,10.0,0.113983294655,0.0286289817184,0.0102531701968,1.0,0.0,0.0,0.0,1.0,0.0,0.0,0.0,1.0,0.00718505859375,-2.1495300293,10.0267492676,0.1,0.0,0.0,0.0,0.1,0.0,0.0,0.0,0.1
1452007978295380791,52,1452007978292378902,robocape,-47.3770226441,-16.3706901336,-18.5062154559,0.0,10.0,0.0,0.0,0.0,10.0,0.0,0.0,0.0,10.0,0.32610407548,0.0402137324602,0.0243679239742,1.0,0.0,0.0,0.0,1.0,0.0,0.0,0.0,1.0,0.28740234375,-1.23942260742,10.0135766602,0.1,0.0,0.0,0.0,0.1,0.0,0.0,0.0,0.1
1452007978328196041,53,1452007978325115919,robocape,-46.4587281954,-16.2528991514,-18.5299864711,0.0,10.0,0.0,0.0,0.0,10.0,0.0,0.0,0.0,10.0,0.430899464375,0.0435426838228,0.0138484376684,1.0,0.0,0.0,0.0,1.0,0.0,0.0,0.0,1.0,0.170046386719,-0.24908203125,10.1021923828,0.1,0.0,0.0,0.0,0.1,0.0,0.0,0.0,0.1
1452007978361484458,54,1452007978358282089,robocape,-45.5494952252,-16.1470147545,-18.5385452587,0.0,10.0,0.0,0.0,0.0,10.0,0.0,0.0,0.0,10.0,0.430100516048,0.034354778062,0.0143810698864,1.0,0.0,0.0,0.0,1.0,0.0,0.0,0.0,1.0,-0.423918457031,0.580792236328,10.2470910645,0.1,0.0,0.0,0.0,0.1,0.0,0.0,0.0,0.1
1452007978394471458,55,1452007978391424894,robocape,-44.8217527371,-16.0788447709,-18.5750243166,0.0,10.0,0.0,0.0,0.0,10.0,0.0,0.0,0.0,10.0,0.311190373376,0.0274305592278,-0.0205063403936,1.0,0.0,0.0,0.0,1.0,0.0,0.0,0.0,1.0,-0.273032226563,1.04422851562,10.1548828125,0.1,0.0,0.0,0.0,0.1,0.0,0.0,0.0,0.1
1452007978427776625,56,1452007978424751996,robocape,-44.3667326262,-15.9567085664,-18.5698227156,0.0,10.0,0.0,0.0,0.0,10.0,0.0,0.0,0.0,10.0,0.153930711007,0.0292947719909,0.0031957933081,1.0,0.0,0.0,0.0,1.0,0.0,0.0,0.0,1.0,0.0383203125,1.05380859375,10.157277832,0.1,0.0,0.0,0.0,0.1,0.0,0.0,0.0,0.1
1452007978461290291,57,1452007978458183050,robocape,-44.1081012692,-15.8135352291,-18.5308466623,0.0,10.0,0.0,0.0,0.0,10.0,0.0,0.0,0.0,10.0,0.0411458388417,0.0230363434292,0.0151800182135,1.0,0.0,0.0,0.0,1.0,0.0,0.0,0.0,1.0,0.239501953125,1.0382409668,10.0662670898,0.1,0.0,0.0,0.0,0.1,0.0,0.0,0.0,0.1
1452007978494888000,58,1452007978491792917,robocape,-44.1264235148,-15.5807683942,-18.3980359605,0.0,10.0,0.0,0.0,0.0,10.0,0.0,0.0,0.0,10.0,-0.107724866094,0.0211721306661,0.0735032460862,1.0,0.0,0.0,0.0,1.0,0.0,0.0,0.0,1.0,0.108973388672,0.93884765625,10.0363293457,0.1,0.0,0.0,0.0,0.1,0.0,0.0,0.0,0.1
1452007978527846833,59,1452007978524776935,robocape,-44.2890393442,-15.3413919172,-18.2585136701,0.0,10.0,0.0,0.0,0.0,10.0,0.0,0.0,0.0,10.0,-0.19600865623,0.0193079179031,0.0724379816502,1.0,0.0,0.0,0.0,1.0,0.0,0.0,0.0,1.0,-0.0299377441406,0.690963134766,10.0830322266,0.1,0.0,0.0,0.0,0.1,0.0,0.0,0.0,0.1
1452007978561557041,60,1452007978558274984,robocape,-44.5214302706,-15.1488422947,-18.1626474735,0.0,10.0,0.0,0.0,0.0,10.0,0.0,0.0,0.0,10.0,-0.250736616631,0.0154463343225,0.0344879361165,1.0,0.0,0.0,0.0,1.0,0.0,0.0,0.0,1.0,-0.141306152344,0.387993164063,10.1357226563,0.1,0.0,0.0,0.0,0.1,0.0,0.0,0.0,0.1
1452007978595389541,61,1452007978591963052,robocape,-44.7225585909,-14.9916179896,-18.0874262587,0.0,10.0,0.0,0.0,0.0,10.0,0.0,0.0,0.0,10.0,-0.237953443399,0.00972053797879,0.0145142279409,1.0,0.0,0.0,0.0,1.0,0.0,0.0,0.0,1.0,-0.0814306640625,-0.0838256835938,10.1429077148,0.1,0.0,0.0,0.0,0.1,0.0,0.0,0.0,0.1
1452007978628352208,62,1452007978624927997,robocape,-44.8043711986,-14.8455615732,-18.0296609314,0.0,10.0,0.0,0.0,0.0,10.0,0.0,0.0,0.0,10.0,-0.168045464784,0.0135821215594,0.00945422186978,1.0,0.0,0.0,0.0,1.0,0.0,0.0,0.0,1.0,-0.117355957031,-0.695753173828,10.096204834,0.1,0.0,0.0,0.0,0.1,0.0,0.0,0.0,0.1
1452007978661363750,63,1452007978658067941,robocape,-44.7227006926,-14.7090338981,-17.9833677882,0.0,10.0,0.0,0.0,0.0,10.0,0.0,0.0,0.0,10.0,-0.068443240015,0.0167779148675,0.00958737992429,1.0,0.0,0.0,0.0,1.0,0.0,0.0,0.0,1.0,0.319735107422,-0.837059326172,10.0650695801,0.1,0.0,0.0,0.0,0.1,0.0,0.0,0.0,0.1
1452007978694751916,64,1452007978691526889,robocape,-44.4715470976,-14.5882259337,-17.9604916352,0.0,10.0,0.0,0.0,0.0,10.0,0.0,0.0,0.0,10.0,0.033289513626,0.0219710789932,0.00306263525359,1.0,0.0,0.0,0.0,1.0,0.0,0.0,0.0,1.0,0.0934057617188,-0.759221191406,10.1117724609,0.1,0.0,0.0,0.0,0.1,0.0,0.0,0.0,0.1
1452007978731462875,65,1452007978727616071,robocape,-44.0508570595,-14.4655356529,-17.9406772859,0.0,10.0,0.0,0.0,0.0,10.0,0.0,0.0,0.0,10.0,0.139949115284,0.0267647689553,0.0111852765783,1.0,0.0,0.0,0.0,1.0,0.0,0.0,0.0,1.0,-0.047900390625,-0.476608886719,10.1057849121,0.1,0.0,0.0,0.0,0.1,0.0,0.0,0.0,0.1
1452007978761455542,66,1452007978758304119,robocape,-43.5921802933,-14.351072672,-17.9309003084,0.0,10.0,0.0,0.0,0.0,10.0,0.0,0.0,0.0,10.0,0.163384932876,0.0282295075548,0.00639158661619,1.0,0.0,0.0,0.0,1.0,0.0,0.0,0.0,1.0,0.161663818359,0.0047900390625,10.0626745605,0.1,0.0,0.0,0.0,0.1,0.0,0.0,0.0,0.1
1452007978794794625,67,1452007978791718959,robocape,-43.1838624203,-14.2317290152,-17.9082469681,0.0,10.0,0.0,0.0,0.0,10.0,0.0,0.0,0.0,10.0,0.136753321976,0.0255663464648,0.0114515926873,1.0,0.0,0.0,0.0,1.0,0.0,0.0,0.0,1.0,-0.214354248047,0.372425537109,10.0614770508,0.1,0.0,0.0,0.0,0.1,0.0,0.0,0.0,0.1
1452007978828032000,68,1452007978824923038,robocape,-42.8760623309,-14.1152193911,-17.8877708897,0.0,10.0,0.0,0.0,0.0,10.0,0.0,0.0,0.0,10.0,0.0761664071763,0.0243679239742,0.00545948023466,1.0,0.0,0.0,0.0,1.0,0.0,0.0,0.0,1.0,0.0359252929688,0.653840332031,10.1896105957,0.1,0.0,0.0,0.0,0.1,0.0,0.0,0.0,0.1
1452007978862912417,69,1452007978859702110,robocape,-42.7102864567,-13.9878107991,-17.8477091852,0.0,10.0,0.0,0.0,0.0,10.0,0.0,0.0,0.0,10.0,-0.00585895439817,0.0205063403936,0.0114515926873,1.0,0.0,0.0,0.0,1.0,0.0,0.0,0.0,1.0,-0.0682580566406,0.665815429688,10.1429077148,0.1,0.0,0.0,0.0,0.1,0.0,0.0,0.0,0.1
1452007978895702083,70,1452007978892585039,robocape,-42.6635034785,-13.859320877,-17.8032832134,0.0,10.0,0.0,0.0,0.0,10.0,0.0,0.0,0.0,10.0,-0.0772316716123,0.018242653467,0.00878843159726,1.0,0.0,0.0,0.0,1.0,0.0,0.0,0.0,1.0,0.0383203125,0.4215234375,10.1249450684,0.1,0.0,0.0,0.0,0.1,0.0,0.0,0.0,0.1
1452007978929299375,71,1452007978926183938,robocape,-42.6645491199,-13.729925525,-17.7563991063,0.0,10.0,0.0,0.0,0.0,10.0,0.0,0.0,0.0,10.0,-0.105727495276,0.01744370514,0.00838895743375,1.0,0.0,0.0,0.0,1.0,0.0,0.0,0.0,1.0,-0.0275427246094,0.028740234375,10.1045874023,0.1,0.0,0.0,0.0,0.1,0.0,0.0,0.0,0.1
1452007978962769458,72,1452007978959505081,robocape,-42.6284656002,-13.5912125984,-17.6991877055,0.0,10.0,0.0,0.0,0.0,10.0,0.0,0.0,0.0,10.0,-0.0805606229749,0.0183758115215,0.017976337358,1.0,0.0,0.0,0.0,1.0,0.0,0.0,0.0,1.0,-0.128133544922,-0.238304443359,10.0698596191,0.1,0.0,0.0,0.0,0.1,0.0,0.0,0.0,0.1
1452007978996430875,73,1452007978992804050,robocape,-42.6399657456,-13.3777625348,-17.555063371,0.0,10.0,0.0,0.0,0.0,10.0,0.0,0.0,0.0,10.0,-0.0920122156622,0.0178431793035,0.0789627263208,1.0,0.0,0.0,0.0,1.0,0.0,0.0,0.0,1.0,0.086220703125,-0.447868652344,10.0770446777,0.1,0.0,0.0,0.0,0.1,0.0,0.0,0.0,0.1
1452007979028553833,74,1452007979025440931,robocape,-42.4398015069,-13.2231169512,-17.4836356371,0.0,10.0,0.0,0.0,0.0,10.0,0.0,0.0,0.0,10.0,0.0239684498107,0.0226368692657,0.0378168874791,1.0,0.0,0.0,0.0,1.0,0.0,0.0,0.0,1.0,0.189206542969,-0.629890136719,10.0662670898,0.1,0.0,0.0,0.0,0.1,0.0,0.0,0.0,0.1
1452007979063316958,75,1452007979059856891,robocape,-42.1042987781,-13.0913607939,-17.4400143672,0.0,10.0,0.0,0.0,0.0,10.0,0.0,0.0,0.0,10.0,0.102664860023,0.0253000303558,0.0245010820287,1.0,0.0,0.0,0.0,1.0,0.0,0.0,0.0,1.0,0.0,-0.340092773437,10.1129699707,0.1,0.0,0.0,0.0,0.1,0.0,0.0,0.0,0.1
1452007979096422042,76,1452007979093041896,robocape,-41.7212398051,-12.9545050159,-17.3916530168,0.0,10.0,0.0,0.0,0.0,10.0,0.0,0.0,0.0,10.0,0.13422331894,0.0268979270098,0.0307595105904,1.0,0.0,0.0,0.0,1.0,0.0,0.0,0.0,1.0,0.0179626464844,-0.0886157226563,10.100994873,0.1,0.0,0.0,0.0,0.1,0.0,0.0,0.0,0.1
1452007979129789542,77,1452007979126485109,robocape,-41.354389043,-12.7997616841,-17.3198009815,0.0,10.0,0.0,0.0,0.0,10.0,0.0,0.0,0.0,10.0,0.130361735359,0.0266316109008,0.0466053190764,1.0,0.0,0.0,0.0,1.0,0.0,0.0,0.0,1.0,-0.165256347656,0.458646240234,10.0698596191,0.1,0.0,0.0,0.0,0.1,0.0,0.0,0.0,0.1
1452007979162308250,78,1452007979158983945,robocape,-41.2088459251,-12.581249854,-17.1607033135,0.0,10.0,0.0,0.0,0.0,10.0,0.0,0.0,0.0,10.0,0.0133158054504,0.0211721306661,0.0968059056244,1.0,0.0,0.0,0.0,1.0,0.0,0.0,0.0,1.0,0.0826281738281,0.489781494141,10.1117724609,0.1,0.0,0.0,0.0,0.1,0.0,0.0,0.0,0.1
1452007979200023750,79,1452007979196053028,robocape,-41.0524595137,-12.3958809028,-17.0428648359,0.0,10.0,0.0,0.0,0.0,10.0,0.0,0.0,0.0,10.0,0.0131826473959,0.0223705531567,0.0692421883421,1.0,0.0,0.0,0.0,1.0,0.0,0.0,0.0,1.0,-0.047900390625,0.0934057617188,10.0985998535,0.1,0.0,0.0,0.0,0.1,0.0,0.0,0.0,0.1
1452007979231257708,80,1452007979227550983,robocape,-40.8491608886,-12.2562350639,-16.9746393598,0.0,10.0,0.0,0.0,0.0,10.0,0.0,0.0,0.0,10.0,0.0334226716805,0.0215716048296,0.0350205683345,1.0,0.0,0.0,0.0,1.0,0.0,0.0,0.0,1.0,0.0215551757813,0.122145996094,10.0926123047,0.1,0.0,0.0,0.0,0.1,0.0,0.0,0.0,0.1
1452007979264928458,81,1452007979261794090,robocape,-40.5973714002,-12.1722972299,-16.9724867892,0.0,10.0,0.0,0.0,0.0,10.0,0.0,0.0,0.0,10.0,0.052064799311,0.0219710789932,-0.00958737992429,1.0,0.0,0.0,0.0,1.0,0.0,0.0,0.0,1.0,-0.0371228027344,0.271834716797,10.1069824219,0.1,0.0,0.0,0.0,0.1,0.0,0.0,0.0,0.1
1452007979298122583,82,1452007979294981002,robocape,-40.2751267849,-12.1856630771,-17.0874919343,0.0,10.0,0.0,0.0,0.0,10.0,0.0,0.0,0.0,10.0,0.0751011427402,0.0221042370477,-0.0893490545722,1.0,0.0,0.0,0.0,1.0,0.0,0.0,0.0,1.0,0.00119750976563,0.45984375,10.1417102051,0.1,0.0,0.0,0.0,0.1,0.0,0.0,0.0,0.1
1452007979332992875,83,1452007979329823017,robocape,-40.0467456013,-12.1967769919,-17.1980533649,0.0,10.0,0.0,0.0,0.0,10.0,0.0,0.0,0.0,10.0,0.0203731823391,0.0203731823391,-0.0904143190082,1.0,0.0,0.0,0.0,1.0,0.0,0.0,0.0,1.0,-0.0131726074219,0.784368896484,10.1057849121,0.1,0.0,0.0,0.0,0.1,0.0,0.0,0.0,0.1
1452007979366245667,84,1452007979362176895,robocape,-40.0014868032,-12.1758868779,-17.2636136539,0.0,10.0,0.0,0.0,0.0,10.0,0.0,0.0,0.0,10.0,-0.0813595713019,0.0167779148675,-0.067644291688,1.0,0.0,0.0,0.0,1.0,0.0,0.0,0.0,1.0,0.0167651367188,0.706530761719,10.1081799316,0.1,0.0,0.0,0.0,0.1,0.0,0.0,0.0,0.1
1452007979402160500,85,1452007979398905038,robocape,-40.1695395997,-12.1075442516,-17.2640857493,0.0,10.0,0.0,0.0,0.0,10.0,0.0,0.0,0.0,10.0,-0.198538659265,0.0127831732324,-0.03222424919,1.0,0.0,0.0,0.0,1.0,0.0,0.0,0.0,1.0,-0.0610729980469,0.0155676269531,10.1249450684,0.1,0.0,0.0,0.0,0.1,0.0,0.0,0.0,0.1
1452007979432352959,86,1452007979428596019,robocape,-40.2536845488,-12.050794758,-17.2824247056,0.0,10.0,0.0,0.0,0.0,10.0,0.0,0.0,0.0,10.0,-0.151800182135,0.0149137021044,-0.0406132066237,1.0,0.0,0.0,0.0,1.0,0.0,0.0,0.0,1.0,-0.189206542969,-0.490979003906,10.0722546387,0.1,0.0,0.0,0.0,0.1,0.0,0.0,0.0,0.1
1452007979465439375,87,1452007979461858034,robocape,-40.2117578209,-12.01106883,-17.3199516269,0.0,10.0,0.0,0.0,0.0,10.0,0.0,0.0,0.0,10.0,-0.0794953585389,0.0157126504315,-0.0498011123845,1.0,0.0,0.0,0.0,1.0,0.0,0.0,0.0,1.0,0.282612304688,-0.501756591797,10.0638720703,0.1,0.0,0.0,0.0,0.1,0.0,0.0,0.0,0.1
1452007979499353834,88,1452007979495892047,robocape,-40.101796154,-11.9502199853,-17.3377611583,0.0,10.0,0.0,0.0,0.0,10.0,0.0,0.0,0.0,10.0,-0.034621094171,0.0186421276306,-0.0315584589174,1.0,0.0,0.0,0.0,1.0,0.0,0.0,0.0,1.0,0.104183349609,-0.431103515625,10.1249450684,0.1,0.0,0.0,0.0,0.1,0.0,0.0,0.0,0.1
1452007979532925917,89,1452007979529613971,robocape,-39.9126396127,-11.8557268786,-17.3192108713,0.0,10.0,0.0,0.0,0.0,10.0,0.0,0.0,0.0,10.0,0.0201068662301,0.0214384467751,-0.00146473859954,1.0,0.0,0.0,0.0,1.0,0.0,0.0,0.0,1.0,-0.104183349609,-0.532891845703,10.1117724609,0.1,0.0,0.0,0.0,0.1,0.0,0.0,0.0,0.1
1452007979565831750,90,1452007979562385082,robocape,-39.6387664,-11.7549944593,-17.2970798994,0.0,10.0,0.0,0.0,0.0,10.0,0.0,0.0,0.0,10.0,0.0727042977592,0.0239684498107,0.00572579634367,1.0,0.0,0.0,0.0,1.0,0.0,0.0,0.0,1.0,0.124541015625,-0.379610595703,10.1033898926,0.1,0.0,0.0,0.0,0.1,0.0,0.0,0.0,0.1
1452007979598381584,91,1452007979595133066,robocape,-39.3312196773,-11.6569252719,-17.2778219459,0.0,10.0,0.0,0.0,0.0,10.0,0.0,0.0,0.0,10.0,0.0936101123163,0.0245010820287,0.00519316412565,1.0,0.0,0.0,0.0,1.0,0.0,0.0,0.0,1.0,0.126936035156,-0.162861328125,10.0866247559,0.1,0.0,0.0,0.0,0.1,0.0,0.0,0.0,0.1
1452007979631371584,92,1452007979628148078,robocape,-39.0125951398,-11.5579882483,-17.2572154235,0.0,10.0,0.0,0.0,0.0,10.0,0.0,0.0,0.0,10.0,0.101732753641,0.0249005561922,0.0067910607797,1.0,0.0,0.0,0.0,1.0,0.0,0.0,0.0,1.0,-0.0359252929688,0.0,10.1237475586,0.1,0.0,0.0,0.0,0.1,0.0,0.0,0.0,0.1
1452007979664808459,93,1452007979661669969,robocape,-38.7170262606,-11.4549397549,-17.2282785868,0.0,10.0,0.0,0.0,0.0,10.0,0.0,0.0,0.0,10.0,0.0905474770627,0.0241016078652,0.0111852765783,1.0,0.0,0.0,0.0,1.0,0.0,0.0,0.0,1.0,-0.117355957031,0.245489501953,10.1249450684,0.1,0.0,0.0,0.0,0.1,0.0,0.0,0.0,0.1
1452007979697880834,94,1452007979694809913,robocape,-38.4943824533,-11.350869642,-17.1934939437,0.0,10.0,0.0,0.0,0.0,10.0,0.0,0.0,0.0,10.0,0.049135322112,0.0223705531567,0.0117179087963,1.0,0.0,0.0,0.0,1.0,0.0,0.0,0.0,1.0,0.0383203125,0.483793945313,10.1429077148,0.1,0.0,0.0,0.0,0.1,0.0,0.0,0.0,0.1
1452007979732292834,95,1452007979729207992,robocape,-38.6776551059,-11.1032880919,-16.9655064099,0.0,10.0,0.0,0.0,0.0,10.0,0.0,0.0,0.0,10.0,-0.160854929841,0.017177389031,0.128231206487,1.0,0.0,0.0,0.0,1.0,0.0,0.0,0.0,1.0,-0.01916015625,0.738863525391,10.1692529297,0.1,0.0,0.0,0.0,0.1,0.0,0.0,0.0,0.1
1452007979764204542,96,1452007979761173963,robocape,-38.8406472166,-10.8286209324,-16.7011952885,0.0,10.0,0.0,0.0,0.0,10.0,0.0,0.0,0.0,10.0,-0.144077014973,0.0167779148675,0.154197027116,1.0,0.0,0.0,0.0,1.0,0.0,0.0,0.0,1.0,-0.202379150391,-0.592767333984,10.0387243652,0.1,0.0,0.0,0.0,0.1,0.0,0.0,0.0,0.1
1452007979797706584,97,1452007979794469118,robocape,-38.769852226,-10.6122453539,-16.5172477003,0.0,10.0,0.0,0.0,0.0,10.0,0.0,0.0,0.0,10.0,-0.0178431793035,0.0205063403936,0.109322762748,1.0,0.0,0.0,0.0,1.0,0.0,0.0,0.0,1.0,0.336500244141,-0.699345703125,10.0638720703,0.1,0.0,0.0,0.0,0.1,0.0,0.0,0.0,0.1
1452007979831491834,98,1452007979828346014,robocape,-38.4953781717,-10.4487269156,-16.4063345517,0.0,10.0,0.0,0.0,0.0,10.0,0.0,0.0,0.0,10.0,0.0928111639893,0.0242347659197,0.068176923906,1.0,0.0,0.0,0.0,1.0,0.0,0.0,0.0,1.0,0.125738525391,-0.735270996094,10.1057849121,0.1,0.0,0.0,0.0,0.1,0.0,0.0,0.0,0.1
1452007979863698000,99,1452007979860594034,robocape,-38.0524185036,-10.3081734333,-16.3303007128,0.0,10.0,0.0,0.0,0.0,10.0,0.0,0.0,0.0,10.0,0.188818121287,0.0278300333913,0.051798483202,1.0,0.0,0.0,0.0,1.0,0.0,0.0,0.0,1.0,-0.0143701171875,-0.182021484375,10.0938098145,0.1,0.0,0.0,0.0,0.1,0.0,0.0,0.0,0.1
1452007979896804334,100,1452007979893552064,robocape,-37.6234278515,-10.1535052369,-16.2296806696,0.0,10.0,0.0,0.0,0.0,10.0,0.0,0.0,0.0,10.0,0.18535601187,0.0266316109008,0.066845343361,1.0,0.0,0.0,0.0,1.0,0.0,0.0,0.0,1.0,-0.192799072266,0.264649658203,10.1033898926,0.1,0.0,0.0,0.0,0.1,0.0,0.0,0.0,0.1
1452007979930067834,101,1452007979927047967,robocape,-37.2230827321,-10.0429783026,-16.1722860949,0.0,10.0,0.0,0.0,0.0,10.0,0.0,0.0,0.0,10.0,0.163251774822,0.0221042370477,0.033289513626,1.0,0.0,0.0,0.0,1.0,0.0,0.0,0.0,1.0,0.0407153320313,0.433498535156,10.1536853027,0.1,0.0,0.0,0.0,0.1,0.0,0.0,0.0,0.1
1452007979962692084,102,1452007979959431886,robocape,-36.9407870306,-9.94488598761,-16.132342149,0.0,10.0,0.0,0.0,0.0,10.0,0.0,0.0,0.0,10.0,0.0925448478803,0.0218379209386,0.0183758115215,1.0,0.0,0.0,0.0,1.0,0.0,0.0,0.0,1.0,-0.0203576660156,0.637075195313,10.1189575195,0.1,0.0,0.0,0.0,0.1,0.0,0.0,0.0,0.1
1452007979995712084,103,1452007979992432117,robocape,-36.7978803874,-9.83666415112,-16.081163456,0.0,10.0,0.0,0.0,0.0,10.0,0.0,0.0,0.0,10.0,0.0131826473959,0.0219710789932,0.0225037112112,1.0,0.0,0.0,0.0,1.0,0.0,0.0,0.0,1.0,0.0347277832031,0.668210449219,10.1069824219,0.1,0.0,0.0,0.0,0.1,0.0,0.0,0.0,0.1
1452007980028933459,104,1452007980025836944,robocape,-36.8054567444,-9.71023715033,-16.0093284347,0.0,10.0,0.0,0.0,0.0,10.0,0.0,0.0,0.0,10.0,-0.0717721913776,0.0225037112112,0.033023197517,1.0,0.0,0.0,0.0,1.0,0.0,0.0,0.0,1.0,0.0658630371094,0.667012939453,10.0926123047,0.1,0.0,0.0,0.0,0.1,0.0,0.0,0.0,0.1
1452007980062430167,105,1452007980059247016,robocape,-36.8843575553,-9.60371669336,-15.9551835913,0.0,10.0,0.0,0.0,0.0,10.0,0.0,0.0,0.0,10.0,-0.116246981582,0.0191747598486,0.0170442309765,1.0,0.0,0.0,0.0,1.0,0.0,0.0,0.0,1.0,-0.748443603516,0.21076171875,10.1237475586,0.1,0.0,0.0,0.0,0.1,0.0,0.0,0.0,0.1
1452007980095180667,106,1452007980092068910,robocape,-37.0603902521,-9.46457693834,-15.8686264421,0.0,10.0,0.0,0.0,0.0,10.0,0.0,0.0,0.0,10.0,-0.16911072922,0.0223705531567,0.0388821519152,1.0,0.0,0.0,0.0,1.0,0.0,0.0,0.0,1.0,-1.24900268555,0.183218994141,10.2423010254,0.1,0.0,0.0,0.0,0.1,0.0,0.0,0.0,0.1
1452007980128500792,107,1452007980125422000,robocape,-37.2421179579,-9.31406269857,-15.7903316714,0.0,10.0,0.0,0.0,0.0,10.0,0.0,0.0,0.0,10.0,-0.173904419182,0.0296942461544,0.0391484680242,1.0,0.0,0.0,0.0,1.0,0.0,0.0,0.0,1.0,-1.95912597656,0.0431103515625,10.4111499023,0.1,0.0,0.0,0.0,0.1,0.0,0.0,0.0,0.1
1452007980161881501,108,1452007980158807992,robocape,-37.5089480335,-9.20225501085,-15.6716531851,0.0,10.0,0.0,0.0,0.0,10.0,0.0,0.0,0.0,10.0,-0.221175528531,0.000266316109008,0.0412789968962,1.0,0.0,0.0,0.0,1.0,0.0,0.0,0.0,1.0,-4.38647827148,0.799936523438,10.2997814941,0.1,0.0,0.0,0.0,0.1,0.0,0.0,0.0,0.1
1452007980194901626,109,1452007980191814899,robocape,-38.0911772334,-8.92658961739,-15.3832230911,0.0,10.0,0.0,0.0,0.0,10.0,0.0,0.0,0.0,10.0,-0.386025200007,0.0127831732324,0.158591242914,1.0,0.0,0.0,0.0,1.0,0.0,0.0,0.0,1.0,-6.59229125977,0.492176513672,10.4937780762,0.1,0.0,0.0,0.0,0.1,0.0,0.0,0.0,0.1
1452007980228341251,110,1452007980225212097,robocape,-39.1286512468,-8.5207039354,-14.7539447925,0.0,10.0,0.0,0.0,0.0,10.0,0.0,0.0,0.0,10.0,-0.620117059825,-0.0483363737849,0.33289513626,1.0,0.0,0.0,0.0,1.0,0.0,0.0,0.0,1.0,-7.22816894531,1.16158447266,9.75850708008,0.1,0.0,0.0,0.0,0.1,0.0,0.0,0.0,0.1
1452007980261279501,111,1452007980258210897,robocape,-40.6627865748,-7.79228847367,-14.2196534018,0.0,10.0,0.0,0.0,0.0,10.0,0.0,0.0,0.0,10.0,-0.931440591255,0.103197492241,0.391218364133,1.0,0.0,0.0,0.0,1.0,0.0,0.0,0.0,1.0,-6.31207397461,0.90052734375,10.8518334961,0.1,0.0,0.0,0.0,0.1,0.0,0.0,0.0,0.1
1452007980294834167,112,1452007980291753053,robocape,-42.7029343961,-7.02399039449,-13.5975318832,0.0,10.0,0.0,0.0,0.0,10.0,0.0,0.0,0.0,10.0,-1.24822360292,0.0741690363587,0.42956788383,1.0,0.0,0.0,0.0,1.0,0.0,0.0,0.0,1.0,-5.38280639648,0.975970458984,10.5740112305,0.1,0.0,0.0,0.0,0.1,0.0,0.0,0.0,0.1
1452007980328218459,113,1452007980325073003,robocape,-45.4762072435,-6.11034856317,-12.7607983003,0.0,10.0,0.0,0.0,0.0,10.0,0.0,0.0,0.0,10.0,-1.70974941983,0.0304931944814,0.54901065872,1.0,0.0,0.0,0.0,1.0,0.0,0.0,0.0,1.0,-2.04654418945,2.40938964844,9.63636108398,0.1,0.0,0.0,0.0,0.1,0.0,0.0,0.0,0.1
1452007980361171001,114,1452007980358088970,robocape,-49.1691568666,-5.26749829585,-11.768559547,0.0,10.0,0.0,0.0,0.0,10.0,0.0,0.0,0.0,10.0,-2.33838859514,-0.0888164223541,0.552472768137,1.0,0.0,0.0,0.0,1.0,0.0,0.0,0.0,1.0,-5.22353759766,2.3794519043,7.6257421875,0.1,0.0,0.0,0.0,0.1,0.0,0.0,0.0,0.1
1452007980394823334,115,1452007980391820907,robocape,-54.1027223658,-4.34500558338,-10.608694173,0.0,10.0,0.0,0.0,0.0,10.0,0.0,0.0,0.0,10.0,-3.2431975755,-0.177366528599,0.598145980832,1.0,0.0,0.0,0.0,1.0,0.0,0.0,0.0,1.0,-4.51580932617,2.22138061523,6.76832519531,0.1,0.0,0.0,0.0,0.1,0.0,0.0,0.0,0.1
1452007980428332417,116,1452007980425245046,robocape,-59.8991628523,-3.44937349639,-9.6217518908,0.0,10.0,0.0,0.0,0.0,10.0,0.0,0.0,0.0,10.0,-4.04960275357,-0.165115987585,0.487491637539,1.0,0.0,0.0,0.0,1.0,0.0,0.0,0.0,1.0,-1.27175537109,1.67651367188,5.0966015625,0.1,0.0,0.0,0.0,0.1,0.0,0.0,0.0,0.1
1452007980461358792,117,1452007980458370923,robocape,-65.5844538037,-3.60693910454,-9.31562016406,0.0,10.0,0.0,0.0,0.0,10.0,0.0,0.0,0.0,10.0,-4.33669151909,-0.146740176063,-0.221042370477,1.0,0.0,0.0,0.0,1.0,0.0,0.0,0.0,1.0,0.380808105469,-13.3534313965,7.76225830078,0.1,0.0,0.0,0.0,0.1,0.0,0.0,0.0,0.1
1452007980494655501,118,1452007980491645097,robocape,-65.925889925,-6.70224587945,-11.491693165,0.0,10.0,0.0,0.0,0.0,10.0,0.0,0.0,0.0,10.0,-0.837031530612,0.392683102732,-2.05875668069,1.0,0.0,0.0,0.0,1.0,0.0,0.0,0.0,1.0,6.27016113281,-19.62,11.9906652832,0.1,0.0,0.0,0.0,0.1,0.0,0.0,0.0,0.1
1452007980528735667,119,1452007980525634050,robocape,-63.636230619,-8.25990660546,-14.4412459517,0.0,10.0,0.0,0.0,0.0,10.0,0.0,0.0,0.0,10.0,0.986301709711,1.03876598319,-1.39363219844,1.0,0.0,0.0,0.0,1.0,0.0,0.0,0.0,1.0,3.56857910156,-8.64961303711,7.35510498047,0.1,0.0,0.0,0.0,0.1,0.0,0.0,0.0,0.1
1452007980561288792,120,1452007980558273077,robocape,-61.6925286355,-9.40471956048,-17.0426497912,0.0,10.0,0.0,0.0,0.0,10.0,0.0,0.0,0.0,10.0,0.715724542959,0.923983740203,-1.1795140468,1.0,0.0,0.0,0.0,1.0,0.0,0.0,0.0,1.0,0.324525146484,1.27654541016,6.31686401367,0.1,0.0,0.0,0.0,0.1,0.0,0.0,0.0,0.1
1452007980596234459,121,1452007980593204021,robocape,-61.2621614759,-10.4071003896,-19.7996151654,0.0,10.0,0.0,0.0,0.0,10.0,0.0,0.0,0.0,10.0,-0.45380264975,1.01586279781,-1.29416313172,1.0,0.0,0.0,0.0,1.0,0.0,0.0,0.0,1.0,0.348475341797,-1.53880004883,10.898536377,0.1,0.0,0.0,0.0,0.1,0.0,0.0,0.0,0.1
1452007980628444626,122,1452007980625359058,robocape,-60.7673459697,-11.3786197978,-22.2506300306,0.0,10.0,0.0,0.0,0.0,10.0,0.0,0.0,0.0,10.0,-0.415719446161,0.874848418091,-1.23064673973,1.0,0.0,0.0,0.0,1.0,0.0,0.0,0.0,1.0,2.57344848633,-4.91218505859,8.90109008789,0.1,0.0,0.0,0.0,0.1,0.0,0.0,0.0,0.1
1452007980661306459,123,1452007980658157110,robocape,-59.9498316297,-12.2107104318,-24.9919069789,0.0,10.0,0.0,0.0,0.0,10.0,0.0,0.0,0.0,10.0,-0.28056402084,1.02811333883,-1.26127309226,1.0,0.0,0.0,0.0,1.0,0.0,0.0,0.0,1.0,3.97333740234,-5.68338134766,10.4542602539,0.1,0.0,0.0,0.0,0.1,0.0,0.0,0.0,0.1
1452007980695025459,124,1452007980691755056,robocape,-58.65167242,-12.9213044073,-27.2514009243,0.0,10.0,0.0,0.0,0.0,10.0,0.0,0.0,0.0,10.0,0.12357067458,0.820253615744,-1.05967179774,1.0,0.0,0.0,0.0,1.0,0.0,0.0,0.0,1.0,1.93038574219,-1.99984130859,7.99697021484,0.1,0.0,0.0,0.0,0.1,0.0,0.0,0.0,0.1
1452007980728090626,125,1452007980725001096,robocape,-57.6546970062,-13.4044477391,-29.5296639954,0.0,10.0,0.0,0.0,0.0,10.0,0.0,0.0,0.0,10.0,-0.109189604693,0.876046840582,-1.02425175524,1.0,0.0,0.0,0.0,1.0,0.0,0.0,0.0,1.0,0.541274414062,-5.72409667969,10.4973706055,0.1,0.0,0.0,0.0,0.1,0.0,0.0,0.0,0.1
1452007980761474459,126,1452007980758300065,robocape,-56.9241270958,-13.8728641021,-31.328904718,0.0,10.0,0.0,0.0,0.0,10.0,0.0,0.0,0.0,10.0,-0.216514996623,0.662594479212,-0.922385843549,1.0,0.0,0.0,0.0,1.0,0.0,0.0,0.0,1.0,1.4597644043,-5.03073852539,7.26888427734,0.1,0.0,0.0,0.0,0.1,0.0,0.0,0.0,0.1
1452007980794770001,127,1452007980791691064,robocape,-56.0861598319,-14.3785045682,-33.5819894561,0.0,10.0,0.0,0.0,0.0,10.0,0.0,0.0,0.0,10.0,-0.274305592278,0.840360481975,-1.11919344811,1.0,0.0,0.0,0.0,1.0,0.0,0.0,0.0,1.0,4.42240356445,-4.72058349609,8.05325317383,0.1,0.0,0.0,0.0,0.1,0.0,0.0,0.0,0.1
1452007980827943334,128,1452007980824837923,robocape,-54.9845886963,-14.7840292476,-35.7727225819,0.0,10.0,0.0,0.0,0.0,10.0,0.0,0.0,0.0,10.0,-0.0937432703708,0.827310992633,-1.06100337829,1.0,0.0,0.0,0.0,1.0,0.0,0.0,0.0,1.0,7.15272583008,-3.06682250977,8.82804199219,0.1,0.0,0.0,0.0,0.1,0.0,0.0,0.0,0.1
1452007980861598543,129,1452007980858125925,robocape,-54.0173981258,-15.4367692914,-37.8519555424,0.0,10.0,0.0,0.0,0.0,10.0,0.0,0.0,0.0,10.0,-0.210123410007,0.695218202565,-1.20215091606,1.0,0.0,0.0,0.0,1.0,0.0,0.0,0.0,1.0,1.05261108398,-5.19838989258,7.62334716797,0.1,0.0,0.0,0.0,0.1,0.0,0.0,0.0,0.1
1452007980895021251,130,1452007980891727924,robocape,-52.5876187219,-15.776618171,-39.7356032479,0.0,10.0,0.0,0.0,0.0,10.0,0.0,0.0,0.0,10.0,0.167113358402,0.684166084041,-0.954610092739,1.0,0.0,0.0,0.0,1.0,0.0,0.0,0.0,1.0,1.75195678711,-5.31215332031,8.49992431641,0.1,0.0,0.0,0.0,0.1,0.0,0.0,0.0,0.1
1452007980928417043,131,1452007980925051927,robocape,-51.3466593305,-15.7815732455,-42.0000285487,0.0,10.0,0.0,0.0,0.0,10.0,0.0,0.0,0.0,10.0,-0.0487358479485,0.935302174836,-1.01306647867,1.0,0.0,0.0,0.0,1.0,0.0,0.0,0.0,1.0,-2.52674560547,-4.03680541992,8.26760742188,0.1,0.0,0.0,0.0,0.1,0.0,0.0,0.0,0.1
1452007980961961543,132,1452007980958637952,robocape,-50.3931382817,-15.7277251828,-43.7970955358,0.0,10.0,0.0,0.0,0.0,10.0,0.0,0.0,0.0,10.0,-0.124103306798,0.760332491218,-0.868589989529,1.0,0.0,0.0,0.0,1.0,0.0,0.0,0.0,1.0,2.23455322266,-4.40563842773,7.72154296875,0.1,0.0,0.0,0.0,0.1,0.0,0.0,0.0,0.1
1452007980994799376,133,1452007980991632938,robocape,-49.539443166,-15.864034867,-45.9767187841,0.0,10.0,0.0,0.0,0.0,10.0,0.0,0.0,0.0,10.0,-0.328234604352,0.851678916607,-1.18617194952,1.0,0.0,0.0,0.0,1.0,0.0,0.0,0.0,1.0,7.50359619141,-7.127578125,8.46280151367,0.1,0.0,0.0,0.0,0.1,0.0,0.0,0.0,0.1
1452007981028030626,134,1452007981024897098,robocape,-48.484187435,-15.7856815427,-47.4977453573,0.0,10.0,0.0,0.0,0.0,10.0,0.0,0.0,0.0,10.0,0.000798948327024,0.64834656738,-0.793888320953,1.0,0.0,0.0,0.0,1.0,0.0,0.0,0.0,1.0,-1.22026245117,-1.17116455078,9.92256591797,0.1,0.0,0.0,0.0,0.1,0.0,0.0,0.0,0.1
1452007981061458001,135,1452007981058247089,robocape,-47.6892604761,-16.1277664204,-48.5929136051,0.0,10.0,0.0,0.0,0.0,10.0,0.0,0.0,0.0,10.0,-0.0982706442239,0.335824613459,-0.860866822368,1.0,0.0,0.0,0.0,1.0,0.0,0.0,0.0,1.0,3.19854858398,-4.30145507813,7.38983276367,0.1,0.0,0.0,0.0,0.1,0.0,0.0,0.0,0.1
1452007981095178793,136,1452007981092071056,robocape,-47.0191872406,-16.0326751005,-50.0214972657,0.0,10.0,0.0,0.0,0.0,10.0,0.0,0.0,0.0,10.0,-0.243146607524,0.613858631263,-0.850746810226,1.0,0.0,0.0,0.0,1.0,0.0,0.0,0.0,1.0,1.41306152344,-5.19120483398,9.60163330078,0.1,0.0,0.0,0.0,0.1,0.0,0.0,0.0,0.1
1452007981128195251,137,1452007981125113010,robocape,-46.0233186568,-16.3023181655,-51.2475780046,0.0,10.0,0.0,0.0,0.0,10.0,0.0,0.0,0.0,10.0,-0.00785632521573,0.398275741021,-0.906406877008,1.0,0.0,0.0,0.0,1.0,0.0,0.0,0.0,1.0,1.3759387207,-7.47365844727,7.02578979492,0.1,0.0,0.0,0.0,0.1,0.0,0.0,0.0,0.1
1452007981161477876,138,1452007981158327102,robocape,-45.2646022908,-16.064248211,-52.3627243516,0.0,10.0,0.0,0.0,0.0,10.0,0.0,0.0,0.0,10.0,-0.0881506320816,0.533164850234,-0.662328163103,1.0,0.0,0.0,0.0,1.0,0.0,0.0,0.0,1.0,-2.04175415039,-9.35973632813,8.29754516602,0.1,0.0,0.0,0.0,0.1,0.0,0.0,0.0,0.1
1452007981196035084,139,1452007981192976951,robocape,-44.5442318707,-15.8905414243,-53.1423591158,0.0,10.0,0.0,0.0,0.0,10.0,0.0,0.0,0.0,10.0,-0.0197073920666,0.382429932535,-0.540754859341,1.0,0.0,0.0,0.0,1.0,0.0,0.0,0.0,1.0,-1.23343505859,-3.7206628418,7.15991088867,0.1,0.0,0.0,0.0,0.1,0.0,0.0,0.0,0.1
1452007981229408043,140,1452007981226351976,robocape,-44.1868420537,-15.327675063,-54.2225213319,0.0,10.0,0.0,0.0,0.0,10.0,0.0,0.0,0.0,10.0,-0.30599720925,0.644884457963,-0.582300172346,1.0,0.0,0.0,0.0,1.0,0.0,0.0,0.0,1.0,-0.323327636719,-1.87889282227,9.67468139648,0.1,0.0,0.0,0.0,0.1,0.0,0.0,0.0,0.1
1452007981262924126,141,1452007981259633064,robocape,-43.6697463114,-15.3460394374,-55.0851811139,0.0,10.0,0.0,0.0,0.0,10.0,0.0,0.0,0.0,10.0,-0.190815492104,0.351803579999,-0.734499828644,1.0,0.0,0.0,0.0,1.0,0.0,0.0,0.0,1.0,1.27534790039,-4.63196777344,4.77447143555,0.1,0.0,0.0,0.0,0.1,0.0,0.0,0.0,0.1
1452007981296126501,142,1452007981293014049,robocape,-42.9827689733,-14.6360870657,-56.7942204801,0.0,10.0,0.0,0.0,0.0,10.0,0.0,0.0,0.0,10.0,-0.257927151574,0.936234281217,-0.852744181043,1.0,0.0,0.0,0.0,1.0,0.0,0.0,0.0,1.0,-2.1423449707,-11.3943054199,9.52858520508,0.1,0.0,0.0,0.0,0.1,0.0,0.0,0.0,0.1
1452007981329366126,143,1452007981326234102,robocape,-41.9946173348,-14.0848344473,-57.5296273447,0.0,10.0,0.0,0.0,0.0,10.0,0.0,0.0,0.0,10.0,0.202400242846,0.509063242369,-0.36511938545,1.0,0.0,0.0,0.0,1.0,0.0,0.0,0.0,1.0,0.376018066406,-5.61272827148,8.21491699219,0.1,0.0,0.0,0.0,0.1,0.0,0.0,0.0,0.1
1452007981363278876,144,1452007981359951972,robocape,-41.4107260137,-13.7648224521,-57.9613837018,0.0,10.0,0.0,0.0,0.0,10.0,0.0,0.0,0.0,10.0,0.0142479118319,0.31957933081,-0.368714652921,1.0,0.0,0.0,0.0,1.0,0.0,0.0,0.0,1.0,2.00223632812,-5.02954101562,7.51557128906,0.1,0.0,0.0,0.0,0.1,0.0,0.0,0.0,0.1
1452007981396416168,145,1452007981393287897,robocape,-41.0170479856,-13.6707916317,-58.4159753003,0.0,10.0,0.0,0.0,0.0,10.0,0.0,0.0,0.0,10.0,-0.127565416215,0.24687503305,-0.518650622293,1.0,0.0,0.0,0.0,1.0,0.0,0.0,0.0,1.0,3.32428710938,-7.92152709961,9.22920776367,0.1,0.0,0.0,0.0,0.1,0.0,0.0,0.0,0.1
1452007981430170543,146,1452007981426958084,robocape,-40.7841052367,-13.3151022229,-58.5258140383,0.0,10.0,0.0,0.0,0.0,10.0,0.0,0.0,0.0,10.0,-0.113583820492,0.223971847676,-0.225037112112,1.0,0.0,0.0,0.0,1.0,0.0,0.0,0.0,1.0,0.0167651367188,-4.03081787109,7.23415649414,0.1,0.0,0.0,0.0,0.1,0.0,0.0,0.0,0.1
1452007981466061459,147,1452007981461962938,robocape,-40.697131591,-12.9974984018,-58.6919185177,0.0,10.0,0.0,0.0,0.0,10.0,0.0,0.0,0.0,10.0,-0.220776054368,0.234624492036,-0.296010355162,1.0,0.0,0.0,0.0,1.0,0.0,0.0,0.0,1.0,1.31366821289,-4.06674316406,8.92384277344,0.1,0.0,0.0,0.0,0.1,0.0,0.0,0.0,0.1
1452007981498490376,148,1452007981494477033,robocape,-40.4300529881,-12.9138580722,-58.8614778102,0.0,10.0,0.0,0.0,0.0,10.0,0.0,0.0,0.0,10.0,-0.124103306798,0.14367754081,-0.378302032846,1.0,0.0,0.0,0.0,1.0,0.0,0.0,0.0,1.0,2.12318481445,-8.71068603516,6.33961669922,0.1,0.0,0.0,0.0,0.1,0.0,0.0,0.0,0.1
1452007981531778168,149,1452007981527756929,robocape,-40.0288072087,-12.7199144517,-58.8001580444,0.0,10.0,0.0,0.0,0.0,10.0,0.0,0.0,0.0,10.0,0.0310258266994,0.0988032764419,-0.173105470855,1.0,0.0,0.0,0.0,1.0,0.0,0.0,0.0,1.0,2.44770996094,-4.76249633789,8.37179077148,0.1,0.0,0.0,0.0,0.1,0.0,0.0,0.0,0.1
1452007981565146085,150,1452007981561909914,robocape,-39.6903163673,-12.4098725714,-58.6401331235,0.0,10.0,0.0,0.0,0.0,10.0,0.0,0.0,0.0,10.0,0.0291616139364,0.109455920802,-0.0691090302876,1.0,0.0,0.0,0.0,1.0,0.0,0.0,0.0,1.0,1.90164550781,-4.46192138672,7.92032958984,0.1,0.0,0.0,0.0,0.1,0.0,0.0,0.0,0.1
1452007981598128001,151,1452007981595055103,robocape,-39.5110077826,-12.0546149462,-58.3493605479,0.0,10.0,0.0,0.0,0.0,10.0,0.0,0.0,0.0,10.0,-0.0307595105904,0.0838895743375,0.0101200121423,1.0,0.0,0.0,0.0,1.0,0.0,0.0,0.0,1.0,1.85254760742,-6.23663085938,7.71196289063,0.1,0.0,0.0,0.0,0.1,0.0,0.0,0.0,0.1
1452007981631212168,152,1452007981627511024,robocape,-39.5326957841,-11.6631009455,-57.8766487308,0.0,10.0,0.0,0.0,0.0,10.0,0.0,0.0,0.0,10.0,-0.106260127494,0.0371510972066,0.110920659402,1.0,0.0,0.0,0.0,1.0,0.0,0.0,0.0,1.0,1.43581420898,-5.3995715332,7.75986328125,0.1,0.0,0.0,0.0,0.1,0.0,0.0,0.0,0.1
1452007981665088918,153,1452007981661866903,robocape,-39.7211696802,-11.2166829245,-57.2380267777,0.0,10.0,0.0,0.0,0.0,10.0,0.0,0.0,0.0,10.0,-0.165515461748,0.00173105470855,0.215050258024,1.0,0.0,0.0,0.0,1.0,0.0,0.0,0.0,1.0,1.25379272461,-6.04383178711,7.86045410156,0.1,0.0,0.0,0.0,0.1,0.0,0.0,0.0,0.1
1452007981698618210,154,1452007981695131063,robocape,-39.7976333787,-10.8196846566,-56.6748435211,0.0,10.0,0.0,0.0,0.0,10.0,0.0,0.0,0.0,10.0,-0.117179087963,0.00639158661619,0.170175993656,1.0,0.0,0.0,0.0,1.0,0.0,0.0,0.0,1.0,0.3448828125,-5.57560546875,8.11073364258,0.1,0.0,0.0,0.0,0.1,0.0,0.0,0.0,0.1
1452007981732798835,155,1452007981729407072,robocape,-39.7276597747,-10.5334606759,-56.2850813487,0.0,10.0,0.0,0.0,0.0,10.0,0.0,0.0,0.0,10.0,-0.0721716655411,0.0226368692657,0.0472711093489,1.0,0.0,0.0,0.0,1.0,0.0,0.0,0.0,1.0,-0.324525146484,-5.80432983398,8.20773193359,0.1,0.0,0.0,0.0,0.1,0.0,0.0,0.0,0.1
1452007981765192501,156,1452007981761692047,robocape,-39.4243378918,-10.2608021627,-56.1171871476,0.0,10.0,0.0,0.0,0.0,10.0,0.0,0.0,0.0,10.0,0.0238352917562,0.0926780059348,-0.0516653251475,1.0,0.0,0.0,0.0,1.0,0.0,0.0,0.0,1.0,-1.09691894531,-6.0582019043,8.29395263672,0.1,0.0,0.0,0.0,0.1,0.0,0.0,0.0,0.1
1452007981798305418,157,1452007981794748067,robocape,-39.1619006501,-9.88833411111,-55.9709568357,0.0,10.0,0.0,0.0,0.0,10.0,0.0,0.0,0.0,10.0,0.00292947719909,0.140881221665,-0.0241016078652,1.0,0.0,0.0,0.0,1.0,0.0,0.0,0.0,1.0,-1.87290527344,-5.19719238281,8.29036010742,0.1,0.0,0.0,0.0,0.1,0.0,0.0,0.0,0.1
1452007981832846543,158,1452007981829591989,robocape,-38.7505286538,-9.75871509127,-55.9314311216,0.0,10.0,0.0,0.0,0.0,10.0,0.0,0.0,0.0,10.0,0.0601874406358,0.0810932551929,-0.165249145639,1.0,0.0,0.0,0.0,1.0,0.0,0.0,0.0,1.0,-2.50638793945,-5.14210693359,7.75148071289,0.1,0.0,0.0,0.0,0.1,0.0,0.0,0.0,0.1
1452007981865800835,159,1452007981861941099,robocape,-38.2549305558,-9.45019346925,-56.0744510274,0.0,10.0,0.0,0.0,0.0,10.0,0.0,0.0,0.0,10.0,0.0870853676456,0.214783941915,-0.185222853815,1.0,0.0,0.0,0.0,1.0,0.0,0.0,0.0,1.0,-2.84408569336,-5.07145385742,8.34065551758,0.1,0.0,0.0,0.0,0.1,0.0,0.0,0.0,0.1
1452007981898622210,160,1452007981895332098,robocape,-37.9227091883,-9.05759652404,-56.3530501547,0.0,10.0,0.0,0.0,0.0,10.0,0.0,0.0,0.0,10.0,-0.0316916169719,0.300404570961,-0.249671352195,1.0,0.0,0.0,0.0,1.0,0.0,0.0,0.0,1.0,-2.14833251953,-6.69647460938,9.24717041016,0.1,0.0,0.0,0.0,0.1,0.0,0.0,0.0,0.1
1452007981931878168,161,1452007981928611040,robocape,-37.6195356304,-8.5610716784,-56.5286664663,0.0,10.0,0.0,0.0,0.0,10.0,0.0,0.0,0.0,10.0,-0.0199737081756,0.307994580068,-0.153531236843,1.0,0.0,0.0,0.0,1.0,0.0,0.0,0.0,1.0,0.761616210938,-4.05476806641,9.47589477539,0.1,0.0,0.0,0.0,0.1,0.0,0.0,0.0,0.1
1452007981965175543,162,1452007981961750984,robocape,-37.3965911283,-8.41025641988,-56.4420706577,0.0,10.0,0.0,0.0,0.0,10.0,0.0,0.0,0.0,10.0,-0.033023197517,0.0802943068659,-0.148338072717,1.0,0.0,0.0,0.0,1.0,0.0,0.0,0.0,1.0,-2.28604614258,-2.13276489258,6.07736206055,0.1,0.0,0.0,0.0,0.1,0.0,0.0,0.0,0.1
1452007981998486751,163,1452007981995400905,robocape,-37.0141184165,-8.1674950455,-56.440558778,0.0,10.0,0.0,0.0,0.0,10.0,0.0,0.0,0.0,10.0,0.0539290120741,0.14367754081,-0.141547011938,1.0,0.0,0.0,0.0,1.0,0.0,0.0,0.0,1.0,-2.66805175781,-7.05333251953,8.2807800293,0.1,0.0,0.0,0.0,0.1,0.0,0.0,0.0,0.1
1452007982031267418,164,1452007982027599096,robocape,-37.0847060001,-7.50318655024,-56.9809394636,0.0,10.0,0.0,0.0,0.0,10.0,0.0,0.0,0.0,10.0,-0.294945090726,0.514256406494,-0.342881990348,1.0,0.0,0.0,0.0,1.0,0.0,0.0,0.0,1.0,3.73024291992,-6.71323974609,6.8593359375,0.1,0.0,0.0,0.0,0.1,0.0,0.0,0.0,0.1
1452007982064951460,165,1452007982061706066,robocape,-36.5773821688,-6.96062231853,-57.1879841487,0.0,10.0,0.0,0.0,0.0,10.0,0.0,0.0,0.0,10.0,0.108523814421,0.339286722876,-0.136087531703,1.0,0.0,0.0,0.0,1.0,0.0,0.0,0.0,1.0,-2.88240600586,-3.48834594727,8.6256628418,0.1,0.0,0.0,0.0,0.1,0.0,0.0,0.0,0.1
1452007982097045126,166,1452007982093868017,robocape,-36.3259716387,-6.55585197401,-57.4943360675,0.0,10.0,0.0,0.0,0.0,10.0,0.0,0.0,0.0,10.0,-0.0640490242164,0.325571443262,-0.278433491968,1.0,0.0,0.0,0.0,1.0,0.0,0.0,0.0,1.0,-2.76624755859,-4.41282348633,7.41617797852,0.1,0.0,0.0,0.0,0.1,0.0,0.0,0.0,0.1
1452007982130075001,167,1452007982126934051,robocape,-36.1871820351,-6.30776042313,-57.7646226135,0.0,10.0,0.0,0.0,0.0,10.0,0.0,0.0,0.0,10.0,-0.129829103141,0.253399777721,-0.332229345987,1.0,0.0,0.0,0.0,1.0,0.0,0.0,0.0,1.0,-3.31949707031,-5.32772094727,10.26984375,0.1,0.0,0.0,0.0,0.1,0.0,0.0,0.0,0.1
1452007982163749585,168,1452007982160456895,robocape,-35.9627237216,-5.98756749373,-58.4056513828,0.0,10.0,0.0,0.0,0.0,10.0,0.0,0.0,0.0,10.0,-0.135554899485,0.411724704526,-0.520381677001,1.0,0.0,0.0,0.0,1.0,0.0,0.0,0.0,1.0,2.91713378906,-4.73375610352,7.48802856445,0.1,0.0,0.0,0.0,0.1,0.0,0.0,0.0,0.1
1452007982196954418,169,1452007982193840026,robocape,-35.4519399507,-5.77444654356,-58.4592021723,0.0,10.0,0.0,0.0,0.0,10.0,0.0,0.0,0.0,10.0,0.126899625942,0.15845808486,-0.184157589379,1.0,0.0,0.0,0.0,1.0,0.0,0.0,0.0,1.0,-3.04047729492,-4.55772216797,6.73718994141,0.1,0.0,0.0,0.0,0.1,0.0,0.0,0.0,0.1
1452007982229718210,170,1452007982226620912,robocape,-35.0438644374,-5.34936172514,-58.8225041217,0.0,10.0,0.0,0.0,0.0,10.0,0.0,0.0,0.0,10.0,0.0294279300454,0.355132531362,-0.30333404816,1.0,0.0,0.0,0.0,1.0,0.0,0.0,0.0,1.0,-1.40946899414,-5.90611816406,9.0088659668,0.1,0.0,0.0,0.0,0.1,0.0,0.0,0.0,0.1
1452007982263739293,171,1452007982260508060,robocape,-35.006786272,-4.7668929794,-58.9694907137,0.0,10.0,0.0,0.0,0.0,10.0,0.0,0.0,0.0,10.0,-0.146207543845,0.356996744125,-0.155661765715,1.0,0.0,0.0,0.0,1.0,0.0,0.0,0.0,1.0,-2.25610839844,-5.69535644531,8.56099731445,0.1,0.0,0.0,0.0,0.1,0.0,0.0,0.0,0.1
1452007982296504877,172,1452007982293401002,robocape,-34.5172446605,-4.27445060029,-59.1660454025,0.0,10.0,0.0,0.0,0.0,10.0,0.0,0.0,0.0,10.0,0.111186975511,0.328101446298,-0.173638103073,1.0,0.0,0.0,0.0,1.0,0.0,0.0,0.0,1.0,-3.84400634766,-4.44036621094,8.47836914063,0.1,0.0,0.0,0.0,0.1,0.0,0.0,0.0,0.1
1452007982327903377,173,1452007982324856042,robocape,-33.9342147523,-3.89446515968,-59.336701664,0.0,10.0,0.0,0.0,0.0,10.0,0.0,0.0,0.0,10.0,0.168844413111,0.271376115079,-0.192013914595,1.0,0.0,0.0,0.0,1.0,0.0,0.0,0.0,1.0,-3.38296508789,-3.49313598633,8.07600585937,0.1,0.0,0.0,0.0,0.1,0.0,0.0,0.0,0.1
1452007982361276377,174,1452007982358201026,robocape,-33.7976410669,-3.54758018714,-59.720046342,0.0,10.0,0.0,0.0,0.0,10.0,0.0,0.0,0.0,10.0,-0.117578562127,0.34088461953,-0.381364668099,1.0,0.0,0.0,0.0,1.0,0.0,0.0,0.0,1.0,-3.86077148438,-3.11352539062,9.32860107422,0.1,0.0,0.0,0.0,0.1,0.0,0.0,0.0,0.1
1452007982394883543,175,1452007982391864061,robocape,-33.754872927,-3.37503107619,-60.6326076379,0.0,10.0,0.0,0.0,0.0,10.0,0.0,0.0,0.0,10.0,-0.247141349159,0.451805278932,-0.787097260173,1.0,0.0,0.0,0.0,1.0,0.0,0.0,0.0,1.0,-0.380808105469,-4.96607299805,7.56586669922,0.1,0.0,0.0,0.0,0.1,0.0,0.0,0.0,0.1
1452007982429318627,176,1452007982426110029,robocape,-33.3962496773,-3.80842803548,-61.9677447773,0.0,10.0,0.0,0.0,0.0,10.0,0.0,0.0,0.0,10.0,-0.146074385791,0.334626190968,-1.25860993117,1.0,0.0,0.0,0.0,1.0,0.0,0.0,0.0,1.0,-2.15791259766,-9.02682861328,11.4242431641,0.1,0.0,0.0,0.0,0.1,0.0,0.0,0.0,0.1
1452007982462751960,177,1452007982459619998,robocape,-32.727603055,-3.01981007213,-63.8094450797,0.0,10.0,0.0,0.0,0.0,10.0,0.0,0.0,0.0,10.0,0.00479368996214,1.01865911696,-1.14808874593,1.0,0.0,0.0,0.0,1.0,0.0,0.0,0.0,1.0,-0.24908203125,-4.47389648438,8.52866455078,0.1,0.0,0.0,0.0,0.1,0.0,0.0,0.0,0.1
1452007982496851252,178,1452007982493254899,robocape,-31.8136269687,-2.58600662016,-65.5532366213,0.0,10.0,0.0,0.0,0.0,10.0,0.0,0.0,0.0,10.0,0.15579492377,0.833036788977,-1.238636223,1.0,0.0,0.0,0.0,1.0,0.0,0.0,0.0,1.0,-0.762813720703,-5.32053588867,11.322454834,0.1,0.0,0.0,0.0,0.1,0.0,0.0,0.0,0.1
1452007982529744377,179,1452007982526688098,robocape,-30.8304674247,-1.71596449802,-66.5918422137,0.0,10.0,0.0,0.0,0.0,10.0,0.0,0.0,0.0,10.0,0.304665628705,0.78376830881,-0.653406573451,1.0,0.0,0.0,0.0,1.0,0.0,0.0,0.0,1.0,-5.42471923828,-2.73032226563,9.25675048828,0.1,0.0,0.0,0.0,0.1,0.0,0.0,0.0,0.1
1452007982562976627,180,1452007982559817075,robocape,-29.7052292521,-0.957761803616,-66.943354843,0.0,10.0,0.0,0.0,0.0,10.0,0.0,0.0,0.0,10.0,0.468716351854,0.508663768205,-0.236888178963,1.0,0.0,0.0,0.0,1.0,0.0,0.0,0.0,1.0,-2.835703125,3.02131713867,8.89510253906,0.1,0.0,0.0,0.0,0.1,0.0,0.0,0.0,0.1
1452007982597414918,181,1452007982594315052,robocape,-30.4755532445,-0.249642533014,-67.5645362745,0.0,10.0,0.0,0.0,0.0,10.0,0.0,0.0,0.0,10.0,-0.62823970115,0.623579169242,-0.626242330332,1.0,0.0,0.0,0.0,1.0,0.0,0.0,0.0,1.0,-1.03225341797,0.0598754882813,7.94906982422,0.1,0.0,0.0,0.0,0.1,0.0,0.0,0.0,0.1
1452007982632860168,182,1452007982629291057,robocape,-30.6777080545,0.087906003711,-68.3248372354,0.0,10.0,0.0,0.0,0.0,10.0,0.0,0.0,0.0,10.0,-0.330897765442,0.50613376517,-0.801611488114,1.0,0.0,0.0,0.0,1.0,0.0,0.0,0.0,1.0,2.20701049805,-2.43812988281,10.3728295898,0.1,0.0,0.0,0.0,0.1,0.0,0.0,0.0,0.1
1452007982663435335,183,1452007982660326004,robocape,-30.9097498893,0.911181398007,-69.5016184019,0.0,10.0,0.0,0.0,0.0,10.0,0.0,0.0,0.0,10.0,-0.373242026775,0.870720518401,-0.946087977251,1.0,0.0,0.0,0.0,1.0,0.0,0.0,0.0,1.0,-3.33985473633,-7.11201049805,8.54782470703,0.1,0.0,0.0,0.0,0.1,0.0,0.0,0.0,0.1
1452007982696194293,184,1452007982693155050,robocape,-30.9817858013,1.64258745843,-70.4926403691,0.0,10.0,0.0,0.0,0.0,10.0,0.0,0.0,0.0,10.0,-0.262587683482,0.777909354412,-0.854075761588,1.0,0.0,0.0,0.0,1.0,0.0,0.0,0.0,1.0,-2.30041625977,-5.97557373047,10.4207299805,0.1,0.0,0.0,0.0,0.1,0.0,0.0,0.0,0.1
1452007982733265460,185,1452007982729720115,robocape,-30.2883273331,1.59297865977,-71.0698235666,0.0,10.0,0.0,0.0,0.0,10.0,0.0,0.0,0.0,10.0,0.188684963232,0.28056402084,-0.769254080869,1.0,0.0,0.0,0.0,1.0,0.0,0.0,0.0,1.0,0.330512695313,-4.60322753906,8.07840087891,0.1,0.0,0.0,0.0,0.1,0.0,0.0,0.0,0.1
1452007982761789460,186,1452007982758599996,robocape,-29.5049256762,1.45956404359,-71.6432699117,0.0,10.0,0.0,0.0,0.0,10.0,0.0,0.0,0.0,10.0,0.239418181998,0.236089230636,-0.799081485078,1.0,0.0,0.0,0.0,1.0,0.0,0.0,0.0,1.0,-0.150886230469,-3.45840820313,6.89645874023,0.1,0.0,0.0,0.0,0.1,0.0,0.0,0.0,0.1
1452007982795046210,187,1452007982791754961,robocape,-29.5471456007,1.79284902463,-72.4484582021,0.0,10.0,0.0,0.0,0.0,10.0,0.0,0.0,0.0,10.0,-0.231162382619,0.54102117545,-0.909203196153,1.0,0.0,0.0,0.0,1.0,0.0,0.0,0.0,1.0,2.39741455078,-3.70030517578,11.0075097656,0.1,0.0,0.0,0.0,0.1,0.0,0.0,0.0,0.1
1452007982828160252,188,1452007982825092077,robocape,-29.2050408425,2.73356133945,-73.1236837097,0.0,10.0,0.0,0.0,0.0,10.0,0.0,0.0,0.0,10.0,0.0125168571234,0.761264597599,-0.595216503633,1.0,0.0,0.0,0.0,1.0,0.0,0.0,0.0,1.0,1.42503662109,-2.6405090332,8.0855859375,0.1,0.0,0.0,0.0,0.1,0.0,0.0,0.0,0.1
1452007982861682793,189,1452007982858329057,robocape,-29.4983303083,3.92696721605,-73.9875765451,0.0,10.0,0.0,0.0,0.0,10.0,0.0,0.0,0.0,10.0,-0.339286722876,0.96499642099,-0.725045606774,1.0,0.0,0.0,0.0,1.0,0.0,0.0,0.0,1.0,-1.80225219727,-1.71842651367,8.91785522461,0.1,0.0,0.0,0.0,0.1,0.0,0.0,0.0,0.1
1452007982895039127,190,1452007982891802072,robocape,-30.2832030757,5.37436611951,-75.1000775266,0.0,10.0,0.0,0.0,0.0,10.0,0.0,0.0,0.0,10.0,-0.610263363792,1.19802301637,-0.881373162762,1.0,0.0,0.0,0.0,1.0,0.0,0.0,0.0,1.0,-2.12438232422,-7.57424926758,9.08790161133,0.1,0.0,0.0,0.0,0.1,0.0,0.0,0.0,0.1
1452007982928424502,191,1452007982925403118,robocape,-30.2045566197,6.10583239523,-75.5722225484,0.0,10.0,0.0,0.0,0.0,10.0,0.0,0.0,0.0,10.0,-0.106393285549,0.648612883489,-0.577905956547,1.0,0.0,0.0,0.0,1.0,0.0,0.0,0.0,1.0,1.15918945312,-3.79490844727,9.08071655273,0.1,0.0,0.0,0.0,0.1,0.0,0.0,0.0,0.1
1452007982961539002,192,1452007982958223104,robocape,-30.1653006218,6.61399449996,-76.2270315821,0.0,10.0,0.0,0.0,0.0,10.0,0.0,0.0,0.0,10.0,-0.132492264231,0.627440752823,-0.801877804223,1.0,0.0,0.0,0.0,1.0,0.0,0.0,0.0,1.0,2.73391479492,-5.27024047852,7.98858764648,0.1,0.0,0.0,0.0,0.1,0.0,0.0,0.0,0.1
1452007982994678585,193,1452007982991509914,robocape,-30.102772108,7.02931895036,-76.5649047488,0.0,10.0,0.0,0.0,0.0,10.0,0.0,0.0,0.0,10.0,-0.10879013053,0.475640570688,-0.603072828848,1.0,0.0,0.0,0.0,1.0,0.0,0.0,0.0,1.0,-0.288599853516,-4.70741088867,7.09883789063,0.1,0.0,0.0,0.0,0.1,0.0,0.0,0.0,0.1
1452007983027992044,194,1452007983024986028,robocape,-29.9618506245,7.32798928491,-76.6033021123,0.0,10.0,0.0,0.0,0.0,10.0,0.0,0.0,0.0,10.0,-0.0580569117637,0.314652482793,-0.41212417869,1.0,0.0,0.0,0.0,1.0,0.0,0.0,0.0,1.0,-1.23822509766,-4.1002734375,8.98611328125,0.1,0.0,0.0,0.0,0.1,0.0,0.0,0.0,0.1
1452007983061570919,195,1452007983058258056,robocape,-29.6074450638,7.49076292579,-77.0185490092,0.0,10.0,0.0,0.0,0.0,10.0,0.0,0.0,0.0,10.0,0.0536626959651,0.389753625533,-0.725711397047,1.0,0.0,0.0,0.0,1.0,0.0,0.0,0.0,1.0,2.29203369141,-5.06307128906,9.66749633789,0.1,0.0,0.0,0.0,0.1,0.0,0.0,0.0,0.1
1452007983095138877,196,1452007983091810941,robocape,-29.1129830143,7.83687598794,-77.3299780718,0.0,10.0,0.0,0.0,0.0,10.0,0.0,0.0,0.0,10.0,0.138484376684,0.428902093557,-0.586028597872,1.0,0.0,0.0,0.0,1.0,0.0,0.0,0.0,1.0,2.93030639648,-4.53856201172,9.81119750977,0.1,0.0,0.0,0.0,0.1,0.0,0.0,0.0,0.1
1452007983127872502,197,1452007983124864101,robocape,-28.4003475177,8.23519136833,-78.0215067048,0.0,10.0,0.0,0.0,0.0,10.0,0.0,0.0,0.0,10.0,0.262188209318,0.586028597872,-0.856339448515,1.0,0.0,0.0,0.0,1.0,0.0,0.0,0.0,1.0,-0.222736816406,-2.18186279297,9.39925415039,0.1,0.0,0.0,0.0,0.1,0.0,0.0,0.0,0.1
1452007983161455127,198,1452007983158164024,robocape,-28.1206189521,8.52434254226,-78.9512304068,0.0,10.0,0.0,0.0,0.0,10.0,0.0,0.0,0.0,10.0,0.0302268783724,0.638759187456,-1.13424030826,1.0,0.0,0.0,0.0,1.0,0.0,0.0,0.0,1.0,1.80225219727,-1.27654541016,9.26633056641,0.1,0.0,0.0,0.0,0.1,0.0,0.0,0.0,0.1
1452007983195157710,199,1452007983191626071,robocape,-27.5977108867,9.09028063796,-80.360539635,0.0,10.0,0.0,0.0,0.0,10.0,0.0,0.0,0.0,10.0,0.175635473891,0.939430074525,-1.44742805246,1.0,0.0,0.0,0.0,1.0,0.0,0.0,0.0,1.0,1.99744628906,-2.74349487305,12.7498864746,0.1,0.0,0.0,0.0,0.1,0.0,0.0,0.0,0.1
1452007983228364377,200,1452007983225007057,robocape,-27.3661276025,9.77508030112,-82.0514854,0.0,10.0,0.0,0.0,0.0,10.0,0.0,0.0,0.0,10.0,0.0347542522255,1.11945976421,-1.72160048668,1.0,0.0,0.0,0.0,1.0,0.0,0.0,0.0,1.0,2.44291992188,-0.740061035156,11.9259997559,0.1,0.0,0.0,0.0,0.1,0.0,0.0,0.0,0.1
1452007983261730919,201,1452007983258224010,robocape,-27.4259194045,9.99289374017,-83.4221093671,0.0,10.0,0.0,0.0,0.0,10.0,0.0,0.0,0.0,10.0,-0.124236464852,0.819587825472,-1.68365044115,1.0,0.0,0.0,0.0,1.0,0.0,0.0,0.0,1.0,8.21731201172,0.774788818359,8.9633605957,0.1,0.0,0.0,0.0,0.1,0.0,0.0,0.0,0.1
1452007983295038794,202,1452007983291434049,robocape,-27.5247125424,10.5235854949,-85.066198028,0.0,10.0,0.0,0.0,0.0,10.0,0.0,0.0,0.0,10.0,-0.133424370613,1.08883341168,-1.88245541652,1.0,0.0,0.0,0.0,1.0,0.0,0.0,0.0,1.0,4.80800170898,-1.99265625,11.1152856445,0.1,0.0,0.0,0.0,0.1,0.0,0.0,0.0,0.1
1452007983328323502,203,1452007983325115919,robocape,-27.3625091542,10.9975935544,-86.4398487799,0.0,10.0,0.0,0.0,0.0,10.0,0.0,0.0,0.0,10.0,0.0107858024148,0.979643806986,-1.71454310979,1.0,0.0,0.0,0.0,1.0,0.0,0.0,0.0,1.0,3.87633911133,-0.914897460938,11.5176489258,0.1,0.0,0.0,0.0,0.1,0.0,0.0,0.0,0.1
1452007983361665669,204,1452007983358305931,robocape,-27.4139131625,11.8456858194,-88.0508319069,0.0,10.0,0.0,0.0,0.0,10.0,0.0,0.0,0.0,10.0,-0.0808269390839,1.27099363024,-1.8877817387,1.0,0.0,0.0,0.0,1.0,0.0,0.0,0.0,1.0,2.3375390625,-0.524509277344,10.6003564453,0.1,0.0,0.0,0.0,0.1,0.0,0.0,0.0,0.1
1452007983394999877,205,1452007983391653060,robocape,-27.8941049353,12.7077638715,-89.5713110034,0.0,10.0,0.0,0.0,0.0,10.0,0.0,0.0,0.0,10.0,-0.298806674307,1.287505229,-1.8980349089,1.0,0.0,0.0,0.0,1.0,0.0,0.0,0.0,1.0,1.21068237305,-1.53520751953,10.4183349609,0.1,0.0,0.0,0.0,0.1,0.0,0.0,0.0,0.1
1452007983428256710,206,1452007983425231933,robocape,-28.1889167611,13.3176440631,-90.8960695397,0.0,10.0,0.0,0.0,0.0,10.0,0.0,0.0,0.0,10.0,-0.196408130393,1.12918030219,-1.84557063542,1.0,0.0,0.0,0.0,1.0,0.0,0.0,0.0,1.0,0.261057128906,-2.29442871094,11.7284106445,0.1,0.0,0.0,0.0,0.1,0.0,0.0,0.0,0.1
1452007983461525169,207,1452007983458355903,robocape,-28.7726894255,13.8676122851,-92.1301881392,0.0,10.0,0.0,0.0,0.0,10.0,0.0,0.0,0.0,10.0,-0.349406735018,1.10454606211,-1.85302748648,1.0,0.0,0.0,0.0,1.0,0.0,0.0,0.0,1.0,1.39629638672,-0.870589599609,10.346484375,0.1,0.0,0.0,0.0,0.1,0.0,0.0,0.0,0.1
1452007983495030044,208,1452007983491952896,robocape,-29.3369454392,14.824846133,-92.944442406,0.0,10.0,0.0,0.0,0.0,10.0,0.0,0.0,0.0,10.0,-0.353934108872,1.12891398608,-1.35741320761,1.0,0.0,0.0,0.0,1.0,0.0,0.0,0.0,1.0,-0.435893554688,-4.7481262207,10.3297192383,0.1,0.0,0.0,0.0,0.1,0.0,0.0,0.0,0.1
1452007983529526919,209,1452007983525582075,robocape,-29.906604498,15.940857133,-93.9259443118,0.0,10.0,0.0,0.0,0.0,10.0,0.0,0.0,0.0,10.0,-0.329566184897,1.30295156332,-1.48351388523,1.0,0.0,0.0,0.0,1.0,0.0,0.0,0.0,1.0,1.0693762207,-3.59492431641,9.61121337891,0.1,0.0,0.0,0.0,0.1,0.0,0.0,0.0,0.1
1452007983562794585,210,1452007983558464050,robocape,-30.361735339,17.0020587112,-94.6578430091,0.0,10.0,0.0,0.0,0.0,10.0,0.0,0.0,0.0,10.0,-0.272707695624,1.18950090088,-1.27845048129,1.0,0.0,0.0,0.0,1.0,0.0,0.0,0.0,1.0,-2.69798950195,-3.58294921875,8.61967529297,0.1,0.0,0.0,0.0,0.1,0.0,0.0,0.0,0.1
1452007983598025669,211,1452007983594507932,robocape,-30.7240995589,17.6752503964,-95.5407200933,0.0,10.0,0.0,0.0,0.0,10.0,0.0,0.0,0.0,10.0,-0.196141814284,1.12105766087,-1.57299609786,1.0,0.0,0.0,0.0,1.0,0.0,0.0,0.0,1.0,3.30991699219,-2.30520629883,9.67468139648,0.1,0.0,0.0,0.0,0.1,0.0,0.0,0.0,0.1
1452007983630395211,212,1452007983627233982,robocape,-31.045407811,18.3024294113,-96.2838130465,0.0,10.0,0.0,0.0,0.0,10.0,0.0,0.0,0.0,10.0,-0.178831267199,1.05660916249,-1.48018493387,1.0,0.0,0.0,0.0,1.0,0.0,0.0,0.0,1.0,2.46687011719,-2.59260864258,11.0039172363,0.1,0.0,0.0,0.0,0.1,0.0,0.0,0.0,0.1
1452007983663540836,213,1452007983659931898,robocape,-31.2360863113,18.7272506308,-96.8835582394,0.0,10.0,0.0,0.0,0.0,10.0,0.0,0.0,0.0,10.0,-0.117711720182,0.917192679423,-1.42905224094,1.0,0.0,0.0,0.0,1.0,0.0,0.0,0.0,1.0,4.09548339844,-2.08007446289,8.53704711914,0.1,0.0,0.0,0.0,0.1,0.0,0.0,0.0,0.1
1452007983696540544,214,1452007983693356037,robocape,-31.4444338585,19.1532064915,-97.5410927653,0.0,10.0,0.0,0.0,0.0,10.0,0.0,0.0,0.0,10.0,-0.113450662437,0.964064314609,-1.50921338975,1.0,0.0,0.0,0.0,1.0,0.0,0.0,0.0,1.0,3.23806640625,-3.63444213867,9.64115112305,0.1,0.0,0.0,0.0,0.1,0.0,0.0,0.0,0.1
1452007983729717252,215,1452007983726603031,robocape,-31.4011727669,19.152114382,-97.8806278417,0.0,10.0,0.0,0.0,0.0,10.0,0.0,0.0,0.0,10.0,-0.0159789665405,0.631302336403,-1.35741320761,1.0,0.0,0.0,0.0,1.0,0.0,0.0,0.0,1.0,0.755628662109,-1.98786621094,10.1656604004,0.1,0.0,0.0,0.0,0.1,0.0,0.0,0.0,0.1
1452007983763359169,216,1452007983759906053,robocape,-31.6765992622,19.023434136,-98.1674234424,0.0,10.0,0.0,0.0,0.0,10.0,0.0,0.0,0.0,10.0,-0.194011285412,0.562592780279,-1.38084902521,1.0,0.0,0.0,0.0,1.0,0.0,0.0,0.0,1.0,0.63228515625,-2.12078979492,7.19823120117,0.1,0.0,0.0,0.0,0.1,0.0,0.0,0.0,0.1
1452007983796819836,217,1452007983793533086,robocape,-31.923419707,19.5473536158,-98.5399225914,0.0,10.0,0.0,0.0,0.0,10.0,0.0,0.0,0.0,10.0,-0.16644756813,0.886166852724,-1.24063359381,1.0,0.0,0.0,0.0,1.0,0.0,0.0,0.0,1.0,1.24780517578,-4.56610473633,10.3836071777,0.1,0.0,0.0,0.0,0.1,0.0,0.0,0.0,0.1
1452007983828804336,218,1452007983825736999,robocape,-32.0541816196,19.9937931356,-98.9278540589,0.0,10.0,0.0,0.0,0.0,10.0,0.0,0.0,0.0,10.0,-0.0964064314609,0.872584731164,-1.28936944176,1.0,0.0,0.0,0.0,1.0,0.0,0.0,0.0,1.0,2.7243347168,-4.31582519531,9.31782348633,0.1,0.0,0.0,0.0,0.1,0.0,0.0,0.0,0.1
1452007983862109252,219,1452007983859040021,robocape,-32.1906978941,20.0483981894,-99.2907465141,0.0,10.0,0.0,0.0,0.0,10.0,0.0,0.0,0.0,10.0,-0.099602224769,0.708933482179,-1.42172854794,1.0,0.0,0.0,0.0,1.0,0.0,0.0,0.0,1.0,1.42503662109,-2.65128662109,9.69384155273,0.1,0.0,0.0,0.0,0.1,0.0,0.0,0.0,0.1
1452007983899306669,220,1452007983895132064,robocape,-32.6550388792,20.195246509,-99.7525598806,0.0,10.0,0.0,0.0,0.0,10.0,0.0,0.0,0.0,10.0,-0.260989786828,0.816658348273,-1.51866761162,1.0,0.0,0.0,0.0,1.0,0.0,0.0,0.0,1.0,3.99249755859,-3.2991394043,8.81606689453,0.1,0.0,0.0,0.0,0.1,0.0,0.0,0.0,0.1
1452007983931405294,221,1452007983926383018,robocape,-32.8361014479,20.6015519041,-99.9446766032,0.0,10.0,0.0,0.0,0.0,10.0,0.0,0.0,0.0,10.0,-0.146074385791,0.782969360483,-1.14782242982,1.0,0.0,0.0,0.0,1.0,0.0,0.0,0.0,1.0,5.441484375,-7.39462280273,9.36093383789,0.1,0.0,0.0,0.0,0.1,0.0,0.0,0.0,0.1
1452007983966513127,222,1452007983961932897,robocape,-32.6178259682,20.7368395626,-100.136608143,0.0,10.0,0.0,0.0,0.0,10.0,0.0,0.0,0.0,10.0,0.0701742947236,0.672980807463,-1.23823674883,1.0,0.0,0.0,0.0,1.0,0.0,0.0,0.0,1.0,-0.270637207031,-3.30632446289,8.67955078125,0.1,0.0,0.0,0.0,0.1,0.0,0.0,0.0,0.1
1452007983998650002,223,1452007983995023965,robocape,-32.6417090199,21.1246243003,-100.069214048,0.0,10.0,0.0,0.0,0.0,10.0,0.0,0.0,0.0,10.0,-0.0925448478803,0.637960239128,-0.89402317794,1.0,0.0,0.0,0.0,1.0,0.0,0.0,0.0,1.0,-0.798739013672,-4.23559204102,9.09748168945,0.1,0.0,0.0,0.0,0.1,0.0,0.0,0.0,0.1
1452007984031806586,224,1452007984028691053,robocape,-32.4047648402,21.6768763301,-100.050771421,0.0,10.0,0.0,0.0,0.0,10.0,0.0,0.0,0.0,10.0,0.0585895439817,0.729706138682,-0.868856305638,1.0,0.0,0.0,0.0,1.0,0.0,0.0,0.0,1.0,-2.24173828125,-3.94100463867,8.34664306641,0.1,0.0,0.0,0.0,0.1,0.0,0.0,0.0,0.1
1452007984065202169,225,1452007984061799049,robocape,-33.0421899117,22.4136376901,-100.229330811,0.0,10.0,0.0,0.0,0.0,10.0,0.0,0.0,0.0,10.0,-0.367649388485,0.927978481838,-1.02398543914,1.0,0.0,0.0,0.0,1.0,0.0,0.0,0.0,1.0,0.658630371094,-6.76114013672,9.3884765625,0.1,0.0,0.0,0.0,0.1,0.0,0.0,0.0,0.1
1452007984098231752,226,1452007984095071077,robocape,-33.3589478509,22.6146186406,-100.363652863,0.0,10.0,0.0,0.0,0.0,10.0,0.0,0.0,0.0,10.0,-0.202666558955,0.694419254238,-1.1663313994,1.0,0.0,0.0,0.0,1.0,0.0,0.0,0.0,1.0,2.94228149414,-4.00686767578,8.05445068359,0.1,0.0,0.0,0.0,0.1,0.0,0.0,0.0,0.1
1452007984131758294,227,1452007984128452062,robocape,-33.0474743699,22.7419787085,-100.172964342,0.0,10.0,0.0,0.0,0.0,10.0,0.0,0.0,0.0,10.0,0.0759000910673,0.478570047887,-0.848616281354,1.0,0.0,0.0,0.0,1.0,0.0,0.0,0.0,1.0,0.870589599609,-5.03073852539,8.93462036133,0.1,0.0,0.0,0.0,0.1,0.0,0.0,0.0,0.1
1452007984165436711,228,1452007984161653995,robocape,-33.0636871168,22.7928112219,-100.080890877,0.0,10.0,0.0,0.0,0.0,10.0,0.0,0.0,0.0,10.0,-0.0786964102118,0.502937971861,-0.979244332822,1.0,0.0,0.0,0.0,1.0,0.0,0.0,0.0,1.0,-0.0395178222656,-4.15535888672,9.81838256836,0.1,0.0,0.0,0.0,0.1,0.0,0.0,0.0,0.1
1452007984199148086,229,1452007984195868015,robocape,-32.7694852493,22.4334147697,-99.814909906,0.0,10.0,0.0,0.0,0.0,10.0,0.0,0.0,0.0,10.0,0.0549942765101,0.233159753436,-0.941427445343,1.0,0.0,0.0,0.0,1.0,0.0,0.0,0.0,1.0,1.37953125,-4.92655517578,6.92160644531,0.1,0.0,0.0,0.0,0.1,0.0,0.0,0.0,0.1
1452007984232274211,230,1452007984229022026,robocape,-33.005046208,22.8992658116,-99.8228124061,0.0,10.0,0.0,0.0,0.0,10.0,0.0,0.0,0.0,10.0,-0.178298634981,0.721050865139,-0.92211952744,1.0,0.0,0.0,0.0,1.0,0.0,0.0,0.0,1.0,1.96391601563,-6.2114831543,9.44236450195,0.1,0.0,0.0,0.0,0.1,0.0,0.0,0.0,0.1
1452007984265193002,231,1452007984261662006,robocape,-32.9962819632,23.3753032054,-99.7253283967,0.0,10.0,0.0,0.0,0.0,10.0,0.0,0.0,0.0,10.0,-0.0640490242164,0.668053959446,-0.802144120332,1.0,0.0,0.0,0.0,1.0,0.0,0.0,0.0,1.0,1.48012207031,-6.26297607422,7.8520715332,0.1,0.0,0.0,0.0,0.1,0.0,0.0,0.0,0.1
1452007984298413836,232,1452007984295223951,robocape,-33.1481326519,23.5997630967,-99.5651631445,0.0,10.0,0.0,0.0,0.0,10.0,0.0,0.0,0.0,10.0,-0.158058610696,0.533830640506,-0.82957467956,1.0,0.0,0.0,0.0,1.0,0.0,0.0,0.0,1.0,4.7169909668,-4.11584106445,9.78844482422,0.1,0.0,0.0,0.0,0.1,0.0,0.0,0.0,0.1
1452007984331113753,233,1452007984327965021,robocape,-32.871781662,23.7264324697,-99.2115702469,0.0,10.0,0.0,0.0,0.0,10.0,0.0,0.0,0.0,10.0,0.033555829735,0.381764142263,-0.65633605065,1.0,0.0,0.0,0.0,1.0,0.0,0.0,0.0,1.0,0.678988037109,-4.02123779297,7.44372070313,0.1,0.0,0.0,0.0,0.1,0.0,0.0,0.0,0.1
1452007984364460378,234,1452007984360943078,robocape,-32.7200129021,24.2402100219,-98.7411119345,0.0,10.0,0.0,0.0,0.0,10.0,0.0,0.0,0.0,10.0,-0.0527305895836,0.473643199871,-0.39734363464,1.0,0.0,0.0,0.0,1.0,0.0,0.0,0.0,1.0,0.989143066406,-4.12901367188,9.79562988281,0.1,0.0,0.0,0.0,0.1,0.0,0.0,0.0,0.1
1452007984397405044,235,1452007984394236087,robocape,-32.5526486417,24.812690409,-98.2275623814,0.0,10.0,0.0,0.0,0.0,10.0,0.0,0.0,0.0,10.0,-0.051532167093,0.472844251544,-0.323041440227,1.0,0.0,0.0,0.0,1.0,0.0,0.0,0.0,1.0,0.822689208984,-5.95880859375,7.64969238281,0.1,0.0,0.0,0.0,0.1,0.0,0.0,0.0,0.1
1452007984429805253,236,1452007984426645994,robocape,-32.6585292743,24.8905642929,-97.7714356075,0.0,10.0,0.0,0.0,0.0,10.0,0.0,0.0,0.0,10.0,-0.183624957161,0.297475093762,-0.538624330469,1.0,0.0,0.0,0.0,1.0,0.0,0.0,0.0,1.0,4.67627563477,-5.50135986328,9.97286132813,0.1,0.0,0.0,0.0,0.1,0.0,0.0,0.0,0.1
1452007984465377294,237,1452007984461976051,robocape,-32.5356767664,24.9480482457,-97.3369416583,0.0,10.0,0.0,0.0,0.0,10.0,0.0,0.0,0.0,10.0,-0.0593884923088,0.294146142399,-0.547945394284,1.0,0.0,0.0,0.0,1.0,0.0,0.0,0.0,1.0,2.62973144531,-5.50255737305,7.01860473633,0.1,0.0,0.0,0.0,0.1,0.0,0.0,0.0,0.1
1452007984497707794,238,1452007984494302988,robocape,-32.0547151596,25.6018977617,-96.6176059786,0.0,10.0,0.0,0.0,0.0,10.0,0.0,0.0,0.0,10.0,0.0715058752686,0.387489938607,-0.0661795530885,1.0,0.0,0.0,0.0,1.0,0.0,0.0,0.0,1.0,3.1386730957,-5.33131347656,8.66997070313,0.1,0.0,0.0,0.0,0.1,0.0,0.0,0.0,0.1
1452007984530636378,239,1452007984527534961,robocape,-32.1365411617,25.8854653977,-95.9367321286,0.0,10.0,0.0,0.0,0.0,10.0,0.0,0.0,0.0,10.0,-0.217047628841,0.252733987449,-0.218911841605,1.0,0.0,0.0,0.0,1.0,0.0,0.0,0.0,1.0,1.49928222656,-2.8392956543,7.78620849609,0.1,0.0,0.0,0.0,0.1,0.0,0.0,0.0,0.1
1452007984563952628,240,1452007984560827016,robocape,-32.0246056657,25.9981797682,-95.2340890933,0.0,10.0,0.0,0.0,0.0,10.0,0.0,0.0,0.0,10.0,-0.120774355435,0.163251774822,-0.236355546745,1.0,0.0,0.0,0.0,1.0,0.0,0.0,0.0,1.0,1.32564331055,-4.42360107422,7.60897705078,0.1,0.0,0.0,0.0,0.1,0.0,0.0,0.0,0.1
1452007984598201336,241,1452007984594885110,robocape,-31.5887728375,26.1462867528,-94.5125714611,0.0,10.0,0.0,0.0,0.0,10.0,0.0,0.0,0.0,10.0,0.0455400546404,0.161520720113,-0.187886014905,1.0,0.0,0.0,0.0,1.0,0.0,0.0,0.0,1.0,1.82739990234,-6.23902587891,8.57416992188,0.1,0.0,0.0,0.0,0.1,0.0,0.0,0.0,0.1
1452007984628959086,242,1452007984625897884,robocape,-31.4386623952,26.2926228578,-93.7368324932,0.0,10.0,0.0,0.0,0.0,10.0,0.0,0.0,0.0,10.0,-0.1167796138,0.130361735359,-0.130761209523,1.0,0.0,0.0,0.0,1.0,0.0,0.0,0.0,1.0,0.614322509766,-5.78516967773,8.42328369141,0.1,0.0,0.0,0.0,0.1,0.0,0.0,0.0,0.1
1452007984663357044,243,1452007984660104990,robocape,-31.245822786,26.3806560068,-92.961922984,0.0,10.0,0.0,0.0,0.0,10.0,0.0,0.0,0.0,10.0,-0.0948085348068,0.100001698932,-0.133557528667,1.0,0.0,0.0,0.0,1.0,0.0,0.0,0.0,1.0,0.983155517578,-5.01397338867,8.10833862305,0.1,0.0,0.0,0.0,0.1,0.0,0.0,0.0,0.1
1452007984695839711,244,1452007984692399024,robocape,-30.7761319177,26.640506763,-92.0105466969,0.0,10.0,0.0,0.0,0.0,10.0,0.0,0.0,0.0,10.0,0.0114515926873,0.084022732392,0.0857537871006,1.0,0.0,0.0,0.0,1.0,0.0,0.0,0.0,1.0,-1.1879296875,-4.6020300293,8.58614501953,0.1,0.0,0.0,0.0,0.1,0.0,0.0,0.0,0.1
1452007984729494711,245,1452007984726430892,robocape,-30.4440370754,26.6221573464,-91.4004219821,0.0,10.0,0.0,0.0,0.0,10.0,0.0,0.0,0.0,10.0,0.0151800182135,0.119575932945,-0.267780847607,1.0,0.0,0.0,0.0,1.0,0.0,0.0,0.0,1.0,-1.12685668945,-5.48219970703,8.56578735352,0.1,0.0,0.0,0.0,0.1,0.0,0.0,0.0,0.1
1452007984763767461,246,1452007984759114980,robocape,-30.3397855635,26.6918644856,-90.8240750286,0.0,10.0,0.0,0.0,0.0,10.0,0.0,0.0,0.0,10.0,-0.0974716958969,0.170309151711,-0.261256102937,1.0,0.0,0.0,0.0,1.0,0.0,0.0,0.0,1.0,-0.942440185547,-5.78157714844,8.14785644531,0.1,0.0,0.0,0.0,0.1,0.0,0.0,0.0,0.1
1452007984794945503,247,1452007984791826963,robocape,-30.0122349506,26.9710899509,-90.3015622677,0.0,10.0,0.0,0.0,0.0,10.0,0.0,0.0,0.0,10.0,0.0318247750264,0.283892972202,-0.232360805109,1.0,0.0,0.0,0.0,1.0,0.0,0.0,0.0,1.0,-1.09452392578,-4.94212280273,10.520123291,0.1,0.0,0.0,0.0,0.1,0.0,0.0,0.0,0.1
1452007984828260961,248,1452007984825170040,robocape,-29.8165904073,26.9776081366,-90.0456182045,0.0,10.0,0.0,0.0,0.0,10.0,0.0,0.0,0.0,10.0,0.0242347659197,0.280697178894,-0.51798483202,1.0,0.0,0.0,0.0,1.0,0.0,0.0,0.0,1.0,-1.44778930664,-2.46687011719,8.03888305664,0.1,0.0,0.0,0.0,0.1,0.0,0.0,0.0,0.1
1452007984861800044,249,1452007984858788013,robocape,-29.5530974098,27.4950794865,-89.7271832374,0.0,10.0,0.0,0.0,0.0,10.0,0.0,0.0,0.0,10.0,0.0459395288039,0.481100050923,-0.321310385518,1.0,0.0,0.0,0.0,1.0,0.0,0.0,0.0,1.0,1.02267333984,-4.90739501953,9.86748046875,0.1,0.0,0.0,0.0,0.1,0.0,0.0,0.0,0.1
1452007984894770128,250,1452007984891484975,robocape,-29.3147579261,27.786511032,-89.4369246671,0.0,10.0,0.0,0.0,0.0,10.0,0.0,0.0,0.0,10.0,0.0419447871687,0.391484680242,-0.400139953784,1.0,0.0,0.0,0.0,1.0,0.0,0.0,0.0,1.0,-2.99616943359,-2.68481689453,6.38152954102,0.1,0.0,0.0,0.0,0.1,0.0,0.0,0.0,0.1
1452007984928308919,251,1452007984925259113,robocape,-29.5111129972,27.898467807,-89.1131138534,0.0,10.0,0.0,0.0,0.0,10.0,0.0,0.0,0.0,10.0,-0.194410759576,0.29387982629,-0.417716816979,1.0,0.0,0.0,0.0,1.0,0.0,0.0,0.0,1.0,-0.198786621094,-4.00207763672,12.3499182129,0.1,0.0,0.0,0.0,0.1,0.0,0.0,0.0,0.1
1452007984961783336,252,1452007984958739042,robocape,-29.4648764928,28.2723973066,-88.7198823235,0.0,10.0,0.0,0.0,0.0,10.0,0.0,0.0,0.0,10.0,-0.08455536461,0.380698877827,-0.283892972202,1.0,0.0,0.0,0.0,1.0,0.0,0.0,0.0,1.0,-0.2682421875,-4.54335205078,7.56945922852,0.1,0.0,0.0,0.0,0.1,0.0,0.0,0.0,0.1
1452007984994523044,253,1452007984991523981,robocape,-29.2718235492,28.7490380183,-88.2624865536,0.0,10.0,0.0,0.0,0.0,10.0,0.0,0.0,0.0,10.0,-0.0226368692657,0.398675215185,-0.198538659265,1.0,0.0,0.0,0.0,1.0,0.0,0.0,0.0,1.0,-2.4872277832,-4.17930908203,10.2267333984,0.1,0.0,0.0,0.0,0.1,0.0,0.0,0.0,0.1
1452007985028201420,254,1452007985025176048,robocape,-29.2077510288,28.6755326101,-88.0819843523,0.0,10.0,0.0,0.0,0.0,10.0,0.0,0.0,0.0,10.0,-0.0203731823391,0.265916634844,-0.549942765101,1.0,0.0,0.0,0.0,1.0,0.0,0.0,0.0,1.0,-1.74477172852,-6.22705078125,8.03169799805,0.1,0.0,0.0,0.0,0.1,0.0,0.0,0.0,0.1
1452007985061525795,255,1452007985058459997,robocape,-29.0745160665,28.9919313019,-88.0988670303,0.0,10.0,0.0,0.0,0.0,10.0,0.0,0.0,0.0,10.0,0.0649811305979,0.531167479416,-0.600542825813,1.0,0.0,0.0,0.0,1.0,0.0,0.0,0.0,1.0,-1.80344970703,-2.36987182617,6.41865234375,0.1,0.0,0.0,0.0,0.1,0.0,0.0,0.0,0.1
1452007985094516461,256,1452007985091500997,robocape,-29.3474740281,29.2417809042,-87.9251104454,0.0,10.0,0.0,0.0,0.0,10.0,0.0,0.0,0.0,10.0,-0.195609182066,0.418515765306,-0.470047932399,1.0,0.0,0.0,0.0,1.0,0.0,0.0,0.0,1.0,-0.832269287109,-5.49058227539,11.0194848633,0.1,0.0,0.0,0.0,0.1,0.0,0.0,0.0,0.1
1452007985128312878,257,1452007985125231027,robocape,-29.4796762505,29.2013804176,-88.0845794181,0.0,10.0,0.0,0.0,0.0,10.0,0.0,0.0,0.0,10.0,-0.0371510972066,0.431964728811,-0.798149378697,1.0,0.0,0.0,0.0,1.0,0.0,0.0,0.0,1.0,-1.23463256836,-7.08207275391,7.27966186523,0.1,0.0,0.0,0.0,0.1,0.0,0.0,0.0,0.1
1452007985162037336,258,1452007985158962965,robocape,-29.4512091234,29.479760062,-88.0166750203,0.0,10.0,0.0,0.0,0.0,10.0,0.0,0.0,0.0,10.0,-0.0105194863058,0.480833734814,-0.541820123777,1.0,0.0,0.0,0.0,1.0,0.0,0.0,0.0,1.0,-1.47892456055,-5.64506103516,10.3297192383,0.1,0.0,0.0,0.0,0.1,0.0,0.0,0.0,0.1
1452007985194761045,259,1452007985191679000,robocape,-29.0260023302,30.246250006,-87.6201244992,0.0,10.0,0.0,0.0,0.0,10.0,0.0,0.0,0.0,10.0,0.115448033255,0.564190676933,-0.16231966844,1.0,0.0,0.0,0.0,1.0,0.0,0.0,0.0,1.0,-0.01916015625,-3.27997924805,8.48076416016,0.1,0.0,0.0,0.0,0.1,0.0,0.0,0.0,0.1
1452007985228532420,260,1452007985225471973,robocape,-29.5753967167,30.4839671621,-87.9586484585,0.0,10.0,0.0,0.0,0.0,10.0,0.0,0.0,0.0,10.0,-0.200802346192,0.640889716328,-0.853276813261,1.0,0.0,0.0,0.0,1.0,0.0,0.0,0.0,1.0,0.310155029297,-5.41274414063,10.7931555176,0.1,0.0,0.0,0.0,0.1,0.0,0.0,0.0,0.1
1452007985263013253,261,1452007985259947061,robocape,-29.7155441271,30.4498997962,-88.1749787501,0.0,10.0,0.0,0.0,0.0,10.0,0.0,0.0,0.0,10.0,-0.0170442309765,0.469648458235,-0.834235211467,1.0,0.0,0.0,0.0,1.0,0.0,0.0,0.0,1.0,-1.42982666016,-2.06091430664,7.77303588867,0.1,0.0,0.0,0.0,0.1,0.0,0.0,0.0,0.1
1452007985294785795,262,1452007985291553974,robocape,-29.5231113252,30.6593173198,-88.119460773,0.0,10.0,0.0,0.0,0.0,10.0,0.0,0.0,0.0,10.0,0.0858869451551,0.464721610219,-0.568052260514,1.0,0.0,0.0,0.0,1.0,0.0,0.0,0.0,1.0,-3.97812744141,-4.3301953125,9.00048339844,0.1,0.0,0.0,0.0,0.1,0.0,0.0,0.0,0.1
1452007985328160253,263,1452007985325088024,robocape,-30.3090476127,30.7982045899,-88.6816094553,0.0,10.0,0.0,0.0,0.0,10.0,0.0,0.0,0.0,10.0,-0.263919264027,0.708134533852,-1.05887284942,1.0,0.0,0.0,0.0,1.0,0.0,0.0,0.0,1.0,0.451461181641,-4.62358520508,8.04127807617,0.1,0.0,0.0,0.0,0.1,0.0,0.0,0.0,0.1
1452007985361590961,264,1452007985358565092,robocape,-30.971521719,30.9006081653,-89.1506925425,0.0,10.0,0.0,0.0,0.0,10.0,0.0,0.0,0.0,10.0,-0.226235534602,0.665657114465,-1.00813963065,1.0,0.0,0.0,0.0,1.0,0.0,0.0,0.0,1.0,3.31111450195,-6.28692626953,9.37410644531,0.1,0.0,0.0,0.0,0.1,0.0,0.0,0.0,0.1
1452007985394618920,265,1452007985391417026,robocape,-31.185154431,31.6009910858,-89.1160637061,0.0,10.0,0.0,0.0,0.0,10.0,0.0,0.0,0.0,10.0,-0.126366993724,0.715990859068,-0.466053190764,1.0,0.0,0.0,0.0,1.0,0.0,0.0,0.0,1.0,1.96391601563,-1.70285888672,7.82692382813,0.1,0.0,0.0,0.0,0.1,0.0,0.0,0.0,0.1
1452007985428241545,266,1452007985425239086,robocape,-31.1931750144,31.9158203829,-89.1119207257,0.0,10.0,0.0,0.0,0.0,10.0,0.0,0.0,0.0,10.0,-0.00572579634367,0.560062777244,-0.590822287834,1.0,0.0,0.0,0.0,1.0,0.0,0.0,0.0,1.0,-4.05476806641,-7.21739135742,7.41977050781,0.1,0.0,0.0,0.0,0.1,0.0,0.0,0.0,0.1
1452007985461745961,267,1452007985458678960,robocape,-31.7366701027,31.6816944019,-89.576653459,0.0,10.0,0.0,0.0,0.0,10.0,0.0,0.0,0.0,10.0,-0.156727030151,0.531167479416,-1.09589078857,1.0,0.0,0.0,0.0,1.0,0.0,0.0,0.0,1.0,1.85494262695,-3.47038330078,8.94180541992,0.1,0.0,0.0,0.0,0.1,0.0,0.0,0.0,0.1
1452007985494830670,268,1452007985491744041,robocape,-32.5086774948,31.376340674,-90.0666729139,0.0,10.0,0.0,0.0,0.0,10.0,0.0,0.0,0.0,10.0,-0.277235069477,0.5247758928,-1.15195032951,1.0,0.0,0.0,0.0,1.0,0.0,0.0,0.0,1.0,1.08015380859,-4.54454956055,10.4243225098,0.1,0.0,0.0,0.0,0.1,0.0,0.0,0.0,0.1
1452007985529028336,269,1452007985525557994,robocape,-32.4070433447,31.6564851809,-90.2072258027,0.0,10.0,0.0,0.0,0.0,10.0,0.0,0.0,0.0,10.0,0.08455536461,0.628639175313,-0.726377187319,1.0,0.0,0.0,0.0,1.0,0.0,0.0,0.0,1.0,-2.42375976563,-5.1732421875,7.39342529297,0.1,0.0,0.0,0.0,0.1,0.0,0.0,0.0,0.1
1452007985562448295,270,1452007985559020042,robocape,-32.4131558197,31.5981248098,-90.3991729719,0.0,10.0,0.0,0.0,0.0,10.0,0.0,0.0,0.0,10.0,0.0451405804768,0.505734291006,-0.867391567039,1.0,0.0,0.0,0.0,1.0,0.0,0.0,0.0,1.0,1.74836425781,-3.56139404297,9.48547485352,0.1,0.0,0.0,0.0,0.1,0.0,0.0,0.0,0.1
1452007985596148711,271,1452007985592945098,robocape,-32.3168167295,31.8112820303,-90.4975715055,0.0,10.0,0.0,0.0,0.0,10.0,0.0,0.0,0.0,10.0,0.0740358783042,0.583631752891,-0.722648761793,1.0,0.0,0.0,0.0,1.0,0.0,0.0,0.0,1.0,0.240699462891,-4.91338256836,8.43765380859,0.1,0.0,0.0,0.0,0.1,0.0,0.0,0.0,0.1
1452007985628535086,272,1452007985624994993,robocape,-32.6629687872,32.0532696858,-90.3348573177,0.0,10.0,0.0,0.0,0.0,10.0,0.0,0.0,0.0,10.0,-0.230762908455,0.472178461271,-0.516386935366,1.0,0.0,0.0,0.0,1.0,0.0,0.0,0.0,1.0,-1.66334106445,-2.96623168945,7.34791992188,0.1,0.0,0.0,0.0,0.1,0.0,0.0,0.0,0.1
1452007985661798378,273,1452007985658488988,robocape,-32.8609415766,32.4389451371,-90.3621670419,0.0,10.0,0.0,0.0,0.0,10.0,0.0,0.0,0.0,10.0,-0.10053433115,0.629304965586,-0.612926524882,1.0,0.0,0.0,0.0,1.0,0.0,0.0,0.0,1.0,-1.19631225586,-6.89645874023,8.63284790039,0.1,0.0,0.0,0.0,0.1,0.0,0.0,0.0,0.1
1452007985694997295,274,1452007985691808938,robocape,-33.300121607,32.9750545428,-90.2013033724,0.0,10.0,0.0,0.0,0.0,10.0,0.0,0.0,0.0,10.0,-0.280430862785,0.607333886593,-0.424374719704,1.0,0.0,0.0,0.0,1.0,0.0,0.0,0.0,1.0,0.458646240234,-6.78509033203,8.41490112305,0.1,0.0,0.0,0.0,0.1,0.0,0.0,0.0,0.1
1452007985728266170,275,1452007985725135087,robocape,-33.6725288534,33.7316976966,-90.0996471426,0.0,10.0,0.0,0.0,0.0,10.0,0.0,0.0,0.0,10.0,-0.228632379583,0.736230883352,-0.395479421877,1.0,0.0,0.0,0.0,1.0,0.0,0.0,0.0,1.0,-0.416733398438,-6.44499755859,10.3201391602,0.1,0.0,0.0,0.0,0.1,0.0,0.0,0.0,0.1
1452007985761883503,276,1452007985758819103,robocape,-33.60522826,33.9636608224,-90.2157159337,0.0,10.0,0.0,0.0,0.0,10.0,0.0,0.0,0.0,10.0,0.0709732430506,0.617453898735,-0.70453926638,1.0,0.0,0.0,0.0,1.0,0.0,0.0,0.0,1.0,0.876577148438,-2.9925769043,8.88791748047,0.1,0.0,0.0,0.0,0.1,0.0,0.0,0.0,0.1
1452007985794867962,277,1452007985791635036,robocape,-33.7688309693,34.0730843177,-90.2640286096,0.0,10.0,0.0,0.0,0.0,10.0,0.0,0.0,0.0,10.0,-0.0689758722331,0.532232743852,-0.69268819953,1.0,0.0,0.0,0.0,1.0,0.0,0.0,0.0,1.0,0.167651367188,-3.50630859375,7.76225830078,0.1,0.0,0.0,0.0,0.1,0.0,0.0,0.0,0.1
1452007985828148587,278,1452007985825062036,robocape,-34.0937526855,34.083623417,-90.4647477093,0.0,10.0,0.0,0.0,0.0,10.0,0.0,0.0,0.0,10.0,-0.109322762748,0.565921731642,-0.833569421195,1.0,0.0,0.0,0.0,1.0,0.0,0.0,0.0,1.0,0.549656982422,-4.37450317383,10.4362976074,0.1,0.0,0.0,0.0,0.1,0.0,0.0,0.0,0.1
1452007985861504420,279,1452007985858414888,robocape,-34.3753279257,33.8919393247,-90.7102351367,0.0,10.0,0.0,0.0,0.0,10.0,0.0,0.0,0.0,10.0,-0.0747016685767,0.505201658788,-0.931706907364,1.0,0.0,0.0,0.0,1.0,0.0,0.0,0.0,1.0,3.07520507813,-3.45960571289,8.10594360352,0.1,0.0,0.0,0.0,0.1,0.0,0.0,0.0,0.1
1452007985895737128,280,1452007985892606973,robocape,-34.1541052903,33.7106848818,-90.6781279665,0.0,10.0,0.0,0.0,0.0,10.0,0.0,0.0,0.0,10.0,0.10732539193,0.375505713701,-0.730505087009,1.0,0.0,0.0,0.0,1.0,0.0,0.0,0.0,1.0,0.736468505859,-2.09204956055,7.78141845703,0.1,0.0,0.0,0.0,0.1,0.0,0.0,0.0,0.1
1452007985929714212,281,1452007985926615953,robocape,-34.6937819525,33.5902936334,-90.8914347774,0.0,10.0,0.0,0.0,0.0,10.0,0.0,0.0,0.0,10.0,-0.224637637948,0.522512205874,-0.895354758485,1.0,0.0,0.0,0.0,1.0,0.0,0.0,0.0,1.0,1.05380859375,-8.25802734375,9.6914465332,0.1,0.0,0.0,0.0,0.1,0.0,0.0,0.0,0.1
1452007985962313878,282,1452007985959006071,robocape,-34.5811849945,33.9195163733,-91.0155071105,0.0,10.0,0.0,0.0,0.0,10.0,0.0,0.0,0.0,10.0,0.0917458995532,0.678173971589,-0.694419254238,1.0,0.0,0.0,0.0,1.0,0.0,0.0,0.0,1.0,-1.70405639648,-7.06530761719,11.0182873535,0.1,0.0,0.0,0.0,0.1,0.0,0.0,0.0,0.1
1452007985996426462,283,1452007985992790937,robocape,-34.9291064781,33.8870183748,-91.258487211,0.0,10.0,0.0,0.0,0.0,10.0,0.0,0.0,0.0,10.0,-0.113716978546,0.584963333436,-0.896553180975,1.0,0.0,0.0,0.0,1.0,0.0,0.0,0.0,1.0,-0.775986328125,-1.38072875977,8.10354858398,0.1,0.0,0.0,0.0,0.1,0.0,0.0,0.0,0.1
1452007986030068087,284,1452007986026746988,robocape,-34.9998508046,33.8781900466,-91.4281262958,0.0,10.0,0.0,0.0,0.0,10.0,0.0,0.0,0.0,10.0,0.0099868540878,0.56379120277,-0.84022732392,1.0,0.0,0.0,0.0,1.0,0.0,0.0,0.0,1.0,-0.787961425781,-2.6860144043,9.65552124023,0.1,0.0,0.0,0.0,0.1,0.0,0.0,0.0,0.1
1452007986064226712,285,1452007986060662031,robocape,-35.6736836934,33.6450765041,-91.8433314508,0.0,10.0,0.0,0.0,0.0,10.0,0.0,0.0,0.0,10.0,-0.23888554978,0.598145980832,-1.09961921409,1.0,0.0,0.0,0.0,1.0,0.0,0.0,0.0,1.0,-1.19032470703,-5.54447021484,9.49505493164,0.1,0.0,0.0,0.0,0.1,0.0,0.0,0.0,0.1
1452007986096556087,286,1452007986093312025,robocape,-36.0578008926,33.7355284696,-92.3774698217,0.0,10.0,0.0,0.0,0.0,10.0,0.0,0.0,0.0,10.0,-0.0563258570552,0.809867287493,-1.0952249983,1.0,0.0,0.0,0.0,1.0,0.0,0.0,0.0,1.0,0.552052001953,-5.41992919922,8.5418371582,0.1,0.0,0.0,0.0,0.1,0.0,0.0,0.0,0.1
1452007986129939753,287,1452007986126740932,robocape,-36.4766268802,33.754871742,-92.8120963386,0.0,10.0,0.0,0.0,0.0,10.0,0.0,0.0,0.0,10.0,-0.103596966404,0.741024573315,-1.05807390109,1.0,0.0,0.0,0.0,1.0,0.0,0.0,0.0,1.0,-0.00359252929688,-3.75658813477,8.05804321289,0.1,0.0,0.0,0.0,0.1,0.0,0.0,0.0,0.1
1452007986163495837,288,1452007986160391092,robocape,-36.7035995028,34.0572919507,-93.0465861704,0.0,10.0,0.0,0.0,0.0,10.0,0.0,0.0,0.0,10.0,-0.0607200728538,0.762063545926,-0.822916776834,1.0,0.0,0.0,0.0,1.0,0.0,0.0,0.0,1.0,0.370030517578,-3.58175170898,8.4340612793,0.1,0.0,0.0,0.0,0.1,0.0,0.0,0.0,0.1
1452007986198585628,289,1452007986195401906,robocape,-36.9832465835,34.3474243501,-93.2948029009,0.0,10.0,0.0,0.0,0.0,10.0,0.0,0.0,0.0,10.0,-0.0822916776834,0.770985135578,-0.840094165865,1.0,0.0,0.0,0.0,1.0,0.0,0.0,0.0,1.0,-0.659827880859,-3.52427124023,9.94891113281,0.1,0.0,0.0,0.0,0.1,0.0,0.0,0.0,0.1
1452007986231925962,290,1452007986228410005,robocape,-37.0979643175,34.4333419624,-93.483788082,0.0,10.0,0.0,0.0,0.0,10.0,0.0,0.0,0.0,10.0,-0.0103863282513,0.662061846994,-0.868190515366,1.0,0.0,0.0,0.0,1.0,0.0,0.0,0.0,1.0,0.0431103515625,-4.44276123047,8.11672119141,0.1,0.0,0.0,0.0,0.1,0.0,0.0,0.0,0.1
1452007986265409962,291,1452007986260571956,robocape,-37.4879137536,34.5596803666,-93.8221003625,0.0,10.0,0.0,0.0,0.0,10.0,0.0,0.0,0.0,10.0,-0.11145329162,0.764327232853,-0.970455901225,1.0,0.0,0.0,0.0,1.0,0.0,0.0,0.0,1.0,-2.95305908203,-5.23072265625,10.6650219727,0.1,0.0,0.0,0.0,0.1,0.0,0.0,0.0,0.1
1452007986299018712,292,1452007986295042991,robocape,-37.9683986999,34.3700264489,-94.2795575861,0.0,10.0,0.0,0.0,0.0,10.0,0.0,0.0,0.0,10.0,-0.124902255125,0.711996117433,-1.17738351792,1.0,0.0,0.0,0.0,1.0,0.0,0.0,0.0,1.0,2.33993408203,-3.71587280273,9.11424682617,0.1,0.0,0.0,0.0,0.1,0.0,0.0,0.0,0.1
1452007986332388753,293,1452007986329000949,robocape,-38.1852879093,33.9101397926,-94.6668777657,0.0,10.0,0.0,0.0,0.0,10.0,0.0,0.0,0.0,10.0,-0.0102531701968,0.577506482384,-1.2357067458,1.0,0.0,0.0,0.0,1.0,0.0,0.0,0.0,1.0,1.07057373047,-2.26209594727,9.24956542969,0.1,0.0,0.0,0.0,0.1,0.0,0.0,0.0,0.1
1452007986365797378,294,1452007986362322092,robocape,-38.3078233678,33.2998839919,-94.6167459836,0.0,10.0,0.0,0.0,0.0,10.0,0.0,0.0,0.0,10.0,-0.0922785317712,0.281229811112,-0.974583800914,1.0,0.0,0.0,0.0,1.0,0.0,0.0,0.0,1.0,1.93637329102,-3.32548461914,9.02682861328,0.1,0.0,0.0,0.0,0.1,0.0,0.0,0.0,0.1
1452007986398925837,295,1452007986395751953,robocape,-38.6431142038,33.0186035912,-95.039538831,0.0,10.0,0.0,0.0,0.0,10.0,0.0,0.0,0.0,10.0,-0.0786964102118,0.677375023262,-1.22385567895,1.0,0.0,0.0,0.0,1.0,0.0,0.0,0.0,1.0,-0.819096679688,-4.3337878418,7.75746826172,0.1,0.0,0.0,0.0,0.1,0.0,0.0,0.0,0.1
1452007986432140087,296,1452007986428603887,robocape,-39.2514588584,33.3556359664,-95.2272757326,0.0,10.0,0.0,0.0,0.0,10.0,0.0,0.0,0.0,10.0,-0.293080877963,0.796817798152,-0.831971524541,1.0,0.0,0.0,0.0,1.0,0.0,0.0,0.0,1.0,1.61184814453,-5.39717651367,9.21962768555,0.1,0.0,0.0,0.0,0.1,0.0,0.0,0.0,0.1
1452007986467196629,297,1452007986463913917,robocape,-38.6689249904,33.4318815521,-95.2422287195,0.0,10.0,0.0,0.0,0.0,10.0,0.0,0.0,0.0,10.0,0.290950349091,0.597480190559,-0.784434099083,1.0,0.0,0.0,0.0,1.0,0.0,0.0,0.0,1.0,-2.07648193359,-5.18880981445,8.51908447266,0.1,0.0,0.0,0.0,0.1,0.0,0.0,0.0,0.1
1452007986499079045,298,1452007986495718002,robocape,-39.3221157252,33.9706804258,-95.6343499561,0.0,10.0,0.0,0.0,0.0,10.0,0.0,0.0,0.0,10.0,-0.253266619667,0.996421721853,-0.914529518333,1.0,0.0,0.0,0.0,1.0,0.0,0.0,0.0,1.0,-3.01772460938,-3.69671264648,7.33354980469,0.1,0.0,0.0,0.0,0.1,0.0,0.0,0.0,0.1
1452007986532656337,299,1452007986529104948,robocape,-40.3416550613,33.681590671,-96.3325879932,0.0,10.0,0.0,0.0,0.0,10.0,0.0,0.0,0.0,10.0,-0.360325695488,0.875913682527,-1.46833386702,1.0,0.0,0.0,0.0,1.0,0.0,0.0,0.0,1.0,-2.75666748047,-4.88823486328,8.29036010742,0.1,0.0,0.0,0.0,0.1,0.0,0.0,0.0,0.1
1452007986566287295,300,1452007986562984943,robocape,-41.188770238,33.9548777559,-96.6535773997,0.0,10.0,0.0,0.0,0.0,10.0,0.0,0.0,0.0,10.0,-0.384427303353,0.889362646032,-0.980575913367,1.0,0.0,0.0,0.0,1.0,0.0,0.0,0.0,1.0,-3.45840820313,-4.92416015625,9.51301757812,0.1,0.0,0.0,0.0,0.1,0.0,0.0,0.0,0.1
1452007986598972795,301,1452007986595767974,robocape,-41.305859413,34.4851420071,-96.9521857893,0.0,10.0,0.0,0.0,0.0,10.0,0.0,0.0,0.0,10.0,-0.0034621094171,0.97711380395,-0.852744181043,1.0,0.0,0.0,0.0,1.0,0.0,0.0,0.0,1.0,0.298179931641,-8.88073242188,7.78141845703,0.1,0.0,0.0,0.0,0.1,0.0,0.0,0.0,0.1
1452007986630597712,302,1452007986627310037,robocape,-42.5900575332,34.7605244021,-97.4978275498,0.0,10.0,0.0,0.0,0.0,10.0,0.0,0.0,0.0,10.0,-0.548344868447,1.05088336615,-1.15448033255,1.0,0.0,0.0,0.0,1.0,0.0,0.0,0.0,1.0,-0.740061035156,-1.97349609375,7.30959960938,0.1,0.0,0.0,0.0,0.1,0.0,0.0,0.0,0.1
1452007986665643254,303,1452007986662559032,robocape,-43.1052462864,34.5748777744,-97.8388450571,0.0,10.0,0.0,0.0,0.0,10.0,0.0,0.0,0.0,10.0,-0.204131297555,0.78376830881,-1.1914982717,1.0,0.0,0.0,0.0,1.0,0.0,0.0,0.0,1.0,3.87993164063,-5.43310180664,7.61975463867,0.1,0.0,0.0,0.0,0.1,0.0,0.0,0.0,0.1
1452007986698020962,304,1452007986694983005,robocape,-42.8717562234,34.5839330999,-98.2586503537,0.0,10.0,0.0,0.0,0.0,10.0,0.0,0.0,0.0,10.0,0.213319203315,0.903344241755,-1.16886140244,1.0,0.0,0.0,0.0,1.0,0.0,0.0,0.0,1.0,0.962797851563,-5.37442382813,7.07967773438,0.1,0.0,0.0,0.0,0.1,0.0,0.0,0.0,0.1
1452007986731066254,305,1452007986728044033,robocape,-44.3235290401,35.2189441874,-98.7185738896,0.0,10.0,0.0,0.0,0.0,10.0,0.0,0.0,0.0,10.0,-0.667920801392,1.16380139636,-0.96499642099,1.0,0.0,0.0,0.0,1.0,0.0,0.0,0.0,1.0,4.83674194336,-0.356857910156,8.58973754883,0.1,0.0,0.0,0.0,0.1,0.0,0.0,0.0,0.1
1452007986764978129,306,1452007986761873006,robocape,-45.7445923845,35.4933970195,-99.2183308135,0.0,10.0,0.0,0.0,0.0,10.0,0.0,0.0,0.0,10.0,-0.644351825745,1.09482552413,-1.14502611068,1.0,0.0,0.0,0.0,1.0,0.0,0.0,0.0,1.0,3.38296508789,-1.55556518555,7.94427978516,0.1,0.0,0.0,0.0,0.1,0.0,0.0,0.0,0.1
1452007986797526295,307,1452007986794500112,robocape,-46.5196550253,36.0933401442,-99.7264615957,0.0,10.0,0.0,0.0,0.0,10.0,0.0,0.0,0.0,10.0,-0.302135625669,1.21932830509,-0.990962241618,1.0,0.0,0.0,0.0,1.0,0.0,0.0,0.0,1.0,4.99840576172,-9.05916137695,7.87841674805,0.1,0.0,0.0,0.0,0.1,0.0,0.0,0.0,0.1
1452007986830713337,308,1452007986827685117,robocape,-47.1740112862,36.2307411559,-100.065262298,0.0,10.0,0.0,0.0,0.0,10.0,0.0,0.0,0.0,10.0,-0.285490868856,0.983638548621,-1.08150971868,1.0,0.0,0.0,0.0,1.0,0.0,0.0,0.0,1.0,3.38296508789,-6.43062744141,8.62326782227,0.1,0.0,0.0,0.0,0.1,0.0,0.0,0.0,0.1
1452007986864818212,309,1452007986861701011,robocape,-47.2549659209,36.282028473,-100.009372592,0.0,10.0,0.0,0.0,0.0,10.0,0.0,0.0,0.0,10.0,-0.0989364344964,0.702275579454,-0.83223784065,1.0,0.0,0.0,0.0,1.0,0.0,0.0,0.0,1.0,1.78428955078,-4.08231079102,7.69280273438,0.1,0.0,0.0,0.0,0.1,0.0,0.0,0.0,0.1
1452007986896562379,310,1452007986893500089,robocape,-47.4570684545,36.1066864256,-99.7760745203,0.0,10.0,0.0,0.0,0.0,10.0,0.0,0.0,0.0,10.0,-0.216914470787,0.519582728674,-0.811332026093,1.0,0.0,0.0,0.0,1.0,0.0,0.0,0.0,1.0,2.79139526367,-5.74205932617,10.6302941895,0.1,0.0,0.0,0.0,0.1,0.0,0.0,0.0,0.1
1452007986929851254,311,1452007986926588058,robocape,-47.4674776062,35.8757849993,-99.4748112886,0.0,10.0,0.0,0.0,0.0,10.0,0.0,0.0,0.0,10.0,-0.138750692793,0.452471069204,-0.779507251066,1.0,0.0,0.0,0.0,1.0,0.0,0.0,0.0,1.0,0.549656982422,-2.59141113281,7.72872802734,0.1,0.0,0.0,0.0,0.1,0.0,0.0,0.0,0.1
1452007986963268462,312,1452007986959830999,robocape,-47.6087469651,34.9467038248,-99.2221304879,0.0,10.0,0.0,0.0,0.0,10.0,0.0,0.0,0.0,10.0,-0.200003397865,0.274705066442,-1.1396997885,1.0,0.0,0.0,0.0,1.0,0.0,0.0,0.0,1.0,0.993933105469,-5.83426757812,6.8593359375,0.1,0.0,0.0,0.0,0.1,0.0,0.0,0.0,0.1
1452007986995179670,313,1452007986992149114,robocape,-47.5640923644,35.0773663089,-99.0430136038,0.0,10.0,0.0,0.0,0.0,10.0,0.0,0.0,0.0,10.0,-0.0852211548825,0.625976014223,-0.688160825676,1.0,0.0,0.0,0.0,1.0,0.0,0.0,0.0,1.0,1.11248657227,-8.29634765625,10.0590820312,0.1,0.0,0.0,0.0,0.1,0.0,0.0,0.0,0.1
1452007987028877004,314,1452007987025757074,robocape,-47.3487919204,35.0282592708,-98.7545009094,0.0,10.0,0.0,0.0,0.0,10.0,0.0,0.0,0.0,10.0,-0.0247673981377,0.494549014428,-0.684299242096,1.0,0.0,0.0,0.0,1.0,0.0,0.0,0.0,1.0,1.31726074219,-6.26417358398,6.69647460938,0.1,0.0,0.0,0.0,0.1,0.0,0.0,0.0,0.1
1452007987062140004,315,1452007987058629989,robocape,-46.6475406565,35.011317439,-98.32299946,0.0,10.0,0.0,0.0,0.0,10.0,0.0,0.0,0.0,10.0,0.194677075685,0.393881525223,-0.546214339575,1.0,0.0,0.0,0.0,1.0,0.0,0.0,0.0,1.0,1.06099365234,-3.91346191406,8.93342285156,0.1,0.0,0.0,0.0,0.1,0.0,0.0,0.0,0.1
1452007987094903879,316,1452007987091809034,robocape,-46.5748845346,35.2972757008,-97.8828196941,0.0,10.0,0.0,0.0,0.0,10.0,0.0,0.0,0.0,10.0,-0.138084902521,0.484828476449,-0.409993649818,1.0,0.0,0.0,0.0,1.0,0.0,0.0,0.0,1.0,0.789158935547,-6.7407824707,6.5946862793,0.1,0.0,0.0,0.0,0.1,0.0,0.0,0.0,0.1
1452007987128585504,317,1452007987125256061,robocape,-46.4685520874,35.254230507,-97.3983817917,0.0,10.0,0.0,0.0,0.0,10.0,0.0,0.0,0.0,10.0,-0.133424370613,0.349406735018,-0.516120619257,1.0,0.0,0.0,0.0,1.0,0.0,0.0,0.0,1.0,-0.009580078125,-4.17571655273,7.61855712891,0.1,0.0,0.0,0.0,0.1,0.0,0.0,0.0,0.1
1452007987161824129,318,1452007987158660888,robocape,-46.6770582433,35.19245436,-97.0586108908,0.0,10.0,0.0,0.0,0.0,10.0,0.0,0.0,0.0,10.0,-0.261921893209,0.434228415737,-0.62291337897,1.0,0.0,0.0,0.0,1.0,0.0,0.0,0.0,1.0,2.8740234375,-7.90236694336,7.93829223633,0.1,0.0,0.0,0.0,0.1,0.0,0.0,0.0,0.1
1452007987194960254,319,1452007987191895961,robocape,-45.8175549775,35.2257945426,-96.5733836323,0.0,10.0,0.0,0.0,0.0,10.0,0.0,0.0,0.0,10.0,0.263386631809,0.344879361165,-0.44022052819,1.0,0.0,0.0,0.0,1.0,0.0,0.0,0.0,1.0,1.47173950195,-7.72992553711,9.07951904297,0.1,0.0,0.0,0.0,0.1,0.0,0.0,0.0,0.1
1452007987228592629,320,1452007987225244045,robocape,-45.013551963,35.3964638505,-95.9280863527,0.0,10.0,0.0,0.0,0.0,10.0,0.0,0.0,0.0,10.0,0.192812862922,0.283759814148,-0.262720841536,1.0,0.0,0.0,0.0,1.0,0.0,0.0,0.0,1.0,1.60705810547,-3.77215576172,7.08806030273,0.1,0.0,0.0,0.0,0.1,0.0,0.0,0.0,0.1
1452007987261405796,321,1452007987258305072,robocape,-44.7610872708,35.3872442874,-95.1889845688,0.0,10.0,0.0,0.0,0.0,10.0,0.0,0.0,0.0,10.0,-0.123703832634,0.169643361438,-0.276968753368,1.0,0.0,0.0,0.0,1.0,0.0,0.0,0.0,1.0,1.65256347656,-4.41402099609,8.34185302734,0.1,0.0,0.0,0.0,0.1,0.0,0.0,0.0,0.1
1452007987294784379,322,1452007987291712999,robocape,-44.3152515366,35.6810545961,-94.3857390174,0.0,10.0,0.0,0.0,0.0,10.0,0.0,0.0,0.0,10.0,-0.0398142582967,0.222373951022,-0.0880174740271,1.0,0.0,0.0,0.0,1.0,0.0,0.0,0.0,1.0,0.625100097656,-5.92647583008,8.03169799805,0.1,0.0,0.0,0.0,0.1,0.0,0.0,0.0,0.1
1452007987328362796,323,1452007987325186967,robocape,-44.1709244687,36.0026217986,-93.5267712737,0.0,10.0,0.0,0.0,0.0,10.0,0.0,0.0,0.0,10.0,-0.215582890242,0.199337607592,-0.0344879361165,1.0,0.0,0.0,0.0,1.0,0.0,0.0,0.0,1.0,0.990340576172,-6.91921142578,7.0856652832,0.1,0.0,0.0,0.0,0.1,0.0,0.0,0.0,0.1
1452007987361532712,324,1452007987358411073,robocape,-43.846231108,36.337227889,-92.5310809072,0.0,10.0,0.0,0.0,0.0,10.0,0.0,0.0,0.0,10.0,-0.161387562059,0.117978036291,0.0757669330128,1.0,0.0,0.0,0.0,1.0,0.0,0.0,0.0,1.0,2.02379150391,-6.75994262695,7.73950561523,0.1,0.0,0.0,0.0,0.1,0.0,0.0,0.0,0.1
1452007987394731504,325,1452007987391737937,robocape,-43.4317901943,36.5666606534,-91.5191011503,0.0,10.0,0.0,0.0,0.0,10.0,0.0,0.0,0.0,10.0,-0.120374881272,0.0667121853065,0.0583232278727,1.0,0.0,0.0,0.0,1.0,0.0,0.0,0.0,1.0,1.70764892578,-5.44986694336,7.52515136719,0.1,0.0,0.0,0.0,0.1,0.0,0.0,0.0,0.1
1452007987428554546,326,1452007987425246953,robocape,-43.004059195,36.8419923034,-90.4079347119,0.0,10.0,0.0,0.0,0.0,10.0,0.0,0.0,0.0,10.0,-0.14367754081,0.0241016078652,0.151001233807,1.0,0.0,0.0,0.0,1.0,0.0,0.0,0.0,1.0,0.664617919922,-6.01868408203,7.76704833984,0.1,0.0,0.0,0.0,0.1,0.0,0.0,0.0,0.1
1452007987462083421,327,1452007987458997011,robocape,-42.5329437647,37.1170205502,-89.2639346265,0.0,10.0,0.0,0.0,0.0,10.0,0.0,0.0,0.0,10.0,-0.132225948122,0.00306263525359,0.183358641052,1.0,0.0,0.0,0.0,1.0,0.0,0.0,0.0,1.0,0.647852783203,-6.22226074219,7.71675292969,0.1,0.0,0.0,0.0,0.1,0.0,0.0,0.0,0.1
1452007987494644754,328,1452007987491648912,robocape,-41.9153135856,37.3442100307,-88.1736347866,0.0,10.0,0.0,0.0,0.0,10.0,0.0,0.0,0.0,10.0,-0.0404800485692,0.00985369603329,0.147139650227,1.0,0.0,0.0,0.0,1.0,0.0,0.0,0.0,1.0,0.213156738281,-5.75762695313,7.80656616211,0.1,0.0,0.0,0.0,0.1,0.0,0.0,0.0,0.1
1452007987528408837,329,1452007987525146961,robocape,-41.4014037773,37.4801657135,-87.1512812706,0.0,10.0,0.0,0.0,0.0,10.0,0.0,0.0,0.0,10.0,-0.0753674588492,0.00932106381528,0.082957467956,1.0,0.0,0.0,0.0,1.0,0.0,0.0,0.0,1.0,-0.119750976563,-5.80792236328,7.87003417969,0.1,0.0,0.0,0.0,0.1,0.0,0.0,0.0,0.1
1452007987561709129,330,1452007987558608055,robocape,-40.8591218585,37.622441487,-86.1237318663,0.0,10.0,0.0,0.0,0.0,10.0,0.0,0.0,0.0,10.0,-0.0624511275624,0.00506000607115,0.10053433115,1.0,0.0,0.0,0.0,1.0,0.0,0.0,0.0,1.0,-0.0562829589844,-5.85223022461,7.78022094727,0.1,0.0,0.0,0.0,0.1,0.0,0.0,0.0,0.1
1452007987596025254,331,1452007987593022108,robocape,-40.2669192582,37.7128836676,-85.1675905023,0.0,10.0,0.0,0.0,0.0,10.0,0.0,0.0,0.0,10.0,-0.0146473859954,0.0162452826495,0.0532632218016,1.0,0.0,0.0,0.0,1.0,0.0,0.0,0.0,1.0,-0.584384765625,-5.901328125,7.83410888672,0.1,0.0,0.0,0.0,0.1,0.0,0.0,0.0,0.1
1452007987628324546,332,1452007987625073909,robocape,-39.7046736285,37.7478194235,-84.2817452396,0.0,10.0,0.0,0.0,0.0,10.0,0.0,0.0,0.0,10.0,-0.00865527354276,0.0247673981377,0.00466053190764,1.0,0.0,0.0,0.0,1.0,0.0,0.0,0.0,1.0,-0.354462890625,-5.99233886719,7.76585083008,0.1,0.0,0.0,0.0,0.1,0.0,0.0,0.0,0.1
1452007987661676712,333,1452007987658504962,robocape,-39.0648484238,37.8077907775,-83.4030862922,0.0,10.0,0.0,0.0,0.0,10.0,0.0,0.0,0.0,10.0,0.03488741028,0.0331563555715,0.0213052887206,1.0,0.0,0.0,0.0,1.0,0.0,0.0,0.0,1.0,-0.322130126953,-5.94443847656,7.74190063477,0.1,0.0,0.0,0.0,0.1,0.0,0.0,0.0,0.1
1452007987694733004,334,1452007987691663026,robocape,-38.4308613944,37.8272185507,-82.5946878991,0.0,10.0,0.0,0.0,0.0,10.0,0.0,0.0,0.0,10.0,0.0541953281831,0.0458063707494,-0.0214384467751,1.0,0.0,0.0,0.0,1.0,0.0,0.0,0.0,1.0,-0.602347412109,-6.2809387207,7.80536865234,0.1,0.0,0.0,0.0,0.1,0.0,0.0,0.0,0.1
1452007987728061129,335,1452007987724895954,robocape,-37.7108642086,37.8978227263,-81.7390276447,0.0,10.0,0.0,0.0,0.0,10.0,0.0,0.0,0.0,10.0,0.0857537871006,0.0406132066237,0.0331563555715,1.0,0.0,0.0,0.0,1.0,0.0,0.0,0.0,1.0,-0.143701171875,-5.96000610352,8.03050048828,0.1,0.0,0.0,0.0,0.1,0.0,0.0,0.0,0.1
1452007987761543879,336,1452007987758236885,robocape,-37.0792454068,37.8491061017,-80.9345083957,0.0,10.0,0.0,0.0,0.0,10.0,0.0,0.0,0.0,10.0,0.0563258570552,0.0101200121423,-0.0234358175927,1.0,0.0,0.0,0.0,1.0,0.0,0.0,0.0,1.0,-0.382005615234,-6.02586914063,7.74309814453,0.1,0.0,0.0,0.0,0.1,0.0,0.0,0.0,0.1
1452007987794695421,337,1452007987791635036,robocape,-36.3715735165,37.9512615952,-80.0690995123,0.0,10.0,0.0,0.0,0.0,10.0,0.0,0.0,0.0,10.0,0.0780306199393,0.0440753160408,0.0669785014155,1.0,0.0,0.0,0.0,1.0,0.0,0.0,0.0,1.0,-1.44180175781,-6.12286743164,8.39334594727,0.1,0.0,0.0,0.0,0.1,0.0,0.0,0.0,0.1
1452007987828109963,338,1452007987824927091,robocape,-36.1155801377,37.87166471,-79.4511399888,0.0,10.0,0.0,0.0,0.0,10.0,0.0,0.0,0.0,10.0,-0.0818922035199,0.0740358783042,-0.122372252089,1.0,0.0,0.0,0.0,1.0,0.0,0.0,0.0,1.0,-0.408350830078,-4.72297851562,7.59460693359,0.1,0.0,0.0,0.0,0.1,0.0,0.0,0.0,0.1
1452007987861584421,339,1452007987858258962,robocape,-35.862970438,37.8600257197,-78.8679815645,0.0,10.0,0.0,0.0,0.0,10.0,0.0,0.0,0.0,10.0,-0.0731037719227,0.114915401037,-0.114649084928,1.0,0.0,0.0,0.0,1.0,0.0,0.0,0.0,1.0,-1.17954711914,-6.60666137695,7.81494873047,0.1,0.0,0.0,0.0,0.1,0.0,0.0,0.0,0.1
1452007987894689046,340,1452007987891477108,robocape,-35.4009821838,37.8490937574,-78.2099930702,0.0,10.0,0.0,0.0,0.0,10.0,0.0,0.0,0.0,10.0,0.0142479118319,0.0768321974488,-0.0623179695079,1.0,0.0,0.0,0.0,1.0,0.0,0.0,0.0,1.0,-1.29810058594,-6.31327148438,8.05924072266,0.1,0.0,0.0,0.0,0.1,0.0,0.0,0.0,0.1
1452007987929096213,341,1452007987925467967,robocape,-34.844310205,37.9313248322,-77.5803175193,0.0,10.0,0.0,0.0,0.0,10.0,0.0,0.0,0.0,10.0,0.0733700880317,0.126766467888,-0.0434095257683,1.0,0.0,0.0,0.0,1.0,0.0,0.0,0.0,1.0,-1.5328125,-6.30967895508,8.08079589844,0.1,0.0,0.0,0.0,0.1,0.0,0.0,0.0,0.1
1452007987961887046,342,1452007987958442926,robocape,-34.2910238283,37.9276996244,-76.827641199,0.0,10.0,0.0,0.0,0.0,10.0,0.0,0.0,0.0,10.0,0.034354778062,0.033289513626,0.00852211548825,1.0,0.0,0.0,0.0,1.0,0.0,0.0,0.0,1.0,-0.579594726562,-5.84983520508,8.25443481445,0.1,0.0,0.0,0.0,0.1,0.0,0.0,0.0,0.1
1452007987995012546,343,1452007987991838932,robocape,-34.0900258679,37.7340743775,-76.4073163079,0.0,10.0,0.0,0.0,0.0,10.0,0.0,0.0,0.0,10.0,-0.0462058449129,0.0818922035199,-0.221841318804,1.0,0.0,0.0,0.0,1.0,0.0,0.0,0.0,1.0,-2.08845703125,-5.34688110352,7.2389465332,0.1,0.0,0.0,0.0,0.1,0.0,0.0,0.0,0.1
1452007988028252629,344,1452007988024796962,robocape,-34.1979007419,38.1544032158,-75.765160886,0.0,10.0,0.0,0.0,0.0,10.0,0.0,0.0,0.0,10.0,-0.280697178894,0.27377296006,0.0644484983799,1.0,0.0,0.0,0.0,1.0,0.0,0.0,0.0,1.0,-0.772393798828,-4.43557617188,9.31782348633,0.1,0.0,0.0,0.0,0.1,0.0,0.0,0.0,0.1
1452007988061596254,345,1452007988058403015,robocape,-34.3786935647,38.0690291368,-75.5452574142,0.0,10.0,0.0,0.0,0.0,10.0,0.0,0.0,0.0,10.0,-0.187087066578,0.21198762277,-0.295078248781,1.0,0.0,0.0,0.0,1.0,0.0,0.0,0.0,1.0,0.889749755859,-7.23655151367,6.63659912109,0.1,0.0,0.0,0.0,0.1,0.0,0.0,0.0,0.1
1452007988094579213,346,1452007988091484069,robocape,-34.3225849045,37.5732863027,-75.7705333759,0.0,10.0,0.0,0.0,0.0,10.0,0.0,0.0,0.0,10.0,0.0766990393943,0.200536030083,-0.641954980764,1.0,0.0,0.0,0.0,1.0,0.0,0.0,0.0,1.0,1.72680908203,-6.4761328125,8.04008056641,0.1,0.0,0.0,0.0,0.1,0.0,0.0,0.0,0.1
1452007988128093754,347,1452007988124816894,robocape,-34.0535062814,37.324681608,-75.8404442048,0.0,10.0,0.0,0.0,0.0,10.0,0.0,0.0,0.0,10.0,0.139017008902,0.247673981377,-0.492418485556,1.0,0.0,0.0,0.0,1.0,0.0,0.0,0.0,1.0,-2.05851928711,-3.65360229492,8.22329956055,0.1,0.0,0.0,0.0,0.1,0.0,0.0,0.0,0.1
1452007988162119838,348,1452007988158900976,robocape,-35.0149232155,37.2548404832,-76.5700345566,0.0,10.0,0.0,0.0,0.0,10.0,0.0,0.0,0.0,10.0,-0.311456689485,0.618386005116,-0.830906260105,1.0,0.0,0.0,0.0,1.0,0.0,0.0,0.0,1.0,-1.65855102539,-6.72281982422,7.02578979492,0.1,0.0,0.0,0.0,0.1,0.0,0.0,0.0,0.1
1452007988195270046,349,1452007988192188024,robocape,-36.5094336544,37.1230452326,-77.7240714002,0.0,10.0,0.0,0.0,0.0,10.0,0.0,0.0,0.0,10.0,-0.472844251544,0.801345172005,-1.10521185238,1.0,0.0,0.0,0.0,1.0,0.0,0.0,0.0,1.0,-2.41178466797,-6.38272705078,7.15033081055,0.1,0.0,0.0,0.0,0.1,0.0,0.0,0.0,0.1
1452007988229465921,350,1452007988226258039,robocape,-37.4909179409,37.2485157137,-78.7403844002,0.0,10.0,0.0,0.0,0.0,10.0,0.0,0.0,0.0,10.0,-0.251668723012,0.882305269143,-0.962066943791,1.0,0.0,0.0,0.0,1.0,0.0,0.0,0.0,1.0,-1.30768066406,-5.20078491211,7.82812133789,0.1,0.0,0.0,0.0,0.1,0.0,0.0,0.0,0.1
1452007988262437171,351,1452007988258399963,robocape,-38.1057030977,37.0513690222,-79.6736026803,0.0,10.0,0.0,0.0,0.0,10.0,0.0,0.0,0.0,10.0,-0.084821680719,0.723580868175,-1.02411859719,1.0,0.0,0.0,0.0,1.0,0.0,0.0,0.0,1.0,-1.23702758789,-6.56714355469,8.69272338867,0.1,0.0,0.0,0.0,0.1,0.0,0.0,0.0,0.1
1452007988295786046,352,1452007988292748928,robocape,-38.8479167489,36.9006847869,-80.9027182454,0.0,10.0,0.0,0.0,0.0,10.0,0.0,0.0,0.0,10.0,-0.0693753463966,0.905341612572,-1.20068617746,1.0,0.0,0.0,0.0,1.0,0.0,0.0,0.0,1.0,-0.832269287109,-5.88456298828,8.22449707031,0.1,0.0,0.0,0.0,0.1,0.0,0.0,0.0,0.1
1452007988328694921,353,1452007988325257062,robocape,-40.010978367,36.7239902366,-82.4265534979,0.0,10.0,0.0,0.0,0.0,10.0,0.0,0.0,0.0,10.0,-0.212786571097,1.0776481351,-1.41706801603,1.0,0.0,0.0,0.0,1.0,0.0,0.0,0.0,1.0,-1.41066650391,-6.42224487305,7.75387573242,0.1,0.0,0.0,0.0,0.1,0.0,0.0,0.0,0.1
1452007988363315004,354,1452007988359626054,robocape,-39.6984528672,37.0827522831,-82.9663726742,0.0,10.0,0.0,0.0,0.0,10.0,0.0,0.0,0.0,10.0,0.278433491968,0.825180463761,-0.670850278591,1.0,0.0,0.0,0.0,1.0,0.0,0.0,0.0,1.0,-0.617915039063,-3.0237121582,9.70222412109,0.1,0.0,0.0,0.0,0.1,0.0,0.0,0.0,0.1
1452007988394973838,355,1452007988391943931,robocape,-39.8519651623,37.350252773,-83.4515746694,0.0,10.0,0.0,0.0,0.0,10.0,0.0,0.0,0.0,10.0,0.0215716048296,0.77724356414,-0.692421883421,1.0,0.0,0.0,0.0,1.0,0.0,0.0,0.0,1.0,-2.27646606445,-1.2226574707,8.34544555664,0.1,0.0,0.0,0.0,0.1,0.0,0.0,0.0,0.1
1452007988430394671,356,1452007988426727056,robocape,-40.5260074845,37.4714195357,-84.4127603453,0.0,10.0,0.0,0.0,0.0,10.0,0.0,0.0,0.0,10.0,-0.108923288584,0.971121691497,-1.03596966404,1.0,0.0,0.0,0.0,1.0,0.0,0.0,0.0,1.0,-1.08853637695,-5.23551269531,9.12981445313,0.1,0.0,0.0,0.0,0.1,0.0,0.0,0.0,0.1
1452007988463736296,357,1452007988460324048,robocape,-39.381027796,37.8159013078,-84.3206977677,0.0,10.0,0.0,0.0,0.0,10.0,0.0,0.0,0.0,10.0,0.539023804632,0.525707999182,-0.329566184897,1.0,0.0,0.0,0.0,1.0,0.0,0.0,0.0,1.0,-6.33123413086,-4.91817260742,11.6876953125,0.1,0.0,0.0,0.0,0.1,0.0,0.0,0.0,0.1
1452007988498635379,358,1452007988494746923,robocape,-38.9564823626,37.729299591,-84.0495989822,0.0,10.0,0.0,0.0,0.0,10.0,0.0,0.0,0.0,10.0,0.109722236911,0.270710324807,-0.384826777516,1.0,0.0,0.0,0.0,1.0,0.0,0.0,0.0,1.0,-4.25115966797,0.117355957031,8.58614501953,0.1,0.0,0.0,0.0,0.1,0.0,0.0,0.0,0.1
1452007988533671296,359,1452007988529251098,robocape,-39.6574366205,36.692916113,-84.7202188781,0.0,10.0,0.0,0.0,0.0,10.0,0.0,0.0,0.0,10.0,-0.198405501211,0.347409364201,-1.27152626246,1.0,0.0,0.0,0.0,1.0,0.0,0.0,0.0,1.0,-1.44778930664,-0.589174804688,11.455378418,0.1,0.0,0.0,0.0,0.1,0.0,0.0,0.0,0.1
1452007988565313421,360,1452007988559961080,robocape,-39.8724446414,36.9887262032,-84.9397401678,0.0,10.0,0.0,0.0,0.0,10.0,0.0,0.0,0.0,10.0,-0.0881506320816,0.678307129643,-0.568584892732,1.0,0.0,0.0,0.0,1.0,0.0,0.0,0.0,1.0,-1.21187988281,-4.0966809082,7.10003540039,0.1,0.0,0.0,0.0,0.1,0.0,0.0,0.0,0.1
1452007988599769588,361,1452007988596626996,robocape,-38.7614175397,36.136358333,-85.4963357344,0.0,10.0,0.0,0.0,0.0,10.0,0.0,0.0,0.0,10.0,0.719852442648,0.356597269962,-1.13424030826,1.0,0.0,0.0,0.0,1.0,0.0,0.0,0.0,1.0,-0.536484375,-4.65232543945,9.08071655273,0.1,0.0,0.0,0.0,0.1,0.0,0.0,0.0,0.1
1452007988632698963,362,1452007988628451108,robocape,-39.1061054125,35.4072002506,-86.5480780717,0.0,10.0,0.0,0.0,0.0,10.0,0.0,0.0,0.0,10.0,0.0906806351172,0.67790765548,-1.46207543845,1.0,0.0,0.0,0.0,1.0,0.0,0.0,0.0,1.0,1.21547241211,-1.29331054688,9.04958129883,0.1,0.0,0.0,0.0,0.1,0.0,0.0,0.0,0.1
1452007988667247005,363,1452007988663620948,robocape,-39.6160633439,35.5436925571,-87.1997845055,0.0,10.0,0.0,0.0,0.0,10.0,0.0,0.0,0.0,10.0,-0.121706461817,0.852078390771,-0.953677986357,1.0,0.0,0.0,0.0,1.0,0.0,0.0,0.0,1.0,-3.58294921875,-1.65376098633,9.03161865234,0.1,0.0,0.0,0.0,0.1,0.0,0.0,0.0,0.1
1452007988698949838,364,1452007988695755004,robocape,-40.461048259,35.6130524305,-88.6030736937,0.0,10.0,0.0,0.0,0.0,10.0,0.0,0.0,0.0,10.0,-0.0830906260105,1.24063359381,-1.47698914056,1.0,0.0,0.0,0.0,1.0,0.0,0.0,0.0,1.0,1.02267333984,-4.55053710938,12.3115979004,0.1,0.0,0.0,0.0,0.1,0.0,0.0,0.0,0.1
1452007988732932755,365,1452007988729202985,robocape,-40.8483580755,35.2548050843,-90.0675209114,0.0,10.0,0.0,0.0,0.0,10.0,0.0,0.0,0.0,10.0,0.17710021249,1.14156400126,-1.70681994263,1.0,0.0,0.0,0.0,1.0,0.0,0.0,0.0,1.0,4.05237304688,-0.779578857422,11.6433874512,0.1,0.0,0.0,0.0,0.1,0.0,0.0,0.0,0.1
1452007988764951213,366,1452007988761311054,robocape,-41.6825774425,35.8288755671,-91.2941039641,0.0,10.0,0.0,0.0,0.0,10.0,0.0,0.0,0.0,10.0,-0.130228577305,1.41520380327,-1.2623383567,1.0,0.0,0.0,0.0,1.0,0.0,0.0,0.0,1.0,2.95186157227,0.783171386719,12.0565283203,0.1,0.0,0.0,0.0,0.1,0.0,0.0,0.0,0.1
1452007988797769838,367,1452007988794583082,robocape,-43.228173961,35.7316061219,-92.8813743906,0.0,10.0,0.0,0.0,0.0,10.0,0.0,0.0,0.0,10.0,-0.401471534329,1.42106275767,-1.79896531635,1.0,0.0,0.0,0.0,1.0,0.0,0.0,0.0,1.0,-2.78900024414,-0.775986328125,11.7763110352,0.1,0.0,0.0,0.0,0.1,0.0,0.0,0.0,0.1
1452007988828085255,368,1452007988825011014,robocape,-44.3217871091,35.0368768467,-94.3935404893,0.0,10.0,0.0,0.0,0.0,10.0,0.0,0.0,0.0,10.0,-0.198006027047,1.23251095249,-2.04171244971,1.0,0.0,0.0,0.0,1.0,0.0,0.0,0.0,1.0,0.662222900391,-1.50886230469,12.0277880859,0.1,0.0,0.0,0.0,0.1,0.0,0.0,0.0,0.1
1452007988861368963,369,1452007988858175992,robocape,-45.406930237,34.1950921586,-95.9946612592,0.0,10.0,0.0,0.0,0.0,10.0,0.0,0.0,0.0,10.0,-0.194410759576,1.31466947212,-2.25236849193,1.0,0.0,0.0,0.0,1.0,0.0,0.0,0.0,1.0,1.79506713867,-1.08853637695,11.0434350586,0.1,0.0,0.0,0.0,0.1,0.0,0.0,0.0,0.1
1452007988894761796,370,1452007988891765117,robocape,-46.2737529185,34.1205658592,-97.0816139362,0.0,10.0,0.0,0.0,0.0,10.0,0.0,0.0,0.0,10.0,-0.23622238869,1.31000894021,-1.62572668744,1.0,0.0,0.0,0.0,1.0,0.0,0.0,0.0,1.0,-2.54830078125,-3.57217163086,9.62917602539,0.1,0.0,0.0,0.0,0.1,0.0,0.0,0.0,0.1
1452007988928008171,371,1452007988924997091,robocape,-47.2120502469,33.7226177503,-98.3869787302,0.0,10.0,0.0,0.0,0.0,10.0,0.0,0.0,0.0,10.0,-0.226501850711,1.40175483976,-1.97819605771,1.0,0.0,0.0,0.0,1.0,0.0,0.0,0.0,1.0,2.74588989258,-1.82141235352,11.5332165527,0.1,0.0,0.0,0.0,0.1,0.0,0.0,0.0,0.1
1452007988961862338,372,1452007988958611011,robocape,-48.0629783223,33.0891084833,-99.3174778511,0.0,10.0,0.0,0.0,0.0,10.0,0.0,0.0,0.0,10.0,-0.294945090726,1.14422716235,-1.88258857458,1.0,0.0,0.0,0.0,1.0,0.0,0.0,0.0,1.0,2.84169067383,-1.0382409668,8.73703125,0.1,0.0,0.0,0.0,0.1,0.0,0.0,0.0,0.1
1452007988995152380,373,1452007988992153882,robocape,-49.06843251,32.3647965043,-100.265217559,0.0,10.0,0.0,0.0,0.0,10.0,0.0,0.0,0.0,10.0,-0.396677844367,1.1900335331,-2.00722451359,1.0,0.0,0.0,0.0,1.0,0.0,0.0,0.0,1.0,1.02387084961,-1.42503662109,9.63157104492,0.1,0.0,0.0,0.0,0.1,0.0,0.0,0.0,0.1
1452007989030533796,374,1452007989027251005,robocape,-50.1528256957,32.0520181715,-101.159146119,0.0,10.0,0.0,0.0,0.0,10.0,0.0,0.0,0.0,10.0,-0.472711093489,1.32279211344,-1.81947165674,1.0,0.0,0.0,0.0,1.0,0.0,0.0,0.0,1.0,3.46200073242,-3.15304321289,9.733359375,0.1,0.0,0.0,0.0,0.1,0.0,0.0,0.0,0.1
1452007989064308255,375,1452007989061069011,robocape,-50.3556309931,31.3934829333,-101.767336117,0.0,10.0,0.0,0.0,0.0,10.0,0.0,0.0,0.0,10.0,-0.084022732392,1.04822020506,-1.78897846226,1.0,0.0,0.0,0.0,1.0,0.0,0.0,0.0,1.0,7.06411010742,-3.97812744141,12.8732299805,0.1,0.0,0.0,0.0,0.1,0.0,0.0,0.0,0.1
1452007989096918005,376,1452007989093775987,robocape,-50.3462440577,30.5399717979,-102.15801153,0.0,10.0,0.0,0.0,0.0,10.0,0.0,0.0,0.0,10.0,-0.0339553038985,0.858469977387,-1.75941737416,1.0,0.0,0.0,0.0,1.0,0.0,0.0,0.0,1.0,7.09644287109,-0.870589599609,9.83395019531,0.1,0.0,0.0,0.0,0.1,0.0,0.0,0.0,0.1
1452007989130353046,377,1452007989126996040,robocape,-50.8068278631,29.9714384216,-102.307004998,0.0,10.0,0.0,0.0,0.0,10.0,0.0,0.0,0.0,10.0,-0.348740944746,0.784966731301,-1.47911966943,1.0,0.0,0.0,0.0,1.0,0.0,0.0,0.0,1.0,2.27287353516,-2.90036865234,8.73703125,0.1,0.0,0.0,0.0,0.1,0.0,0.0,0.0,0.1
1452007989165416921,378,1452007989161942005,robocape,-51.3072157217,29.3993988789,-102.821391884,0.0,10.0,0.0,0.0,0.0,10.0,0.0,0.0,0.0,10.0,-0.311456689485,1.07458549985,-1.79457110055,1.0,0.0,0.0,0.0,1.0,0.0,0.0,0.0,1.0,-1.96152099609,-2.7243347168,7.99577270508,0.1,0.0,0.0,0.0,0.1,0.0,0.0,0.0,0.1
1452007989197416463,379,1452007989194330930,robocape,-51.3794380475,28.7629315543,-103.211887137,0.0,10.0,0.0,0.0,0.0,10.0,0.0,0.0,0.0,10.0,-0.119975407108,0.973385378424,-1.74170735291,1.0,0.0,0.0,0.0,1.0,0.0,0.0,0.0,1.0,-3.01892211914,-1.45736938477,11.230246582,0.1,0.0,0.0,0.0,0.1,0.0,0.0,0.0,0.1
1452007989258341838,380,1452007989226886034,robocape,-51.0874361268,28.0269997474,-103.473780209,0.0,10.0,0.0,0.0,0.0,10.0,0.0,0.0,0.0,10.0,0.0408795227327,0.847950491081,-1.70096098823,1.0,0.0,0.0,0.0,1.0,0.0,0.0,0.0,1.0,-2.19383789063,-2.45848754883,9.55493041992,0.1,0.0,0.0,0.0,0.1,0.0,0.0,0.0,0.1
1452007989278204338,381,1452007989274466991,robocape,-50.7660203218,27.4981669089,-103.473732313,0.0,10.0,0.0,0.0,0.0,10.0,0.0,0.0,0.0,10.0,0.00719053494321,0.692954515639,-1.38843903431,1.0,0.0,0.0,0.0,1.0,0.0,0.0,0.0,1.0,3.31111450195,-2.09803710938,11.3440100098,0.1,0.0,0.0,0.0,0.1,0.0,0.0,0.0,0.1
1452007989301030630,382,1452007989298027038,robocape,-51.1870196889,27.8612080359,-103.585177925,0.0,10.0,0.0,0.0,0.0,10.0,0.0,0.0,0.0,10.0,-0.360592011597,1.00574278567,-1.02984439353,1.0,0.0,0.0,0.0,1.0,0.0,0.0,0.0,1.0,3.52546875,-4.02602783203,9.71419921875,0.1,0.0,0.0,0.0,0.1,0.0,0.0,0.0,0.1
1452007989330761463,383,1452007989327718973,robocape,-51.4993583351,27.6821048615,-103.915737915,0.0,10.0,0.0,0.0,0.0,10.0,0.0,0.0,0.0,10.0,-0.276169805041,1.06300074911,-1.51800182135,1.0,0.0,0.0,0.0,1.0,0.0,0.0,0.0,1.0,0.126936035156,-2.93150390625,8.83163452148,0.1,0.0,0.0,0.0,0.1,0.0,0.0,0.0,0.1
1452007989362306880,384,1452007989359260082,robocape,-51.1720257385,27.2222795382,-104.040927872,0.0,10.0,0.0,0.0,0.0,10.0,0.0,0.0,0.0,10.0,0.0251668723012,0.823449409053,-1.47925282748,1.0,0.0,0.0,0.0,1.0,0.0,0.0,0.0,1.0,0.586779785156,-4.07991577148,11.2039013672,0.1,0.0,0.0,0.0,0.1,0.0,0.0,0.0,0.1
1452007989395522797,385,1452007989392497062,robocape,-51.3471703637,27.2405120799,-104.179943526,0.0,10.0,0.0,0.0,0.0,10.0,0.0,0.0,0.0,10.0,-0.23768712729,0.960868521301,-1.2638030953,1.0,0.0,0.0,0.0,1.0,0.0,0.0,0.0,1.0,-1.11248657227,-3.37937255859,7.95146484375,0.1,0.0,0.0,0.0,0.1,0.0,0.0,0.0,0.1
1452007989428699213,386,1452007989425180912,robocape,-51.3490214682,26.8359915908,-104.337560592,0.0,10.0,0.0,0.0,0.0,10.0,0.0,0.0,0.0,10.0,-0.152465972407,0.885634220506,-1.52279551131,1.0,0.0,0.0,0.0,1.0,0.0,0.0,0.0,1.0,1.62382324219,-3.56259155273,11.3368249512,0.1,0.0,0.0,0.0,0.1,0.0,0.0,0.0,0.1
1452007989461881838,387,1452007989458575963,robocape,-51.1078857703,26.2951001865,-104.404923023,0.0,10.0,0.0,0.0,0.0,10.0,0.0,0.0,0.0,10.0,-0.0438089999318,0.77724356414,-1.52199656298,1.0,0.0,0.0,0.0,1.0,0.0,0.0,0.0,1.0,1.87889282227,-2.00702636719,10.2530786133,0.1,0.0,0.0,0.0,0.1,0.0,0.0,0.0,0.1
1452007989494987963,388,1452007989491962909,robocape,-50.9726000924,26.5193250187,-104.372098934,0.0,10.0,0.0,0.0,0.0,10.0,0.0,0.0,0.0,10.0,-0.101466437532,0.859268925714,-1.00041646349,1.0,0.0,0.0,0.0,1.0,0.0,0.0,0.0,1.0,0.793948974609,-2.46447509766,8.58494750977,0.1,0.0,0.0,0.0,0.1,0.0,0.0,0.0,0.1
1452007989528203672,389,1452007989525005102,robocape,-51.239896462,26.9391615977,-104.329073369,0.0,10.0,0.0,0.0,0.0,10.0,0.0,0.0,0.0,10.0,-0.313187744193,0.912532147516,-0.903610557864,1.0,0.0,0.0,0.0,1.0,0.0,0.0,0.0,1.0,-0.875379638672,-4.24517211914,7.90955200195,0.1,0.0,0.0,0.0,0.1,0.0,0.0,0.0,0.1
1452007989561407088,390,1452007989558381080,robocape,-51.659285014,26.7837741458,-104.667411803,0.0,10.0,0.0,0.0,0.0,10.0,0.0,0.0,0.0,10.0,-0.348740944746,1.10587764266,-1.57712399754,1.0,0.0,0.0,0.0,1.0,0.0,0.0,0.0,1.0,-1.02746337891,-5.12534179688,8.14785644531,0.1,0.0,0.0,0.0,0.1,0.0,0.0,0.0,0.1
1452007989596719588,391,1452007989593683004,robocape,-51.945044029,27.6129946419,-105.016098903,0.0,10.0,0.0,0.0,0.0,10.0,0.0,0.0,0.0,10.0,-0.251935039121,1.31253894325,-0.993625402709,1.0,0.0,0.0,0.0,1.0,0.0,0.0,0.0,1.0,4.85829711914,-3.31949707031,10.9787695313,0.1,0.0,0.0,0.0,0.1,0.0,0.0,0.0,0.1
1452007989628621630,392,1452007989625359058,robocape,-52.0187035068,27.7284366099,-105.147433817,0.0,10.0,0.0,0.0,0.0,10.0,0.0,0.0,0.0,10.0,-0.180429163853,1.00401173096,-1.22239094035,1.0,0.0,0.0,0.0,1.0,0.0,0.0,0.0,1.0,4.86787719727,-3.18537597656,10.3979772949,0.1,0.0,0.0,0.0,0.1,0.0,0.0,0.0,0.1
