%time,field.header.seq,field.header.stamp,field.header.frame_id,field.orientation.x,field.orientation.y,field.orientation.z,field.orientation.w,field.orientation_covariance0,field.orientation_covariance1,field.orientation_covariance2,field.orientation_covariance3,field.orientation_covariance4,field.orientation_covariance5,field.orientation_covariance6,field.orientation_covariance7,field.orientation_covariance8,field.angular_velocity.x,field.angular_velocity.y,field.angular_velocity.z,field.angular_velocity_covariance0,field.angular_velocity_covariance1,field.angular_velocity_covariance2,field.angular_velocity_covariance3,field.angular_velocity_covariance4,field.angular_velocity_covariance5,field.angular_velocity_covariance6,field.angular_velocity_covariance7,field.angular_velocity_covariance8,field.linear_acceleration.x,field.linear_acceleration.y,field.linear_acceleration.z,field.linear_acceleration_covariance0,field.linear_acceleration_covariance1,field.linear_acceleration_covariance2,field.linear_acceleration_covariance3,field.linear_acceleration_covariance4,field.linear_acceleration_covariance5,field.linear_acceleration_covariance6,field.linear_acceleration_covariance7,field.linear_acceleration_covariance8
1446038180627248599,1,1446038180622992992,robocape,6.93128047749,9.30785920648,13.8609827926,0.0,10.0,0.0,0.0,0.0,10.0,0.0,0.0,0.0,10.0,0.142878592483,0.00905474770627,0.00705737688871,1.0,0.0,0.0,0.0,1.0,0.0,0.0,0.0,1.0,-0.0622705078125,0.365240478516,9.98483642578,0.1,0.0,0.0,0.0,0.1,0.0,0.0,0.0,0.1
1446038180655184141,2,1446038180650665044,robocape,7.40631245788,9.32134743889,13.6849833284,0.0,10.0,0.0,0.0,0.0,10.0,0.0,0.0,0.0,10.0,0.269645060371,0.00532632218016,-0.0785632521573,1.0,0.0,0.0,0.0,1.0,0.0,0.0,0.0,1.0,-0.373623046875,0.480201416016,10.1896105957,0.1,0.0,0.0,0.0,0.1,0.0,0.0,0.0,0.1
1446038180685042932,3,1446038180681947946,robocape,7.90899106228,9.34357622157,13.4546032164,0.0,10.0,0.0,0.0,0.0,10.0,0.0,0.0,0.0,10.0,0.289219294383,0.00532632218016,-0.10732539193,1.0,0.0,0.0,0.0,1.0,0.0,0.0,0.0,1.0,0.265847167969,1.57592285156,9.91298583984,0.1,0.0,0.0,0.0,0.1,0.0,0.0,0.0,0.1
1446038180729267141,4,1446038180716896057,robocape,8.11865688757,9.35213413409,13.3873550523,0.0,10.0,0.0,0.0,0.0,10.0,0.0,0.0,0.0,10.0,0.122239094035,0.00945422186978,-0.0227700273202,1.0,0.0,0.0,0.0,1.0,0.0,0.0,0.0,1.0,0.0526904296875,2.05851928711,9.94292358398,0.1,0.0,0.0,0.0,0.1,0.0,0.0,0.0,0.1
1446038180752236182,5,1446038180749239921,robocape,8.07011579498,9.35542038347,13.3733547813,0.0,10.0,0.0,0.0,0.0,10.0,0.0,0.0,0.0,10.0,-0.0178431793035,0.0101200121423,0.00426105774413,1.0,0.0,0.0,0.0,1.0,0.0,0.0,0.0,1.0,0.0934057617188,1.75075927734,10.0207617188,0.1,0.0,0.0,0.0,0.1,0.0,0.0,0.0,0.1
1446038180784906557,6,1446038180781887054,robocape,7.82343508183,9.3621228033,13.3763261021,0.0,10.0,0.0,0.0,0.0,10.0,0.0,0.0,0.0,10.0,-0.12357067458,0.0126500151779,0.0121173829599,1.0,0.0,0.0,0.0,1.0,0.0,0.0,0.0,1.0,0.0706530761719,1.45138183594,10.0650695801,0.1,0.0,0.0,0.0,0.1,0.0,0.0,0.0,0.1
1446038180818037807,7,1446038180814771890,robocape,7.51009188233,9.36973320676,13.3792611549,0.0,10.0,0.0,0.0,0.0,10.0,0.0,0.0,0.0,10.0,-0.158857559023,0.0129163312869,0.0118510668509,1.0,0.0,0.0,0.0,1.0,0.0,0.0,0.0,1.0,0.0431103515625,1.06698120117,10.0590820312,0.1,0.0,0.0,0.0,0.1,0.0,0.0,0.0,0.1
1446038180850858349,8,1446038180847842931,robocape,7.22553121099,9.38068433222,13.3495039287,0.0,10.0,0.0,0.0,0.0,10.0,0.0,0.0,0.0,10.0,-0.141280695829,0.0123836990689,-0.00519316412565,1.0,0.0,0.0,0.0,1.0,0.0,0.0,0.0,1.0,0.0263452148438,0.865799560547,10.0411193848,0.1,0.0,0.0,0.0,0.1,0.0,0.0,0.0,0.1
1446038180884084307,9,1446038180881041049,robocape,6.95127193107,9.38469957652,13.3710824889,0.0,10.0,0.0,0.0,0.0,10.0,0.0,0.0,0.0,10.0,-0.140348589447,0.0123836990689,0.0219710789932,1.0,0.0,0.0,0.0,1.0,0.0,0.0,0.0,1.0,-0.0526904296875,0.840651855469,10.0159716797,0.1,0.0,0.0,0.0,0.1,0.0,0.0,0.0,0.1
1446038180917731349,10,1446038180914478063,robocape,6.6003078384,9.34661803309,13.6149591196,0.0,10.0,0.0,0.0,0.0,10.0,0.0,0.0,0.0,10.0,-0.199337607592,0.00479368996214,0.139949115284,1.0,0.0,0.0,0.0,1.0,0.0,0.0,0.0,1.0,-0.129331054688,-0.0047900390625,10.1249450684,0.1,0.0,0.0,0.0,0.1,0.0,0.0,0.0,0.1
1446038180950936974,11,1446038180947561025,robocape,6.5955128564,9.32292839362,13.7442583908,0.0,10.0,0.0,0.0,0.0,10.0,0.0,0.0,0.0,10.0,-0.00812264132474,0.00532632218016,0.0808269390839,1.0,0.0,0.0,0.0,1.0,0.0,0.0,0.0,1.0,0.0167651367188,-0.468226318359,10.1512902832,0.1,0.0,0.0,0.0,0.1,0.0,0.0,0.0,0.1
1446038180984127099,12,1446038180980993986,robocape,6.88663187538,9.31276122059,13.7677631155,0.0,10.0,0.0,0.0,0.0,10.0,0.0,0.0,0.0,10.0,0.156194397933,0.00625842856169,0.0259658206283,1.0,0.0,0.0,0.0,1.0,0.0,0.0,0.0,1.0,-0.0347277832031,0.372425537109,10.0746496582,0.1,0.0,0.0,0.0,0.1,0.0,0.0,0.0,0.1
1446038181017395058,13,1446038181014210939,robocape,7.24221070566,9.29728583968,13.7962170848,0.0,10.0,0.0,0.0,0.0,10.0,0.0,0.0,0.0,10.0,0.190016543777,0.00412789968962,0.0291616139364,1.0,0.0,0.0,0.0,1.0,0.0,0.0,0.0,1.0,-0.0742456054688,0.609532470703,10.1057849121,0.1,0.0,0.0,0.0,0.1,0.0,0.0,0.0,0.1
1446038181050895099,14,1446038181047641992,robocape,7.64667220603,9.28766841417,13.7794990203,0.0,10.0,0.0,0.0,0.0,10.0,0.0,0.0,0.0,10.0,0.219843947986,0.00426105774413,0.00559263828917,1.0,0.0,0.0,0.0,1.0,0.0,0.0,0.0,1.0,0.076640625,1.11009155273,10.0171691895,0.1,0.0,0.0,0.0,0.1,0.0,0.0,0.0,0.1
1446038181083896266,15,1446038181080712080,robocape,7.98888833705,9.2797657354,13.7555032186,0.0,10.0,0.0,0.0,0.0,10.0,0.0,0.0,0.0,10.0,0.188152331014,0.00452737385313,0.00159789665405,1.0,0.0,0.0,0.0,1.0,0.0,0.0,0.0,1.0,0.0467028808594,1.41545654297,10.0291442871,0.1,0.0,0.0,0.0,0.1,0.0,0.0,0.0,0.1
1446038181117551766,16,1446038181114084959,robocape,8.18270715043,9.27334434341,13.7466949092,0.0,10.0,0.0,0.0,0.0,10.0,0.0,0.0,0.0,10.0,0.109189604693,0.00612527050718,0.00892158965177,1.0,0.0,0.0,0.0,1.0,0.0,0.0,0.0,1.0,0.119750976563,1.6513659668,10.0291442871,0.1,0.0,0.0,0.0,0.1,0.0,0.0,0.0,0.1
1446038181150713808,17,1446038181147676944,robocape,8.25291713932,9.27015336884,13.7491583111,0.0,10.0,0.0,0.0,0.0,10.0,0.0,0.0,0.0,10.0,0.0434095257683,0.00838895743375,0.0141147537774,1.0,0.0,0.0,0.0,1.0,0.0,0.0,0.0,1.0,0.0550854492188,1.02985839844,10.0710571289,0.1,0.0,0.0,0.0,0.1,0.0,0.0,0.0,0.1
1446038181184151599,18,1446038181180923938,robocape,8.34824407375,9.29627344533,13.5743445559,0.0,10.0,0.0,0.0,0.0,10.0,0.0,0.0,0.0,10.0,0.0711064011051,0.00958737992429,-0.0798948327024,1.0,0.0,0.0,0.0,1.0,0.0,0.0,0.0,1.0,-0.00239501953125,1.7591418457,10.0267492676,0.1,0.0,0.0,0.0,0.1,0.0,0.0,0.0,0.1
1446038181217889683,19,1446038181214565992,robocape,8.18625524196,9.32322343412,13.456202194,0.0,10.0,0.0,0.0,0.0,10.0,0.0,0.0,0.0,10.0,-0.0688427141785,0.0138484376684,-0.0516653251475,1.0,0.0,0.0,0.0,1.0,0.0,0.0,0.0,1.0,0.149688720703,1.72680908203,9.99202148437,0.1,0.0,0.0,0.0,0.1,0.0,0.0,0.0,0.1
1446038181250557808,20,1446038181247520923,robocape,7.87620867005,9.34363021994,13.3915042215,0.0,10.0,0.0,0.0,0.0,10.0,0.0,0.0,0.0,10.0,-0.151267549917,0.0143810698864,-0.0241016078652,1.0,0.0,0.0,0.0,1.0,0.0,0.0,0.0,1.0,0.0275427246094,1.22864501953,10.0471069336,0.1,0.0,0.0,0.0,0.1,0.0,0.0,0.0,0.1
1446038181284310058,21,1446038181281002998,robocape,7.53198157798,9.3605426242,13.3447891734,0.0,10.0,0.0,0.0,0.0,10.0,0.0,0.0,0.0,10.0,-0.170974941983,0.0139815957229,-0.0146473859954,1.0,0.0,0.0,0.0,1.0,0.0,0.0,0.0,1.0,0.0802331542969,0.841849365234,10.0471069336,0.1,0.0,0.0,0.0,0.1,0.0,0.0,0.0,0.1
1446038181317735474,22,1446038181314564943,robocape,7.21585980091,9.37400076481,13.3222762227,0.0,10.0,0.0,0.0,0.0,10.0,0.0,0.0,0.0,10.0,-0.15845808486,0.0141147537774,-0.00173105470855,1.0,0.0,0.0,0.0,1.0,0.0,0.0,0.0,1.0,0.01916015625,0.443078613281,10.0818347168,0.1,0.0,0.0,0.0,0.1,0.0,0.0,0.0,0.1
1446038181350408974,23,1446038181347366094,robocape,7.05708887439,9.38510021668,13.263383272,0.0,10.0,0.0,0.0,0.0,10.0,0.0,0.0,0.0,10.0,-0.0729706138682,0.0107858024148,-0.0199737081756,1.0,0.0,0.0,0.0,1.0,0.0,0.0,0.0,1.0,-0.0622705078125,0.304167480469,10.0734521484,0.1,0.0,0.0,0.0,0.1,0.0,0.0,0.0,0.1
1446038181384245891,24,1446038181380949020,robocape,7.04843906841,9.39371505778,13.2041979545,0.0,10.0,0.0,0.0,0.0,10.0,0.0,0.0,0.0,10.0,0.00585895439817,0.00985369603329,-0.0195742340121,1.0,0.0,0.0,0.0,1.0,0.0,0.0,0.0,1.0,-0.0502954101563,0.366437988281,10.0902172852,0.1,0.0,0.0,0.0,0.1,0.0,0.0,0.0,0.1
1446038181417338558,25,1446038181414119958,robocape,7.05150479502,9.38259391184,13.2738984467,0.0,10.0,0.0,0.0,0.0,10.0,0.0,0.0,0.0,10.0,0.00133158054504,0.00838895743375,0.0486026898939,1.0,0.0,0.0,0.0,1.0,0.0,0.0,0.0,1.0,0.0239501953125,0.923280029297,10.0051940918,0.1,0.0,0.0,0.0,0.1,0.0,0.0,0.0,0.1
1446038181450559183,26,1446038181447453975,robocape,7.01446009406,9.34523461485,13.5494917981,0.0,10.0,0.0,0.0,0.0,10.0,0.0,0.0,0.0,10.0,-0.0367516230431,0.00865527354276,0.157259662369,1.0,0.0,0.0,0.0,1.0,0.0,0.0,0.0,1.0,0.0826281738281,0.264649658203,10.1105749512,0.1,0.0,0.0,0.0,0.1,0.0,0.0,0.0,0.1
1446038181484161224,27,1446038181480849981,robocape,7.25260742189,9.32115664208,13.6786452702,0.0,10.0,0.0,0.0,0.0,10.0,0.0,0.0,0.0,10.0,0.120108565163,0.00639158661619,0.0814927293564,1.0,0.0,0.0,0.0,1.0,0.0,0.0,0.0,1.0,-0.274229736328,0.240699462891,10.0902172852,0.1,0.0,0.0,0.0,0.1,0.0,0.0,0.0,0.1
1446038181517568766,28,1446038181514413118,robocape,7.67795215677,9.29680982288,13.7050528837,0.0,10.0,0.0,0.0,0.0,10.0,0.0,0.0,0.0,10.0,0.227300799038,-0.000266316109008,0.0288952978274,1.0,0.0,0.0,0.0,1.0,0.0,0.0,0.0,1.0,0.09580078125,0.463436279297,10.0375268555,0.1,0.0,0.0,0.0,0.1,0.0,0.0,0.0,0.1
1446038181550644224,29,1446038181547329902,robocape,8.15009806488,9.27478422774,13.7348581674,0.0,10.0,0.0,0.0,0.0,10.0,0.0,0.0,0.0,10.0,0.252201355231,0.00159789665405,0.0308926686449,1.0,0.0,0.0,0.0,1.0,0.0,0.0,0.0,1.0,0.0407153320313,1.29450805664,10.0471069336,0.1,0.0,0.0,0.0,0.1,0.0,0.0,0.0,0.1
1446038181585148391,30,1446038181581688880,robocape,8.46896764303,9.25500339984,13.7750958425,0.0,10.0,0.0,0.0,0.0,10.0,0.0,0.0,0.0,10.0,0.171241258092,0.0034621094171,0.0358195166616,1.0,0.0,0.0,0.0,1.0,0.0,0.0,0.0,1.0,0.09580078125,1.55796020508,10.0387243652,0.1,0.0,0.0,0.0,0.1,0.0,0.0,0.0,0.1
1446038181617747099,31,1446038181614345073,robocape,8.62892991397,9.2446534478,13.7978124514,0.0,10.0,0.0,0.0,0.0,10.0,0.0,0.0,0.0,10.0,0.0893490545722,0.0066579027252,0.0255663464648,1.0,0.0,0.0,0.0,1.0,0.0,0.0,0.0,1.0,0.106578369141,1.81422729492,10.0111816406,0.1,0.0,0.0,0.0,0.1,0.0,0.0,0.0,0.1
1446038181650982016,32,1446038181647474050,robocape,8.59623098211,9.24374250187,13.8093862214,0.0,10.0,0.0,0.0,0.0,10.0,0.0,0.0,0.0,10.0,-0.0110521185238,0.0101200121423,0.0183758115215,1.0,0.0,0.0,0.0,1.0,0.0,0.0,0.0,1.0,0.1149609375,1.93278076172,10.003996582,0.1,0.0,0.0,0.0,0.1,0.0,0.0,0.0,0.1
1446038181684720516,33,1446038181681092977,robocape,8.4756513358,9.26110125449,13.7505360192,0.0,10.0,0.0,0.0,0.0,10.0,0.0,0.0,0.0,10.0,-0.0516653251475,0.0135821215594,-0.0198405501211,1.0,0.0,0.0,0.0,1.0,0.0,0.0,0.0,1.0,0.0251477050781,1.00471069336,10.0686621094,0.1,0.0,0.0,0.0,0.1,0.0,0.0,0.0,0.1
1446038181717447725,34,1446038181714176893,robocape,8.38488861436,9.30295507549,13.5130111424,0.0,10.0,0.0,0.0,0.0,10.0,0.0,0.0,0.0,10.0,-0.0215716048296,0.0119842249054,-0.114249610764,1.0,0.0,0.0,0.0,1.0,0.0,0.0,0.0,1.0,0.0802331542969,1.70405639648,9.94052856445,0.1,0.0,0.0,0.0,0.1,0.0,0.0,0.0,0.1
1446038181750579558,35,1446038181747370958,robocape,8.10805312059,9.33922483959,13.3611367673,0.0,10.0,0.0,0.0,0.0,10.0,0.0,0.0,0.0,10.0,-0.126500151779,0.0157126504315,-0.0703074527781,1.0,0.0,0.0,0.0,1.0,0.0,0.0,0.0,1.0,0.129331054688,1.56993530273,10.0135766602,0.1,0.0,0.0,0.0,0.1,0.0,0.0,0.0,0.1
1446038181784921683,36,1446038181780868053,robocape,7.68902690069,9.36689061448,13.2638895058,0.0,10.0,0.0,0.0,0.0,10.0,0.0,0.0,0.0,10.0,-0.205995510318,0.0154463343225,-0.0419447871687,1.0,0.0,0.0,0.0,1.0,0.0,0.0,0.0,1.0,0.0311352539063,1.16876953125,10.0471069336,0.1,0.0,0.0,0.0,0.1,0.0,0.0,0.0,0.1
1446038181819594391,37,1446038181814260005,robocape,7.27186405098,9.38871934386,13.1943077207,0.0,10.0,0.0,0.0,0.0,10.0,0.0,0.0,0.0,10.0,-0.207593406972,0.0147805440499,-0.0271642431188,1.0,0.0,0.0,0.0,1.0,0.0,0.0,0.0,1.0,0.0718505859375,0.673000488281,10.0746496582,0.1,0.0,0.0,0.0,0.1,0.0,0.0,0.0,0.1
1446038181850680808,38,1446038181847532033,robocape,6.92717297414,9.40060812685,13.1630091363,0.0,10.0,0.0,0.0,0.0,10.0,0.0,0.0,0.0,10.0,-0.172972312801,0.0126500151779,-0.00639158661619,1.0,0.0,0.0,0.0,1.0,0.0,0.0,0.0,1.0,0.0227526855469,0.312550048828,10.0794396973,0.1,0.0,0.0,0.0,0.1,0.0,0.0,0.0,0.1
1446038181884310766,39,1446038181881028890,robocape,6.70899206649,9.39917311513,13.1529939157,0.0,10.0,0.0,0.0,0.0,10.0,0.0,0.0,0.0,10.0,-0.108523814421,0.00745685105222,0.00585895439817,1.0,0.0,0.0,0.0,1.0,0.0,0.0,0.0,1.0,-0.202379150391,0.0886157226563,10.1069824219,0.1,0.0,0.0,0.0,0.1,0.0,0.0,0.0,0.1
1446038181917417016,40,1446038181914246082,robocape,6.70022383104,9.40715455449,13.1052353,0.0,10.0,0.0,0.0,0.0,10.0,0.0,0.0,0.0,10.0,0.00452737385313,0.0103863282513,-0.0137152796139,1.0,0.0,0.0,0.0,1.0,0.0,0.0,0.0,1.0,0.1149609375,0.144898681641,10.1201550293,0.1,0.0,0.0,0.0,0.1,0.0,0.0,0.0,0.1
1446038181952116600,41,1446038181949033021,robocape,6.78185026644,9.40669720839,13.1117028506,0.0,10.0,0.0,0.0,0.0,10.0,0.0,0.0,0.0,10.0,0.0475374254579,0.00972053797879,0.0151800182135,1.0,0.0,0.0,0.0,1.0,0.0,0.0,0.0,1.0,-0.0838256835938,0.772393798828,10.0279467773,0.1,0.0,0.0,0.0,0.1,0.0,0.0,0.0,0.1
1446038181985253141,42,1446038181981239080,robocape,6.74557215383,9.36610027925,13.3861301374,0.0,10.0,0.0,0.0,0.0,10.0,0.0,0.0,0.0,10.0,-0.0366184649886,0.00612527050718,0.156593872097,1.0,0.0,0.0,0.0,1.0,0.0,0.0,0.0,1.0,-0.0047900390625,0.110170898438,10.039921875,0.1,0.0,0.0,0.0,0.1,0.0,0.0,0.0,0.1
1446038182019068350,43,1446038182015813112,robocape,7.0856735062,9.34350951703,13.4977577899,0.0,10.0,0.0,0.0,0.0,10.0,0.0,0.0,0.0,10.0,0.174836525564,0.00585895439817,0.0723048235957,1.0,0.0,0.0,0.0,1.0,0.0,0.0,0.0,1.0,-0.0443078613281,-0.155676269531,10.0830322266,0.1,0.0,0.0,0.0,0.1,0.0,0.0,0.0,0.1
1446038182051728975,44,1446038182048650979,robocape,7.60010959475,9.31966027681,13.5135120899,0.0,10.0,0.0,0.0,0.0,10.0,0.0,0.0,0.0,10.0,0.274838224496,-0.00066579027252,0.0233026595382,1.0,0.0,0.0,0.0,1.0,0.0,0.0,0.0,1.0,-0.125738525391,0.532891845703,10.0542919922,0.1,0.0,0.0,0.0,0.1,0.0,0.0,0.0,0.1
1446038182085977475,45,1446038182082638978,robocape,8.13903118804,9.29544857232,13.5533883069,0.0,10.0,0.0,0.0,0.0,10.0,0.0,0.0,0.0,10.0,0.286422975238,0.00133158054504,0.0362189908251,1.0,0.0,0.0,0.0,1.0,0.0,0.0,0.0,1.0,0.301772460938,1.08135131836,10.0219592285,0.1,0.0,0.0,0.0,0.1,0.0,0.0,0.0,0.1
1446038182119131016,46,1446038182115932941,robocape,8.58791466389,9.27012733049,13.5985441819,0.0,10.0,0.0,0.0,0.0,10.0,0.0,0.0,0.0,10.0,0.239285023944,0.00133158054504,0.0390153099697,1.0,0.0,0.0,0.0,1.0,0.0,0.0,0.0,1.0,-0.0143701171875,1.62142822266,10.0171691895,0.1,0.0,0.0,0.0,0.1,0.0,0.0,0.0,0.1
1446038182151774850,47,1446038182148145914,robocape,8.88195928811,9.25445762004,13.6219085424,0.0,10.0,0.0,0.0,0.0,10.0,0.0,0.0,0.0,10.0,0.160055981514,0.00439421579863,0.0266316109008,1.0,0.0,0.0,0.0,1.0,0.0,0.0,0.0,1.0,0.162861328125,1.88967041016,9.9596887207,0.1,0.0,0.0,0.0,0.1,0.0,0.0,0.0,0.1
1446038182185136391,48,1446038182181670904,robocape,8.96601547335,9.25125650736,13.6315931409,0.0,10.0,0.0,0.0,0.0,10.0,0.0,0.0,0.0,10.0,0.0508663768205,0.00918790576077,0.0178431793035,1.0,0.0,0.0,0.0,1.0,0.0,0.0,0.0,1.0,0.0850231933594,1.99505126953,10.024354248,0.1,0.0,0.0,0.0,0.1,0.0,0.0,0.0,0.1
1446038182221927350,49,1446038182217344999,robocape,8.78488621844,9.25780637247,13.6352614771,0.0,10.0,0.0,0.0,0.0,10.0,0.0,0.0,0.0,10.0,-0.0882837901361,0.0129163312869,0.0129163312869,1.0,0.0,0.0,0.0,1.0,0.0,0.0,0.0,1.0,0.130528564453,1.90643554688,9.98723144531,0.1,0.0,0.0,0.0,0.1,0.0,0.0,0.0,0.1
1446038182254159475,50,1446038182250211954,robocape,8.45322205103,9.26929471733,13.6427980792,0.0,10.0,0.0,0.0,0.0,10.0,0.0,0.0,0.0,10.0,-0.168045464784,0.015313176268,0.0139815957229,1.0,0.0,0.0,0.0,1.0,0.0,0.0,0.0,1.0,0.0598754882813,1.58550292969,10.0183666992,0.1,0.0,0.0,0.0,0.1,0.0,0.0,0.0,0.1
1446038182288227516,51,1446038182284935951,robocape,8.07686396281,9.28002849322,13.6506513514,0.0,10.0,0.0,0.0,0.0,10.0,0.0,0.0,0.0,10.0,-0.19188075654,0.0147805440499,0.0141147537774,1.0,0.0,0.0,0.0,1.0,0.0,0.0,0.0,1.0,0.047900390625,0.877774658203,10.0542919922,0.1,0.0,0.0,0.0,0.1,0.0,0.0,0.0,0.1
1446038182322320475,52,1446038182318036079,robocape,7.76155498423,9.28993817852,13.6552161347,0.0,10.0,0.0,0.0,0.0,10.0,0.0,0.0,0.0,10.0,-0.159789665405,0.0142479118319,0.0127831732324,1.0,0.0,0.0,0.0,1.0,0.0,0.0,0.0,1.0,0.0143701171875,0.546064453125,10.0650695801,0.1,0.0,0.0,0.0,0.1,0.0,0.0,0.0,0.1
1446038182354468475,53,1446038182351294994,robocape,7.57618609607,9.29617986665,13.6506370794,0.0,10.0,0.0,0.0,0.0,10.0,0.0,0.0,0.0,10.0,-0.0909469512262,0.0119842249054,0.00878843159726,1.0,0.0,0.0,0.0,1.0,0.0,0.0,0.0,1.0,-0.0155676269531,0.338895263672,10.0423168945,0.1,0.0,0.0,0.0,0.1,0.0,0.0,0.0,0.1
1446038182387320600,54,1446038182384063959,robocape,7.54855155209,9.29701487761,13.6410113028,0.0,10.0,0.0,0.0,0.0,10.0,0.0,0.0,0.0,10.0,-0.00772316716123,0.00918790576077,0.00705737688871,1.0,0.0,0.0,0.0,1.0,0.0,0.0,0.0,1.0,-0.0311352539063,0.307760009766,10.0830322266,0.1,0.0,0.0,0.0,0.1,0.0,0.0,0.0,0.1
1446038182421478100,55,1446038182417293071,robocape,7.71323549664,9.29405670449,13.6227726958,0.0,10.0,0.0,0.0,0.0,10.0,0.0,0.0,0.0,10.0,0.0941427445343,0.00705737688871,0.0034621094171,1.0,0.0,0.0,0.0,1.0,0.0,0.0,0.0,1.0,0.00359252929688,0.380808105469,10.0483044434,0.1,0.0,0.0,0.0,0.1,0.0,0.0,0.0,0.1
1446038182453905600,56,1446038182450727939,robocape,7.97790338394,9.28711714951,13.6020585088,0.0,10.0,0.0,0.0,0.0,10.0,0.0,0.0,0.0,10.0,0.147139650227,0.00506000607115,0.00279631914458,1.0,0.0,0.0,0.0,1.0,0.0,0.0,0.0,1.0,0.00838256835938,0.684975585938,10.0423168945,0.1,0.0,0.0,0.0,0.1,0.0,0.0,0.0,0.1
1446038182489060267,57,1446038182485255956,robocape,8.23705530135,9.28156281544,13.5804562401,0.0,10.0,0.0,0.0,0.0,10.0,0.0,0.0,0.0,10.0,0.144609647191,0.00572579634367,0.00226368692657,1.0,0.0,0.0,0.0,1.0,0.0,0.0,0.0,1.0,0.0526904296875,1.27774291992,10.0423168945,0.1,0.0,0.0,0.0,0.1,0.0,0.0,0.0,0.1
1446038182520979142,58,1446038182517621994,robocape,8.3950137952,9.27728227496,13.5637853555,0.0,10.0,0.0,0.0,0.0,10.0,0.0,0.0,0.0,10.0,0.0912132673352,0.00652474467069,0.00439421579863,1.0,0.0,0.0,0.0,1.0,0.0,0.0,0.0,1.0,0.0838256835938,1.54598510742,10.0231567383,0.1,0.0,0.0,0.0,0.1,0.0,0.0,0.0,0.1
1446038182559266892,59,1446038182550249099,robocape,8.40758374205,9.27728231812,13.5574830221,0.0,10.0,0.0,0.0,0.0,10.0,0.0,0.0,0.0,10.0,0.0139815957229,0.00918790576077,0.00892158965177,1.0,0.0,0.0,0.0,1.0,0.0,0.0,0.0,1.0,0.0886157226563,1.609453125,10.024354248,0.1,0.0,0.0,0.0,0.1,0.0,0.0,0.0,0.1
1446038182588047225,60,1446038182584238052,robocape,8.25748315434,9.28284337723,13.5575096328,0.0,10.0,0.0,0.0,0.0,10.0,0.0,0.0,0.0,10.0,-0.0721716655411,0.0121173829599,0.0111852765783,1.0,0.0,0.0,0.0,1.0,0.0,0.0,0.0,1.0,0.0682580566406,1.4178515625,10.019564209,0.1,0.0,0.0,0.0,0.1,0.0,0.0,0.0,0.1
1446038182621838892,61,1446038182618534088,robocape,8.04926937319,9.28998227529,13.5578819756,0.0,10.0,0.0,0.0,0.0,10.0,0.0,0.0,0.0,10.0,-0.102931176132,0.0127831732324,0.0110521185238,1.0,0.0,0.0,0.0,1.0,0.0,0.0,0.0,1.0,0.0347277832031,1.07775878906,10.019564209,0.1,0.0,0.0,0.0,0.1,0.0,0.0,0.0,0.1
1446038182654880975,62,1446038182651700019,robocape,7.84240450734,9.29816117422,13.5565364045,0.0,10.0,0.0,0.0,0.0,10.0,0.0,0.0,0.0,10.0,-0.102265385859,0.0131826473959,0.0101200121423,1.0,0.0,0.0,0.0,1.0,0.0,0.0,0.0,1.0,0.0143701171875,0.762813720703,10.0459094238,0.1,0.0,0.0,0.0,0.1,0.0,0.0,0.0,0.1
1446038182688252017,63,1446038182684808969,robocape,7.70667222939,9.30224697655,13.5546549187,0.0,10.0,0.0,0.0,0.0,10.0,0.0,0.0,0.0,10.0,-0.0649811305979,0.0111852765783,0.0103863282513,1.0,0.0,0.0,0.0,1.0,0.0,0.0,0.0,1.0,0.00119750976563,0.558039550781,10.075847168,0.1,0.0,0.0,0.0,0.1,0.0,0.0,0.0,0.1
1446038182720466517,64,1446038182717178106,robocape,7.67408793772,9.30357752004,13.5489174313,0.0,10.0,0.0,0.0,0.0,10.0,0.0,0.0,0.0,10.0,-0.0105194863058,0.00972053797879,0.00892158965177,1.0,0.0,0.0,0.0,1.0,0.0,0.0,0.0,1.0,-0.00359252929688,0.507744140625,10.0626745605,0.1,0.0,0.0,0.0,0.1,0.0,0.0,0.0,0.1
1446038182753122933,65,1446038182749800920,robocape,7.74558248001,9.30149615824,13.5366980439,0.0,10.0,0.0,0.0,0.0,10.0,0.0,0.0,0.0,10.0,0.0447411063133,0.00772316716123,0.00612527050718,1.0,0.0,0.0,0.0,1.0,0.0,0.0,0.0,1.0,-0.00239501953125,0.607137451172,10.055489502,0.1,0.0,0.0,0.0,0.1,0.0,0.0,0.0,0.1
1446038182787369475,66,1446038182784066915,robocape,7.87866354615,9.29855654007,13.5211521147,0.0,10.0,0.0,0.0,0.0,10.0,0.0,0.0,0.0,10.0,0.0774979877213,0.00719053494321,0.00466053190764,1.0,0.0,0.0,0.0,1.0,0.0,0.0,0.0,1.0,0.0155676269531,0.893342285156,10.055489502,0.1,0.0,0.0,0.0,0.1,0.0,0.0,0.0,0.1
1446038182820559183,67,1446038182817492008,robocape,7.9976314088,9.29588859887,13.5093228429,0.0,10.0,0.0,0.0,0.0,10.0,0.0,0.0,0.0,10.0,0.0699079786146,0.00759000910673,0.00652474467069,1.0,0.0,0.0,0.0,1.0,0.0,0.0,0.0,1.0,0.0610729980469,1.07177124023,10.0495019531,0.1,0.0,0.0,0.0,0.1,0.0,0.0,0.0,0.1
1446038182853448558,68,1446038182850332021,robocape,8.08387151483,9.2947584404,13.4984310025,0.0,10.0,0.0,0.0,0.0,10.0,0.0,0.0,0.0,10.0,0.0527305895836,0.00838895743375,0.0067910607797,1.0,0.0,0.0,0.0,1.0,0.0,0.0,0.0,1.0,0.0443078613281,1.08135131836,10.0315393066,0.1,0.0,0.0,0.0,0.1,0.0,0.0,0.0,0.1
1446038182886872600,69,1446038182883652925,robocape,8.14281951467,9.29484796222,13.4904639077,0.0,10.0,0.0,0.0,0.0,10.0,0.0,0.0,0.0,10.0,0.0382163616426,0.00918790576077,0.00812264132474,1.0,0.0,0.0,0.0,1.0,0.0,0.0,0.0,1.0,0.0395178222656,1.10290649414,10.0423168945,0.1,0.0,0.0,0.0,0.1,0.0,0.0,0.0,0.1
1446038182920408767,70,1446038182917349100,robocape,8.17028355834,9.29459619512,13.4824225967,0.0,10.0,0.0,0.0,0.0,10.0,0.0,0.0,0.0,10.0,0.0217047628841,0.00892158965177,0.00798948327024,1.0,0.0,0.0,0.0,1.0,0.0,0.0,0.0,1.0,0.0419128417969,1.12685668945,10.0303417969,0.1,0.0,0.0,0.0,0.1,0.0,0.0,0.0,0.1
1446038182953183517,71,1446038182950086116,robocape,8.16226734553,9.2953177111,13.4742631275,0.0,10.0,0.0,0.0,0.0,10.0,0.0,0.0,0.0,10.0,0.00306263525359,0.00932106381528,0.00772316716123,1.0,0.0,0.0,0.0,1.0,0.0,0.0,0.0,1.0,0.0263452148438,1.11248657227,10.0495019531,0.1,0.0,0.0,0.0,0.1,0.0,0.0,0.0,0.1
1446038182986474642,72,1446038182983159065,robocape,8.15195841752,9.29710981673,13.4675661444,0.0,10.0,0.0,0.0,0.0,10.0,0.0,0.0,0.0,10.0,0.00173105470855,0.0099868540878,0.00838895743375,1.0,0.0,0.0,0.0,1.0,0.0,0.0,0.0,1.0,0.0383203125,0.983155517578,10.039921875,0.1,0.0,0.0,0.0,0.1,0.0,0.0,0.0,0.1
1446038183019456183,73,1446038183016156911,robocape,8.16087358563,9.29804688622,13.4590956003,0.0,10.0,0.0,0.0,0.0,10.0,0.0,0.0,0.0,10.0,0.0119842249054,0.00945422186978,0.00759000910673,1.0,0.0,0.0,0.0,1.0,0.0,0.0,0.0,1.0,0.0263452148438,0.934057617188,10.0483044434,0.1,0.0,0.0,0.0,0.1,0.0,0.0,0.0,0.1
1446038183051513892,74,1446038183048444986,robocape,8.18709137723,9.29824883027,13.4481133054,0.0,10.0,0.0,0.0,0.0,10.0,0.0,0.0,0.0,10.0,0.0213052887206,0.00892158965177,0.00639158661619,1.0,0.0,0.0,0.0,1.0,0.0,0.0,0.0,1.0,0.0502954101563,1.00950073242,10.0686621094,0.1,0.0,0.0,0.0,0.1,0.0,0.0,0.0,0.1
1446038183085439392,75,1446038183082277059,robocape,8.20815240117,9.2982783201,13.4384477257,0.0,10.0,0.0,0.0,0.0,10.0,0.0,0.0,0.0,10.0,0.0185089695761,0.00892158965177,0.00705737688871,1.0,0.0,0.0,0.0,1.0,0.0,0.0,0.0,1.0,0.0347277832031,1.07536376953,10.0530944824,0.1,0.0,0.0,0.0,0.1,0.0,0.0,0.0,0.1
1446038183118107392,76,1446038183115032911,robocape,8.21446385681,9.29792817108,13.4301361497,0.0,10.0,0.0,0.0,0.0,10.0,0.0,0.0,0.0,10.0,0.0106526443603,0.00878843159726,0.00772316716123,1.0,0.0,0.0,0.0,1.0,0.0,0.0,0.0,1.0,0.0443078613281,1.04782104492,10.0518969727,0.1,0.0,0.0,0.0,0.1,0.0,0.0,0.0,0.1
1446038183151507934,77,1446038183148350954,robocape,8.21860289776,9.29848919217,13.4209554314,0.0,10.0,0.0,0.0,0.0,10.0,0.0,0.0,0.0,10.0,0.00958737992429,0.00918790576077,0.00719053494321,1.0,0.0,0.0,0.0,1.0,0.0,0.0,0.0,1.0,0.01916015625,0.989143066406,10.0315393066,0.1,0.0,0.0,0.0,0.1,0.0,0.0,0.0,0.1
1446038183184449267,78,1446038183181288957,robocape,8.23245997954,9.29837245023,13.4108640804,0.0,10.0,0.0,0.0,0.0,10.0,0.0,0.0,0.0,10.0,0.0147805440499,0.00878843159726,0.0067910607797,1.0,0.0,0.0,0.0,1.0,0.0,0.0,0.0,1.0,0.0311352539063,0.973575439453,10.0303417969,0.1,0.0,0.0,0.0,0.1,0.0,0.0,0.0,0.1
1446038183218383725,79,1446038183215002059,robocape,8.261542487,9.2980910817,13.3996371216,0.0,10.0,0.0,0.0,0.0,10.0,0.0,0.0,0.0,10.0,0.0229031853747,0.00865527354276,0.00625842856169,1.0,0.0,0.0,0.0,1.0,0.0,0.0,0.0,1.0,0.0323327636719,0.999920654297,10.0219592285,0.1,0.0,0.0,0.0,0.1,0.0,0.0,0.0,0.1
1446038183251367559,80,1446038183248215913,robocape,8.29247376561,9.2986807699,13.3893075159,0.0,10.0,0.0,0.0,0.0,10.0,0.0,0.0,0.0,10.0,0.0238352917562,0.00918790576077,0.0066579027252,1.0,0.0,0.0,0.0,1.0,0.0,0.0,0.0,1.0,0.0371228027344,1.08015380859,10.0518969727,0.1,0.0,0.0,0.0,0.1,0.0,0.0,0.0,0.1
1446038183284301975,81,1446038183280983924,robocape,8.30143384584,9.29905251219,13.3811760162,0.0,10.0,0.0,0.0,0.0,10.0,0.0,0.0,0.0,10.0,0.0121173829599,0.00918790576077,0.00772316716123,1.0,0.0,0.0,0.0,1.0,0.0,0.0,0.0,1.0,0.0407153320313,1.16996704102,10.0303417969,0.1,0.0,0.0,0.0,0.1,0.0,0.0,0.0,0.1
1446038183317263767,82,1446038183314110040,robocape,8.27262806576,9.30047275603,13.3742438358,0.0,10.0,0.0,0.0,0.0,10.0,0.0,0.0,0.0,10.0,-0.00785632521573,0.00972053797879,0.00812264132474,1.0,0.0,0.0,0.0,1.0,0.0,0.0,0.0,1.0,0.0455053710938,1.1843371582,10.0483044434,0.1,0.0,0.0,0.0,0.1,0.0,0.0,0.0,0.1
1446038183350950475,83,1446038183347780942,robocape,8.21170854952,9.30164007659,13.3718841393,0.0,10.0,0.0,0.0,0.0,10.0,0.0,0.0,0.0,10.0,-0.0251668723012,0.00985369603329,0.0103863282513,1.0,0.0,0.0,0.0,1.0,0.0,0.0,0.0,1.0,0.0490979003906,1.09093139648,10.0339343262,0.1,0.0,0.0,0.0,0.1,0.0,0.0,0.0,0.1
1446038183384328642,84,1446038183381004095,robocape,8.18748321027,9.33073463193,13.2190561096,0.0,10.0,0.0,0.0,0.0,10.0,0.0,0.0,0.0,10.0,0.00639158661619,0.0126500151779,-0.0695085044511,1.0,0.0,0.0,0.0,1.0,0.0,0.0,0.0,1.0,0.00598754882813,0.269439697266,10.0997973633,0.1,0.0,0.0,0.0,0.1,0.0,0.0,0.0,0.1
1446038183417556017,85,1446038183414411067,robocape,8.27744983635,9.36526766574,12.9629652506,0.0,10.0,0.0,0.0,0.0,10.0,0.0,0.0,0.0,10.0,0.0749679846857,0.00759000910673,-0.123171200416,1.0,0.0,0.0,0.0,1.0,0.0,0.0,0.0,1.0,-0.0347277832031,1.7244140625,9.9668737793,0.1,0.0,0.0,0.0,0.1,0.0,0.0,0.0,0.1
1446038183450911642,86,1446038183447772026,robocape,8.10885495956,9.39646980791,12.8301380491,0.0,10.0,0.0,0.0,0.0,10.0,0.0,0.0,0.0,10.0,-0.0711064011051,0.0149137021044,-0.0601874406358,1.0,0.0,0.0,0.0,1.0,0.0,0.0,0.0,1.0,0.201181640625,1.82260986328,9.95130615234,0.1,0.0,0.0,0.0,0.1,0.0,0.0,0.0,0.1
1446038183484468059,87,1446038183481252908,robocape,7.78025266323,9.4151812313,12.7675393314,0.0,10.0,0.0,0.0,0.0,10.0,0.0,0.0,0.0,10.0,-0.161254404004,0.0135821215594,-0.0235689756472,1.0,0.0,0.0,0.0,1.0,0.0,0.0,0.0,1.0,0.0239501953125,1.04901855469,10.0387243652,0.1,0.0,0.0,0.0,0.1,0.0,0.0,0.0,0.1
1446038183517391642,88,1446038183514249086,robocape,7.47785950743,9.43268271275,12.7156510778,0.0,10.0,0.0,0.0,0.0,10.0,0.0,0.0,0.0,10.0,-0.148604388826,0.0139815957229,-0.0178431793035,1.0,0.0,0.0,0.0,1.0,0.0,0.0,0.0,1.0,0.0598754882813,0.668210449219,10.039921875,0.1,0.0,0.0,0.0,0.1,0.0,0.0,0.0,0.1
1446038183556755267,89,1446038183547738075,robocape,7.2515501398,9.44325214396,12.6952957036,0.0,10.0,0.0,0.0,0.0,10.0,0.0,0.0,0.0,10.0,-0.11145329162,0.0129163312869,-0.000798948327024,1.0,0.0,0.0,0.0,1.0,0.0,0.0,0.0,1.0,-0.028740234375,0.335302734375,10.075847168,0.1,0.0,0.0,0.0,0.1,0.0,0.0,0.0,0.1
1446038183585386559,90,1446038183582241058,robocape,7.1724686399,9.45060234824,12.6477854332,0.0,10.0,0.0,0.0,0.0,10.0,0.0,0.0,0.0,10.0,-0.031957933081,0.00972053797879,-0.0142479118319,1.0,0.0,0.0,0.0,1.0,0.0,0.0,0.0,1.0,-0.0838256835938,0.280217285156,10.0902172852,0.1,0.0,0.0,0.0,0.1,0.0,0.0,0.0,0.1
1446038183617451892,91,1446038183614379882,robocape,7.27272353519,9.44963957867,12.633503125,0.0,10.0,0.0,0.0,0.0,10.0,0.0,0.0,0.0,10.0,0.0595216503633,0.00812264132474,0.00399474163512,1.0,0.0,0.0,0.0,1.0,0.0,0.0,0.0,1.0,0.0047900390625,0.384400634766,10.0387243652,0.1,0.0,0.0,0.0,0.1,0.0,0.0,0.0,0.1
1446038183651841309,92,1446038183648715019,robocape,7.51165922119,9.44691456595,12.6123111453,0.0,10.0,0.0,0.0,0.0,10.0,0.0,0.0,0.0,10.0,0.133158054504,0.00705737688871,0.000932106381528,1.0,0.0,0.0,0.0,1.0,0.0,0.0,0.0,1.0,-0.0455053710938,0.522114257812,10.0662670898,0.1,0.0,0.0,0.0,0.1,0.0,0.0,0.0,0.1
1446038183684795559,93,1446038183681380987,robocape,7.83208283256,9.44158625556,12.5830673008,0.0,10.0,0.0,0.0,0.0,10.0,0.0,0.0,0.0,10.0,0.176967054436,0.00532632218016,-0.00279631914458,1.0,0.0,0.0,0.0,1.0,0.0,0.0,0.0,1.0,0.01916015625,0.831071777344,10.0530944824,0.1,0.0,0.0,0.0,0.1,0.0,0.0,0.0,0.1
1446038183717531350,94,1446038183714427947,robocape,8.15870995391,9.43520980018,12.5622835745,0.0,10.0,0.0,0.0,0.0,10.0,0.0,0.0,0.0,10.0,0.179896531635,0.00545948023466,0.00173105470855,1.0,0.0,0.0,0.0,1.0,0.0,0.0,0.0,1.0,0.0347277832031,1.22026245117,10.0794396973,0.1,0.0,0.0,0.0,0.1,0.0,0.0,0.0,0.1
1446038183750660767,95,1446038183747595071,robocape,8.39780033383,9.42959525933,12.54411902,0.0,10.0,0.0,0.0,0.0,10.0,0.0,0.0,0.0,10.0,0.133957002831,0.00585895439817,0.00279631914458,1.0,0.0,0.0,0.0,1.0,0.0,0.0,0.0,1.0,0.0718505859375,1.61783569336,10.0267492676,0.1,0.0,0.0,0.0,0.1,0.0,0.0,0.0,0.1
1446038183784133934,96,1446038183780836105,robocape,8.47958802566,9.42948582041,12.5370044909,0.0,10.0,0.0,0.0,0.0,10.0,0.0,0.0,0.0,10.0,0.050466902657,0.00918790576077,0.00759000910673,1.0,0.0,0.0,0.0,1.0,0.0,0.0,0.0,1.0,0.0838256835938,1.78428955078,10.0063916016,0.1,0.0,0.0,0.0,0.1,0.0,0.0,0.0,0.1
1446038183817292017,97,1446038183814058065,robocape,8.43470446144,9.43325799987,12.5341366054,0.0,10.0,0.0,0.0,0.0,10.0,0.0,0.0,0.0,10.0,-0.0165115987585,0.0111852765783,0.00905474770627,1.0,0.0,0.0,0.0,1.0,0.0,0.0,0.0,1.0,0.0622705078125,1.55317016602,10.0123791504,0.1,0.0,0.0,0.0,0.1,0.0,0.0,0.0,0.1
1446038183850869601,98,1446038183847716093,robocape,8.23929036569,9.43835867345,12.5350488789,0.0,10.0,0.0,0.0,0.0,10.0,0.0,0.0,0.0,10.0,-0.0961401153519,0.0117179087963,0.0103863282513,1.0,0.0,0.0,0.0,1.0,0.0,0.0,0.0,1.0,0.0347277832031,1.29690307617,10.0303417969,0.1,0.0,0.0,0.0,0.1,0.0,0.0,0.0,0.1
1446038183884041642,99,1446038183880733013,robocape,8.03669004145,9.44348029284,12.5380305124,0.0,10.0,0.0,0.0,0.0,10.0,0.0,0.0,0.0,10.0,-0.100268015041,0.0118510668509,0.0114515926873,1.0,0.0,0.0,0.0,1.0,0.0,0.0,0.0,1.0,0.0215551757813,0.8813671875,10.0722546387,0.1,0.0,0.0,0.0,0.1,0.0,0.0,0.0,0.1
1446038183917601642,100,1446038183914163112,robocape,7.88899161692,9.44764989408,12.5404881435,0.0,10.0,0.0,0.0,0.0,10.0,0.0,0.0,0.0,10.0,-0.0715058752686,0.0114515926873,0.0114515926873,1.0,0.0,0.0,0.0,1.0,0.0,0.0,0.0,1.0,0.0143701171875,0.6514453125,10.0997973633,0.1,0.0,0.0,0.0,0.1,0.0,0.0,0.0,0.1
1446038183951194476,101,1446038183947791099,robocape,7.83494450538,9.45045810275,12.536758874,0.0,10.0,0.0,0.0,0.0,10.0,0.0,0.0,0.0,10.0,-0.0218379209386,0.0105194863058,0.00865527354276,1.0,0.0,0.0,0.0,1.0,0.0,0.0,0.0,1.0,-0.0179626464844,0.665815429688,10.0506994629,0.1,0.0,0.0,0.0,0.1,0.0,0.0,0.0,0.1
1446038183984837267,102,1446038183981259107,robocape,7.85776814657,9.45144747676,12.5305214744,0.0,10.0,0.0,0.0,0.0,10.0,0.0,0.0,0.0,10.0,0.0187752856851,0.00958737992429,0.00772316716123,1.0,0.0,0.0,0.0,1.0,0.0,0.0,0.0,1.0,0.0263452148438,0.786763916016,10.0375268555,0.1,0.0,0.0,0.0,0.1,0.0,0.0,0.0,0.1
1446038184017920559,103,1446038184014463901,robocape,7.90731032659,9.45256966828,12.522346606,0.0,10.0,0.0,0.0,0.0,10.0,0.0,0.0,0.0,10.0,0.033023197517,0.00958737992429,0.0067910607797,1.0,0.0,0.0,0.0,1.0,0.0,0.0,0.0,1.0,0.00838256835938,1.05380859375,10.0219592285,0.1,0.0,0.0,0.0,0.1,0.0,0.0,0.0,0.1
1446038184050839267,104,1446038184047532081,robocape,7.9201230482,9.45461669162,12.5160790151,0.0,10.0,0.0,0.0,0.0,10.0,0.0,0.0,0.0,10.0,0.0135821215594,0.0101200121423,0.00759000910673,1.0,0.0,0.0,0.0,1.0,0.0,0.0,0.0,1.0,0.0395178222656,1.17954711914,10.039921875,0.1,0.0,0.0,0.0,0.1,0.0,0.0,0.0,0.1
1446038184084184351,105,1446038184080708980,robocape,7.88730829696,9.45496183273,12.5109161998,0.0,10.0,0.0,0.0,0.0,10.0,0.0,0.0,0.0,10.0,-0.0105194863058,0.00918790576077,0.00812264132474,1.0,0.0,0.0,0.0,1.0,0.0,0.0,0.0,1.0,0.028740234375,1.10649902344,10.0375268555,0.1,0.0,0.0,0.0,0.1,0.0,0.0,0.0,0.1
1446038184117311184,106,1446038184114099025,robocape,7.83433439546,9.45821886773,12.5075577797,0.0,10.0,0.0,0.0,0.0,10.0,0.0,0.0,0.0,10.0,-0.0213052887206,0.0107858024148,0.00878843159726,1.0,0.0,0.0,0.0,1.0,0.0,0.0,0.0,1.0,0.00718505859375,1.03225341797,10.0303417969,0.1,0.0,0.0,0.0,0.1,0.0,0.0,0.0,0.1
1446038184150872309,107,1446038184147820949,robocape,7.7765627226,9.46136019587,12.5052471741,0.0,10.0,0.0,0.0,0.0,10.0,0.0,0.0,0.0,10.0,-0.0239684498107,0.0107858024148,0.00932106381528,1.0,0.0,0.0,0.0,1.0,0.0,0.0,0.0,1.0,0.028740234375,0.932860107422,10.0207617188,0.1,0.0,0.0,0.0,0.1,0.0,0.0,0.0,0.1
1446038184184130309,108,1446038184180879116,robocape,7.73436942181,9.46287308888,12.5031474002,0.0,10.0,0.0,0.0,0.0,10.0,0.0,0.0,0.0,10.0,-0.015845808486,0.0099868540878,0.00958737992429,1.0,0.0,0.0,0.0,1.0,0.0,0.0,0.0,1.0,0.0119750976563,0.876577148438,10.0363293457,0.1,0.0,0.0,0.0,0.1,0.0,0.0,0.0,0.1
1446038184217327976,109,1446038184214286088,robocape,7.73455042469,9.46278890571,12.4964768601,0.0,10.0,0.0,0.0,0.0,10.0,0.0,0.0,0.0,10.0,0.0067910607797,0.00892158965177,0.00745685105222,1.0,0.0,0.0,0.0,1.0,0.0,0.0,0.0,1.0,0.00718505859375,0.813109130859,10.0447119141,0.1,0.0,0.0,0.0,0.1,0.0,0.0,0.0,0.1
1446038184250856601,110,1446038184247778892,robocape,7.77327886369,9.46239929549,12.4887735339,0.0,10.0,0.0,0.0,0.0,10.0,0.0,0.0,0.0,10.0,0.0271642431188,0.00878843159726,0.00705737688871,1.0,0.0,0.0,0.0,1.0,0.0,0.0,0.0,1.0,0.00359252929688,0.858614501953,10.0794396973,0.1,0.0,0.0,0.0,0.1,0.0,0.0,0.0,0.1
1446038184284403517,111,1446038184280982971,robocape,7.84625510215,9.4606096727,12.4788901618,0.0,10.0,0.0,0.0,0.0,10.0,0.0,0.0,0.0,10.0,0.0454068965859,0.00798948327024,0.00612527050718,1.0,0.0,0.0,0.0,1.0,0.0,0.0,0.0,1.0,0.0227526855469,0.857416992188,10.0590820312,0.1,0.0,0.0,0.0,0.1,0.0,0.0,0.0,0.1
1446038184318404601,112,1446038184315258026,robocape,7.93569374217,9.45905921384,12.4684292687,0.0,10.0,0.0,0.0,0.0,10.0,0.0,0.0,0.0,10.0,0.0541953281831,0.00812264132474,0.00585895439817,1.0,0.0,0.0,0.0,1.0,0.0,0.0,0.0,1.0,0.0239501953125,0.975970458984,10.0363293457,0.1,0.0,0.0,0.0,0.1,0.0,0.0,0.0,0.1
1446038184350937517,113,1446038184347793102,robocape,8.02187739484,9.45757003218,12.4592875849,0.0,10.0,0.0,0.0,0.0,10.0,0.0,0.0,0.0,10.0,0.0524642734746,0.00825579937925,0.00652474467069,1.0,0.0,0.0,0.0,1.0,0.0,0.0,0.0,1.0,0.0179626464844,1.02866088867,10.0279467773,0.1,0.0,0.0,0.0,0.1,0.0,0.0,0.0,0.1
1446038184384333226,114,1446038184380916118,robocape,8.10381279152,9.45559288027,12.4483111442,0.0,10.0,0.0,0.0,0.0,10.0,0.0,0.0,0.0,10.0,0.050466902657,0.00785632521573,0.00559263828917,1.0,0.0,0.0,0.0,1.0,0.0,0.0,0.0,1.0,0.0275427246094,1.09811645508,10.0495019531,0.1,0.0,0.0,0.0,0.1,0.0,0.0,0.0,0.1
1446038184417371434,115,1446038184414232969,robocape,8.14210971414,9.45562904243,12.4407259628,0.0,10.0,0.0,0.0,0.0,10.0,0.0,0.0,0.0,10.0,0.0272974011733,0.00905474770627,0.00705737688871,1.0,0.0,0.0,0.0,1.0,0.0,0.0,0.0,1.0,0.0526904296875,1.20229980469,10.0207617188,0.1,0.0,0.0,0.0,0.1,0.0,0.0,0.0,0.1
1446038184451068809,116,1446038184447947978,robocape,8.13212049312,9.45610917775,12.4353262129,0.0,10.0,0.0,0.0,0.0,10.0,0.0,0.0,0.0,10.0,0.00173105470855,0.00932106381528,0.00798948327024,1.0,0.0,0.0,0.0,1.0,0.0,0.0,0.0,1.0,0.0215551757813,1.18912719727,10.0255517578,0.1,0.0,0.0,0.0,0.1,0.0,0.0,0.0,0.1
1446038184484519226,117,1446038184481242895,robocape,8.0973908274,9.45645394576,12.4300805506,0.0,10.0,0.0,0.0,0.0,10.0,0.0,0.0,0.0,10.0,-0.0113184346328,0.00918790576077,0.00798948327024,1.0,0.0,0.0,0.0,1.0,0.0,0.0,0.0,1.0,0.0251477050781,1.0346484375,10.0590820312,0.1,0.0,0.0,0.0,0.1,0.0,0.0,0.0,0.1
1446038184517587351,118,1446038184514497995,robocape,8.07336868944,9.45798263715,12.4233953358,0.0,10.0,0.0,0.0,0.0,10.0,0.0,0.0,0.0,10.0,-0.00559263828917,0.00972053797879,0.00719053494321,1.0,0.0,0.0,0.0,1.0,0.0,0.0,0.0,1.0,-0.00119750976563,0.925675048828,10.0638720703,0.1,0.0,0.0,0.0,0.1,0.0,0.0,0.0,0.1
1446038184557035601,119,1446038184548079013,robocape,8.07075435014,9.45802098273,12.4174163857,0.0,10.0,0.0,0.0,0.0,10.0,0.0,0.0,0.0,10.0,0.00559263828917,0.00905474770627,0.00772316716123,1.0,0.0,0.0,0.0,1.0,0.0,0.0,0.0,1.0,0.0335302734375,0.948427734375,10.0423168945,0.1,0.0,0.0,0.0,0.1,0.0,0.0,0.0,0.1
1446038184585378018,120,1446038184582093954,robocape,7.98072027453,9.43761185203,12.5689397339,0.0,10.0,0.0,0.0,0.0,10.0,0.0,0.0,0.0,10.0,-0.0535295379106,0.0102531701968,0.0904143190082,1.0,0.0,0.0,0.0,1.0,0.0,0.0,0.0,1.0,0.0538879394531,1.58310791016,9.96447875977,0.1,0.0,0.0,0.0,0.1,0.0,0.0,0.0,0.1
1446038184617426018,121,1446038184614347934,robocape,7.84085403487,9.39889659208,12.8500385159,0.0,10.0,0.0,0.0,0.0,10.0,0.0,0.0,0.0,10.0,-0.0905474770627,0.0102531701968,0.158857559023,1.0,0.0,0.0,0.0,1.0,0.0,0.0,0.0,1.0,0.0263452148438,0.111368408203,10.1189575195,0.1,0.0,0.0,0.0,0.1,0.0,0.0,0.0,0.1
1446038184652226809,122,1446038184648937940,robocape,8.10485733187,9.36784892368,12.9541678503,0.0,10.0,0.0,0.0,0.0,10.0,0.0,0.0,0.0,10.0,0.136620163921,0.00199737081756,0.0683100819605,1.0,0.0,0.0,0.0,1.0,0.0,0.0,0.0,1.0,-0.233514404297,-0.190404052734,10.1249450684,0.1,0.0,0.0,0.0,0.1,0.0,0.0,0.0,0.1
1446038184684082018,123,1446038184680994033,robocape,8.60003404381,9.34031175444,12.9933108523,0.0,10.0,0.0,0.0,0.0,10.0,0.0,0.0,0.0,10.0,0.264052422081,-0.000266316109008,0.0354200424981,1.0,0.0,0.0,0.0,1.0,0.0,0.0,0.0,1.0,0.086220703125,0.808319091797,10.0387243652,0.1,0.0,0.0,0.0,0.1,0.0,0.0,0.0,0.1
1446038184717302976,124,1446038184714261054,robocape,9.06539153836,9.30165823861,13.0945125958,0.0,10.0,0.0,0.0,0.0,10.0,0.0,0.0,0.0,10.0,0.243945555851,-0.000532632218016,0.0685763980695,1.0,0.0,0.0,0.0,1.0,0.0,0.0,0.0,1.0,0.00598754882813,1.20469482422,10.019564209,0.1,0.0,0.0,0.0,0.1,0.0,0.0,0.0,0.1
1446038184751094559,125,1446038184747754096,robocape,9.52098996107,9.26737329606,13.1303737738,0.0,10.0,0.0,0.0,0.0,10.0,0.0,0.0,0.0,10.0,0.244744504178,-0.0034621094171,0.0347542522255,1.0,0.0,0.0,0.0,1.0,0.0,0.0,0.0,1.0,0.100590820313,1.65974853516,10.0087866211,0.1,0.0,0.0,0.0,0.1,0.0,0.0,0.0,0.1
1446038184783956434,126,1446038184780873060,robocape,9.80973388903,9.24145020589,13.1957496375,0.0,10.0,0.0,0.0,0.0,10.0,0.0,0.0,0.0,10.0,0.154995975443,0.0033289513626,0.048869006003,1.0,0.0,0.0,0.0,1.0,0.0,0.0,0.0,1.0,0.155676269531,2.08725952148,9.99082397461,0.1,0.0,0.0,0.0,0.1,0.0,0.0,0.0,0.1
1446038184817975768,127,1446038184814872026,robocape,9.85115782993,9.23018793942,13.2511438487,0.0,10.0,0.0,0.0,0.0,10.0,0.0,0.0,0.0,10.0,0.0256995045193,0.00932106381528,0.0415453130052,1.0,0.0,0.0,0.0,1.0,0.0,0.0,0.0,1.0,0.1149609375,1.89925048828,10.0135766602,0.1,0.0,0.0,0.0,0.1,0.0,0.0,0.0,0.1
1446038184851193434,128,1446038184847892045,robocape,9.85138119406,9.24638993677,13.172566322,0.0,10.0,0.0,0.0,0.0,10.0,0.0,0.0,0.0,10.0,0.0147805440499,0.0109189604693,-0.0300937203179,1.0,0.0,0.0,0.0,1.0,0.0,0.0,0.0,1.0,0.0598754882813,1.56275024414,10.0686621094,0.1,0.0,0.0,0.0,0.1,0.0,0.0,0.0,0.1
1446038184884018976,129,1446038184880901098,robocape,9.77341104131,9.28476551575,12.9988883525,0.0,10.0,0.0,0.0,0.0,10.0,0.0,0.0,0.0,10.0,-0.0187752856851,0.0133158054504,-0.0814927293564,1.0,0.0,0.0,0.0,1.0,0.0,0.0,0.0,1.0,0.0790356445313,1.87051025391,9.93693603516,0.1,0.0,0.0,0.0,0.1,0.0,0.0,0.0,0.1
1446038184917286143,130,1446038184914160013,robocape,9.55145172123,9.32625363231,12.8527205704,0.0,10.0,0.0,0.0,0.0,10.0,0.0,0.0,0.0,10.0,-0.0969390636789,0.017177389031,-0.0683100819605,1.0,0.0,0.0,0.0,1.0,0.0,0.0,0.0,1.0,0.142503662109,1.55796020508,9.95370117188,0.1,0.0,0.0,0.0,0.1,0.0,0.0,0.0,0.1
1446038184951142476,131,1446038184947452068,robocape,9.21866150133,9.36344583625,12.7378473187,0.0,10.0,0.0,0.0,0.0,10.0,0.0,0.0,0.0,10.0,-0.158058610696,0.017710021249,-0.0523311154201,1.0,0.0,0.0,0.0,1.0,0.0,0.0,0.0,1.0,-0.0107775878906,1.51005981445,10.0267492676,0.1,0.0,0.0,0.0,0.1,0.0,0.0,0.0,0.1
1446038184983984726,132,1446038184980880975,robocape,8.82282552716,9.39260423299,12.6696701112,0.0,10.0,0.0,0.0,0.0,10.0,0.0,0.0,0.0,10.0,-0.195342865957,0.017710021249,-0.0278300333913,1.0,0.0,0.0,0.0,1.0,0.0,0.0,0.0,1.0,0.0694555664063,0.950822753906,10.0506994629,0.1,0.0,0.0,0.0,0.1,0.0,0.0,0.0,0.1
1446038185017426059,133,1446038185014337062,robocape,8.45699952752,9.40567504616,12.6570393731,0.0,10.0,0.0,0.0,0.0,10.0,0.0,0.0,0.0,10.0,-0.184423905488,0.0142479118319,0.00226368692657,1.0,0.0,0.0,0.0,1.0,0.0,0.0,0.0,1.0,-0.0167651367188,0.432301025391,10.0818347168,0.1,0.0,0.0,0.0,0.1,0.0,0.0,0.0,0.1
1446038185051164018,134,1446038185047595977,robocape,8.34234413561,9.41733978333,12.6089358,0.0,10.0,0.0,0.0,0.0,10.0,0.0,0.0,0.0,10.0,-0.0495347962755,0.0114515926873,-0.0150468601589,1.0,0.0,0.0,0.0,1.0,0.0,0.0,0.0,1.0,-0.00239501953125,0.540076904297,10.0722546387,0.1,0.0,0.0,0.0,0.1,0.0,0.0,0.0,0.1
1446038185083870809,135,1446038185080689907,robocape,8.35765369738,9.42342982924,12.5739354513,0.0,10.0,0.0,0.0,0.0,10.0,0.0,0.0,0.0,10.0,0.017710021249,0.0099868540878,-0.00745685105222,1.0,0.0,0.0,0.0,1.0,0.0,0.0,0.0,1.0,0.0143701171875,0.571212158203,10.0902172852,0.1,0.0,0.0,0.0,0.1,0.0,0.0,0.0,0.1
1446038185119700976,136,1446038185116554975,robocape,8.46526707305,9.42214637703,12.5471285934,0.0,10.0,0.0,0.0,0.0,10.0,0.0,0.0,0.0,10.0,0.0656469208705,0.00705737688871,-0.00239684498107,1.0,0.0,0.0,0.0,1.0,0.0,0.0,0.0,1.0,0.0323327636719,0.589174804688,10.0087866211,0.1,0.0,0.0,0.0,0.1,0.0,0.0,0.0,0.1
1446038185151675560,137,1446038185147872924,robocape,8.69083149442,9.41729178062,12.5226331917,0.0,10.0,0.0,0.0,0.0,10.0,0.0,0.0,0.0,10.0,0.127698574269,0.00572579634367,-0.000532632218016,1.0,0.0,0.0,0.0,1.0,0.0,0.0,0.0,1.0,-0.01916015625,0.833466796875,10.0291442871,0.1,0.0,0.0,0.0,0.1,0.0,0.0,0.0,0.1
1446038185184397476,138,1446038185180984973,robocape,8.95683002591,9.4106643744,12.4996064424,0.0,10.0,0.0,0.0,0.0,10.0,0.0,0.0,0.0,10.0,0.149137021044,0.00506000607115,0.000532632218016,1.0,0.0,0.0,0.0,1.0,0.0,0.0,0.0,1.0,0.047900390625,1.2298425293,10.0219592285,0.1,0.0,0.0,0.0,0.1,0.0,0.0,0.0,0.1
1446038185217547893,139,1446038185214179039,robocape,9.1558701717,9.40423842535,12.4883587501,0.0,10.0,0.0,0.0,0.0,10.0,0.0,0.0,0.0,10.0,0.113184346328,0.00599211245268,0.00639158661619,1.0,0.0,0.0,0.0,1.0,0.0,0.0,0.0,1.0,0.0467028808594,1.47652954102,10.0339343262,0.1,0.0,0.0,0.0,0.1,0.0,0.0,0.0,0.1
1446038185250935893,140,1446038185247450113,robocape,9.2506912858,9.40217678836,12.4805715267,0.0,10.0,0.0,0.0,0.0,10.0,0.0,0.0,0.0,10.0,0.0581900698182,0.00825579937925,0.00745685105222,1.0,0.0,0.0,0.0,1.0,0.0,0.0,0.0,1.0,0.0622705078125,1.67771118164,9.98842895508,0.1,0.0,0.0,0.0,0.1,0.0,0.0,0.0,0.1
1446038185284042726,141,1446038185280849933,robocape,9.19484341678,9.40529346072,12.4765196643,0.0,10.0,0.0,0.0,0.0,10.0,0.0,0.0,0.0,10.0,-0.0214384467751,0.0107858024148,0.00838895743375,1.0,0.0,0.0,0.0,1.0,0.0,0.0,0.0,1.0,0.076640625,1.74836425781,9.98004638672,0.1,0.0,0.0,0.0,0.1,0.0,0.0,0.0,0.1
1446038185317676976,142,1446038185314327001,robocape,9.02332047671,9.41149997844,12.4769018751,0.0,10.0,0.0,0.0,0.0,10.0,0.0,0.0,0.0,10.0,-0.0828243099015,0.0123836990689,0.0099868540878,1.0,0.0,0.0,0.0,1.0,0.0,0.0,0.0,1.0,0.0335302734375,1.37474121094,10.0590820312,0.1,0.0,0.0,0.0,0.1,0.0,0.0,0.0,0.1
1446038185351223976,143,1446038185347790956,robocape,8.83648517607,9.41852905014,12.4792940217,0.0,10.0,0.0,0.0,0.0,10.0,0.0,0.0,0.0,10.0,-0.0912132673352,0.0129163312869,0.0109189604693,1.0,0.0,0.0,0.0,1.0,0.0,0.0,0.0,1.0,0.0443078613281,1.06099365234,10.0542919922,0.1,0.0,0.0,0.0,0.1,0.0,0.0,0.0,0.1
1446038185384206976,144,1446038185381030082,robocape,8.69645253957,9.42253697378,12.4798395624,0.0,10.0,0.0,0.0,0.0,10.0,0.0,0.0,0.0,10.0,-0.066579027252,0.0113184346328,0.0103863282513,1.0,0.0,0.0,0.0,1.0,0.0,0.0,0.0,1.0,-0.0155676269531,0.835861816406,10.0495019531,0.1,0.0,0.0,0.0,0.1,0.0,0.0,0.0,0.1
1446038185417525601,145,1446038185414222955,robocape,8.65891510803,9.42506201893,12.4763502376,0.0,10.0,0.0,0.0,0.0,10.0,0.0,0.0,0.0,10.0,-0.0123836990689,0.0105194863058,0.00878843159726,1.0,0.0,0.0,0.0,1.0,0.0,0.0,0.0,1.0,0.0107775878906,0.784368896484,10.0375268555,0.1,0.0,0.0,0.0,0.1,0.0,0.0,0.0,0.1
1446038185450852768,146,1446038185447570085,robocape,8.69064753114,9.42622479319,12.466009825,0.0,10.0,0.0,0.0,0.0,10.0,0.0,0.0,0.0,10.0,0.0246342400832,0.00945422186978,0.00559263828917,1.0,0.0,0.0,0.0,1.0,0.0,0.0,0.0,1.0,0.00359252929688,0.883762207031,10.0590820312,0.1,0.0,0.0,0.0,0.1,0.0,0.0,0.0,0.1
1446038185485121310,147,1446038185481347084,robocape,8.76959667395,9.42378432447,12.4540583247,0.0,10.0,0.0,0.0,0.0,10.0,0.0,0.0,0.0,10.0,0.04966795433,0.00759000910673,0.00519316412565,1.0,0.0,0.0,0.0,1.0,0.0,0.0,0.0,1.0,0.00598754882813,1.03345092773,10.080637207,0.1,0.0,0.0,0.0,0.1,0.0,0.0,0.0,0.1
1446038185519473435,148,1446038185516200065,robocape,8.8441632747,9.42331167139,12.4442395329,0.0,10.0,0.0,0.0,0.0,10.0,0.0,0.0,0.0,10.0,0.0472711093489,0.00878843159726,0.00612527050718,1.0,0.0,0.0,0.0,1.0,0.0,0.0,0.0,1.0,0.0502954101563,1.24541015625,10.0387243652,0.1,0.0,0.0,0.0,0.1,0.0,0.0,0.0,0.1
1446038185558538185,149,1446038185548958063,robocape,8.86364613515,9.42376030581,12.4370182551,0.0,10.0,0.0,0.0,0.0,10.0,0.0,0.0,0.0,10.0,0.0181094954125,0.00932106381528,0.00719053494321,1.0,0.0,0.0,0.0,1.0,0.0,0.0,0.0,1.0,0.0371228027344,1.43701171875,10.0051940918,0.1,0.0,0.0,0.0,0.1,0.0,0.0,0.0,0.1
1446038185586017310,150,1446038185582756042,robocape,8.80593512741,9.42754328662,12.4342038586,0.0,10.0,0.0,0.0,0.0,10.0,0.0,0.0,0.0,10.0,-0.0229031853747,0.0111852765783,0.00892158965177,1.0,0.0,0.0,0.0,1.0,0.0,0.0,0.0,1.0,0.0550854492188,1.41186401367,10.0315393066,0.1,0.0,0.0,0.0,0.1,0.0,0.0,0.0,0.1
1446038185619799101,151,1446038185616389989,robocape,8.66262097597,9.431388524,12.4327786213,0.0,10.0,0.0,0.0,0.0,10.0,0.0,0.0,0.0,10.0,-0.068176923906,0.0110521185238,0.00932106381528,1.0,0.0,0.0,0.0,1.0,0.0,0.0,0.0,1.0,0.0443078613281,1.31366821289,10.0087866211,0.1,0.0,0.0,0.0,0.1,0.0,0.0,0.0,0.1
1446038185652951893,152,1446038185649616956,robocape,8.48565513081,9.43575231193,12.4360266533,0.0,10.0,0.0,0.0,0.0,10.0,0.0,0.0,0.0,10.0,-0.0864195773731,0.0115847507418,0.0115847507418,1.0,0.0,0.0,0.0,1.0,0.0,0.0,0.0,1.0,0.028740234375,1.19750976562,10.0746496582,0.1,0.0,0.0,0.0,0.1,0.0,0.0,0.0,0.1
1446038185686193393,153,1446038185682846069,robocape,8.30453082315,9.44008768296,12.4382351564,0.0,10.0,0.0,0.0,0.0,10.0,0.0,0.0,0.0,10.0,-0.0886832642996,0.0114515926873,0.0110521185238,1.0,0.0,0.0,0.0,1.0,0.0,0.0,0.0,1.0,0.0179626464844,0.959205322266,10.0483044434,0.1,0.0,0.0,0.0,0.1,0.0,0.0,0.0,0.1
1446038185722031976,154,1446038185717339992,robocape,8.16838718516,9.44402250854,12.4382579135,0.0,10.0,0.0,0.0,0.0,10.0,0.0,0.0,0.0,10.0,-0.0649811305979,0.0111852765783,0.0101200121423,1.0,0.0,0.0,0.0,1.0,0.0,0.0,0.0,1.0,0.0107775878906,0.723295898438,10.0506994629,0.1,0.0,0.0,0.0,0.1,0.0,0.0,0.0,0.1
1446038185755246685,155,1446038185751713037,robocape,8.11997876977,9.44442885759,12.4349037351,0.0,10.0,0.0,0.0,0.0,10.0,0.0,0.0,0.0,10.0,-0.0186421276306,0.00932106381528,0.00892158965177,1.0,0.0,0.0,0.0,1.0,0.0,0.0,0.0,1.0,0.0802331542969,0.546064453125,10.0578845215,0.1,0.0,0.0,0.0,0.1,0.0,0.0,0.0,0.1
1446038185788019851,156,1446038185784842967,robocape,8.02061484964,9.41167828476,12.6451931531,0.0,10.0,0.0,0.0,0.0,10.0,0.0,0.0,0.0,10.0,-0.0632500758894,0.00838895743375,0.121706461817,1.0,0.0,0.0,0.0,1.0,0.0,0.0,0.0,1.0,0.0526904296875,0.701740722656,9.96567626953,0.1,0.0,0.0,0.0,0.1,0.0,0.0,0.0,0.1
1446038185822420935,157,1446038185818737983,robocape,8.07658178397,9.38054491,12.8184204785,0.0,10.0,0.0,0.0,0.0,10.0,0.0,0.0,0.0,10.0,0.0215716048296,0.0067910607797,0.103197492241,1.0,0.0,0.0,0.0,1.0,0.0,0.0,0.0,1.0,-0.0754431152344,-0.0754431152344,10.0974023437,0.1,0.0,0.0,0.0,0.1,0.0,0.0,0.0,0.1
1446038185854057102,158,1446038185848350048,robocape,8.47302534814,9.35695791163,12.8594056708,0.0,10.0,0.0,0.0,0.0,10.0,0.0,0.0,0.0,10.0,0.211854464716,0.00159789665405,0.0355532005526,1.0,0.0,0.0,0.0,1.0,0.0,0.0,0.0,1.0,-0.05748046875,0.399968261719,10.024354248,0.1,0.0,0.0,0.0,0.1,0.0,0.0,0.0,0.1
1446038185888182893,159,1446038185885003089,robocape,8.93393877758,9.33686413448,12.8660865147,0.0,10.0,0.0,0.0,0.0,10.0,0.0,0.0,0.0,10.0,0.249138719977,0.00106526443603,0.017976337358,1.0,0.0,0.0,0.0,1.0,0.0,0.0,0.0,1.0,0.0694555664063,1.41186401367,10.0099841309,0.1,0.0,0.0,0.0,0.1,0.0,0.0,0.0,0.1
1446038185922128810,160,1446038185918704986,robocape,9.24024424381,9.31167305097,12.9175593815,0.0,10.0,0.0,0.0,0.0,10.0,0.0,0.0,0.0,10.0,0.164583355367,0.00199737081756,0.0411458388417,1.0,0.0,0.0,0.0,1.0,0.0,0.0,0.0,1.0,0.0922082519531,1.76991943359,9.99441650391,0.1,0.0,0.0,0.0,0.1,0.0,0.0,0.0,0.1
1446038185955013518,161,1446038185950680971,robocape,9.38921880499,9.29517287974,12.9591921964,0.0,10.0,0.0,0.0,0.0,10.0,0.0,0.0,0.0,10.0,0.0828243099015,0.00532632218016,0.03488741028,1.0,0.0,0.0,0.0,1.0,0.0,0.0,0.0,1.0,0.0934057617188,1.84895507813,10.0016015625,0.1,0.0,0.0,0.0,0.1,0.0,0.0,0.0,0.1
1446038185989087102,162,1446038185985521078,robocape,9.33783864759,9.29307321856,12.9746427939,0.0,10.0,0.0,0.0,0.0,10.0,0.0,0.0,0.0,10.0,-0.0205063403936,0.00985369603329,0.0194410759576,1.0,0.0,0.0,0.0,1.0,0.0,0.0,0.0,1.0,0.0850231933594,1.80225219727,10.0135766602,0.1,0.0,0.0,0.0,0.1,0.0,0.0,0.0,0.1
1446038186021077185,163,1446038186017719030,robocape,9.23972808208,9.2990003939,12.97648148,0.0,10.0,0.0,0.0,0.0,10.0,0.0,0.0,0.0,10.0,-0.0440753160408,0.0126500151779,0.0115847507418,1.0,0.0,0.0,0.0,1.0,0.0,0.0,0.0,1.0,0.0790356445313,1.48491210938,10.0147741699,0.1,0.0,0.0,0.0,0.1,0.0,0.0,0.0,0.1
1446038186056402935,164,1446038186051879882,robocape,9.04433887129,9.30781516088,12.9787280151,0.0,10.0,0.0,0.0,0.0,10.0,0.0,0.0,0.0,10.0,-0.0954743250793,0.0138484376684,0.0111852765783,1.0,0.0,0.0,0.0,1.0,0.0,0.0,0.0,1.0,0.0467028808594,1.07177124023,10.0483044434,0.1,0.0,0.0,0.0,0.1,0.0,0.0,0.0,0.1
1446038186088521018,165,1446038186085098981,robocape,8.89819522096,9.31372269001,12.9752275433,0.0,10.0,0.0,0.0,0.0,10.0,0.0,0.0,0.0,10.0,-0.0692421883421,0.0119842249054,0.00865527354276,1.0,0.0,0.0,0.0,1.0,0.0,0.0,0.0,1.0,0.00718505859375,0.798739013672,10.0255517578,0.1,0.0,0.0,0.0,0.1,0.0,0.0,0.0,0.1
1446038186121895602,166,1446038186118704080,robocape,8.82334981994,9.31614854359,12.9701584455,0.0,10.0,0.0,0.0,0.0,10.0,0.0,0.0,0.0,10.0,-0.0316916169719,0.0102531701968,0.00838895743375,1.0,0.0,0.0,0.0,1.0,0.0,0.0,0.0,1.0,0.0239501953125,0.850231933594,10.0638720703,0.1,0.0,0.0,0.0,0.1,0.0,0.0,0.0,0.1
1446038186155556185,167,1446038186152158975,robocape,8.81085628706,9.31666177482,12.9620442738,0.0,10.0,0.0,0.0,0.0,10.0,0.0,0.0,0.0,10.0,0.00133158054504,0.00918790576077,0.00719053494321,1.0,0.0,0.0,0.0,1.0,0.0,0.0,0.0,1.0,0.0215551757813,0.86220703125,10.039921875,0.1,0.0,0.0,0.0,0.1,0.0,0.0,0.0,0.1
1446038186188158810,168,1446038186184839963,robocape,8.84362429843,9.31563469561,12.9539031773,0.0,10.0,0.0,0.0,0.0,10.0,0.0,0.0,0.0,10.0,0.0251668723012,0.00852211548825,0.00745685105222,1.0,0.0,0.0,0.0,1.0,0.0,0.0,0.0,1.0,0.0131726074219,1.00111816406,10.0375268555,0.1,0.0,0.0,0.0,0.1,0.0,0.0,0.0,0.1
1446038186220138768,169,1446038186216769933,robocape,8.89650071998,9.31426016789,12.9471181174,0.0,10.0,0.0,0.0,0.0,10.0,0.0,0.0,0.0,10.0,0.0356863586071,0.00852211548825,0.00825579937925,1.0,0.0,0.0,0.0,1.0,0.0,0.0,0.0,1.0,0.0538879394531,1.04542602539,10.0518969727,0.1,0.0,0.0,0.0,0.1,0.0,0.0,0.0,0.1
1446038186254526977,170,1446038186251302957,robocape,8.95749040372,9.31245613379,12.9378969554,0.0,10.0,0.0,0.0,0.0,10.0,0.0,0.0,0.0,10.0,0.0402137324602,0.00812264132474,0.00705737688871,1.0,0.0,0.0,0.0,1.0,0.0,0.0,0.0,1.0,0.0419128417969,1.07057373047,10.0267492676,0.1,0.0,0.0,0.0,0.1,0.0,0.0,0.0,0.1
1446038186287366018,171,1446038186284198045,robocape,9.01041763028,9.31229953867,12.9313084362,0.0,10.0,0.0,0.0,0.0,10.0,0.0,0.0,0.0,10.0,0.0358195166616,0.00918790576077,0.00825579937925,1.0,0.0,0.0,0.0,1.0,0.0,0.0,0.0,1.0,0.0946032714844,1.02746337891,10.0590820312,0.1,0.0,0.0,0.0,0.1,0.0,0.0,0.0,0.1
1446038186320604143,172,1446038186317527055,robocape,9.25007079668,9.34856862595,12.6739082196,0.0,10.0,0.0,0.0,0.0,10.0,0.0,0.0,0.0,10.0,0.154729659334,0.00692421883421,-0.12357067458,1.0,0.0,0.0,0.0,1.0,0.0,0.0,0.0,1.0,-0.01916015625,1.47054199219,10.1500927734,0.1,0.0,0.0,0.0,0.1,0.0,0.0,0.0,0.1
1446038186353617310,173,1446038186350511074,robocape,9.29060095521,9.38022359304,12.5099521981,0.0,10.0,0.0,0.0,0.0,10.0,0.0,0.0,0.0,10.0,0.0424774193868,0.0118510668509,-0.0759000910673,1.0,0.0,0.0,0.0,1.0,0.0,0.0,0.0,1.0,0.251477050781,2.16509765625,9.96567626953,0.1,0.0,0.0,0.0,0.1,0.0,0.0,0.0,0.1
1446038186386123227,174,1446038186382975101,robocape,9.04414346904,9.41167332839,12.4038352992,0.0,10.0,0.0,0.0,0.0,10.0,0.0,0.0,0.0,10.0,-0.113450662437,0.0159789665405,-0.0472711093489,1.0,0.0,0.0,0.0,1.0,0.0,0.0,0.0,1.0,0.01916015625,1.97110107422,9.98483642578,0.1,0.0,0.0,0.0,0.1,0.0,0.0,0.0,0.1
1446038186420154768,175,1446038186417107105,robocape,8.59950532344,9.44459074149,12.3099985577,0.0,10.0,0.0,0.0,0.0,10.0,0.0,0.0,0.0,10.0,-0.219044999659,0.01744370514,-0.0418116291142,1.0,0.0,0.0,0.0,1.0,0.0,0.0,0.0,1.0,0.135318603516,1.33402587891,10.0135766602,0.1,0.0,0.0,0.0,0.1,0.0,0.0,0.0,0.1
1446038186453357685,176,1446038186450309991,robocape,8.15895426504,9.47176152611,12.2368436865,0.0,10.0,0.0,0.0,0.0,10.0,0.0,0.0,0.0,10.0,-0.218911841605,0.0165115987585,-0.0306263525359,1.0,0.0,0.0,0.0,1.0,0.0,0.0,0.0,1.0,-0.076640625,0.947230224609,10.0435144043,0.1,0.0,0.0,0.0,0.1,0.0,0.0,0.0,0.1
1446038186487194685,177,1446038186483834981,robocape,7.76130071169,9.48115895397,12.248401697,0.0,10.0,0.0,0.0,0.0,10.0,0.0,0.0,0.0,10.0,-0.203731823391,0.0141147537774,0.0146473859954,1.0,0.0,0.0,0.0,1.0,0.0,0.0,0.0,1.0,0.0359252929688,0.247884521484,10.080637207,0.1,0.0,0.0,0.0,0.1,0.0,0.0,0.0,0.1
1446038186517602352,178,1446038186514296054,robocape,7.55939381513,9.48444182189,12.2457240065,0.0,10.0,0.0,0.0,0.0,10.0,0.0,0.0,0.0,10.0,-0.099868540878,0.0103863282513,0.00838895743375,1.0,0.0,0.0,0.0,1.0,0.0,0.0,0.0,1.0,-0.028740234375,0.269439697266,10.0542919922,0.1,0.0,0.0,0.0,0.1,0.0,0.0,0.0,0.1
1446038186558514060,179,1446038186547772884,robocape,7.52338192537,9.48963039572,12.217876486,0.0,10.0,0.0,0.0,0.0,10.0,0.0,0.0,0.0,10.0,-0.0106526443603,0.0099868540878,-0.00426105774413,1.0,0.0,0.0,0.0,1.0,0.0,0.0,0.0,1.0,-0.0981958007813,0.468226318359,10.0926123047,0.1,0.0,0.0,0.0,0.1,0.0,0.0,0.0,0.1
1446038186586396227,180,1446038186583317041,robocape,7.61815788505,9.49420627316,12.1861653904,0.0,10.0,0.0,0.0,0.0,10.0,0.0,0.0,0.0,10.0,0.0584563859272,0.00972053797879,-0.00585895439817,1.0,0.0,0.0,0.0,1.0,0.0,0.0,0.0,1.0,-0.0790356445313,0.536484375,10.1153649902,0.1,0.0,0.0,0.0,0.1,0.0,0.0,0.0,0.1
1446038186617784352,181,1446038186614547967,robocape,7.85579703785,9.4932139543,12.1565498171,0.0,10.0,0.0,0.0,0.0,10.0,0.0,0.0,0.0,10.0,0.133557528667,0.00732369299772,-0.00399474163512,1.0,0.0,0.0,0.0,1.0,0.0,0.0,0.0,1.0,0.104183349609,0.483793945313,10.100994873,0.1,0.0,0.0,0.0,0.1,0.0,0.0,0.0,0.1
1446038186652180310,182,1446038186648933887,robocape,8.16920246354,9.48895465043,12.1309017516,0.0,10.0,0.0,0.0,0.0,10.0,0.0,0.0,0.0,10.0,0.173371786964,0.00612527050718,-0.00146473859954,1.0,0.0,0.0,0.0,1.0,0.0,0.0,0.0,1.0,-0.05748046875,0.737666015625,10.0902172852,0.1,0.0,0.0,0.0,0.1,0.0,0.0,0.0,0.1
1446038186685448185,183,1446038186681077957,robocape,8.49212168307,9.48275720579,12.1089511271,0.0,10.0,0.0,0.0,0.0,10.0,0.0,0.0,0.0,10.0,0.178431793035,0.00545948023466,0.00066579027252,1.0,0.0,0.0,0.0,1.0,0.0,0.0,0.0,1.0,0.0526904296875,1.08015380859,10.0135766602,0.1,0.0,0.0,0.0,0.1,0.0,0.0,0.0,0.1
1446038186719389477,184,1446038186715626001,robocape,8.7701679954,9.47718026419,12.0890783408,0.0,10.0,0.0,0.0,0.0,10.0,0.0,0.0,0.0,10.0,0.154995975443,0.00585895439817,0.00159789665405,1.0,0.0,0.0,0.0,1.0,0.0,0.0,0.0,1.0,-0.00718505859375,1.48012207031,10.0123791504,0.1,0.0,0.0,0.0,0.1,0.0,0.0,0.0,0.1
1446038186752704352,185,1446038186749157905,robocape,8.90259828432,9.47288804669,12.0741862957,0.0,10.0,0.0,0.0,0.0,10.0,0.0,0.0,0.0,10.0,0.0781637779938,0.00652474467069,0.00359526747161,1.0,0.0,0.0,0.0,1.0,0.0,0.0,0.0,1.0,0.106578369141,1.81302978516,9.98244140625,0.1,0.0,0.0,0.0,0.1,0.0,0.0,0.0,0.1
1446038186786387477,186,1446038186782705068,robocape,8.82944959178,9.47552730159,12.0746542169,0.0,10.0,0.0,0.0,0.0,10.0,0.0,0.0,0.0,10.0,-0.0312921428084,0.0107858024148,0.0102531701968,1.0,0.0,0.0,0.0,1.0,0.0,0.0,0.0,1.0,0.0526904296875,1.89446044922,10.019564209,0.1,0.0,0.0,0.0,0.1,0.0,0.0,0.0,0.1
1446038186819850310,187,1446038186816215991,robocape,8.61296064009,9.4825529453,12.082160886,0.0,10.0,0.0,0.0,0.0,10.0,0.0,0.0,0.0,10.0,-0.107458549985,0.0131826473959,0.0130494893414,1.0,0.0,0.0,0.0,1.0,0.0,0.0,0.0,1.0,0.0682580566406,1.48730712891,10.0159716797,0.1,0.0,0.0,0.0,0.1,0.0,0.0,0.0,0.1
1446038186852918310,188,1446038186849280118,robocape,8.30129286174,9.48943669513,12.0930458885,0.0,10.0,0.0,0.0,0.0,10.0,0.0,0.0,0.0,10.0,-0.158058610696,0.0130494893414,0.0145142279409,1.0,0.0,0.0,0.0,1.0,0.0,0.0,0.0,1.0,0.0155676269531,0.948427734375,10.055489502,0.1,0.0,0.0,0.0,0.1,0.0,0.0,0.0,0.1
1446038186885652102,189,1446038186882316112,robocape,8.04646878933,9.49400952932,12.0972048101,0.0,10.0,0.0,0.0,0.0,10.0,0.0,0.0,0.0,10.0,-0.127831732324,0.0114515926873,0.0114515926873,1.0,0.0,0.0,0.0,1.0,0.0,0.0,0.0,1.0,-0.0203576660156,0.544866943359,10.0530944824,0.1,0.0,0.0,0.0,0.1,0.0,0.0,0.0,0.1
1446038186918593352,190,1446038186915261983,robocape,7.89974131788,9.49754631313,12.0976575193,0.0,10.0,0.0,0.0,0.0,10.0,0.0,0.0,0.0,10.0,-0.0708400849961,0.0109189604693,0.0099868540878,1.0,0.0,0.0,0.0,1.0,0.0,0.0,0.0,1.0,-0.00119750976563,0.604742431641,10.0926123047,0.1,0.0,0.0,0.0,0.1,0.0,0.0,0.0,0.1
1446038186958062560,191,1446038186954282999,robocape,7.84970023919,9.50003524143,12.0983946277,0.0,10.0,0.0,0.0,0.0,10.0,0.0,0.0,0.0,10.0,-0.0201068662301,0.0106526443603,0.0105194863058,1.0,0.0,0.0,0.0,1.0,0.0,0.0,0.0,1.0,0.0526904296875,0.55564453125,10.080637207,0.1,0.0,0.0,0.0,0.1,0.0,0.0,0.0,0.1
1446038186989868269,192,1446038186985068082,robocape,7.73656193764,9.46728431312,12.3158061873,0.0,10.0,0.0,0.0,0.0,10.0,0.0,0.0,0.0,10.0,-0.0715058752686,0.00825579937925,0.124902255125,1.0,0.0,0.0,0.0,1.0,0.0,0.0,0.0,1.0,0.0730480957031,0.662222900391,9.96088623047,0.1,0.0,0.0,0.0,0.1,0.0,0.0,0.0,0.1
1446038187022959810,193,1446038187019484043,robocape,7.73895361221,9.42627116251,12.5434689364,0.0,10.0,0.0,0.0,0.0,10.0,0.0,0.0,0.0,10.0,-0.0115847507418,0.00492684801665,0.131426999795,1.0,0.0,0.0,0.0,1.0,0.0,0.0,0.0,1.0,-0.00119750976563,-0.00239501953125,10.0698596191,0.1,0.0,0.0,0.0,0.1,0.0,0.0,0.0,0.1
1446038187053482894,194,1446038187048614025,robocape,8.05283315452,9.40800629644,12.6107428892,0.0,10.0,0.0,0.0,0.0,10.0,0.0,0.0,0.0,10.0,0.165781777857,0.00585895439817,0.0480700576759,1.0,0.0,0.0,0.0,1.0,0.0,0.0,0.0,1.0,-0.337697753906,0.417930908203,10.2411035156,0.1,0.0,0.0,0.0,0.1,0.0,0.0,0.0,0.1
1446038187088976185,195,1446038187084685087,robocape,8.51193502973,9.38921172105,12.6283336505,0.0,10.0,0.0,0.0,0.0,10.0,0.0,0.0,0.0,10.0,0.246741874996,0.00239684498107,0.0230363434292,1.0,0.0,0.0,0.0,1.0,0.0,0.0,0.0,1.0,0.28740234375,0.499361572266,9.98962646484,0.1,0.0,0.0,0.0,0.1,0.0,0.0,0.0,0.1
1446038187122931310,196,1446038187119329929,robocape,8.99504712552,9.3695951625,12.6629943175,0.0,10.0,0.0,0.0,0.0,10.0,0.0,0.0,0.0,10.0,0.258592941847,0.00372842552611,0.03222424919,1.0,0.0,0.0,0.0,1.0,0.0,0.0,0.0,1.0,-0.0586779785156,1.40108642578,10.0171691895,0.1,0.0,0.0,0.0,0.1,0.0,0.0,0.0,0.1
1446038187155934685,197,1446038187152395009,robocape,9.35354091687,9.34682927308,12.6883704774,0.0,10.0,0.0,0.0,0.0,10.0,0.0,0.0,0.0,10.0,0.194277601521,0.00119842249054,0.0274305592278,1.0,0.0,0.0,0.0,1.0,0.0,0.0,0.0,1.0,0.132923583984,1.64657592773,10.0159716797,0.1,0.0,0.0,0.0,0.1,0.0,0.0,0.0,0.1
1446038187187598685,198,1446038187184079885,robocape,9.56063870516,9.33516043119,12.7153452359,0.0,10.0,0.0,0.0,0.0,10.0,0.0,0.0,0.0,10.0,0.114782242982,0.0067910607797,0.0268979270098,1.0,0.0,0.0,0.0,1.0,0.0,0.0,0.0,1.0,0.113763427734,1.95194091797,10.0111816406,0.1,0.0,0.0,0.0,0.1,0.0,0.0,0.0,0.1
1446038187221577519,199,1446038187218159914,robocape,9.54038315538,9.33344273014,12.7166928581,0.0,10.0,0.0,0.0,0.0,10.0,0.0,0.0,0.0,10.0,-0.00279631914458,0.00892158965177,0.0119842249054,1.0,0.0,0.0,0.0,1.0,0.0,0.0,0.0,1.0,0.104183349609,1.87649780273,9.99321899414,0.1,0.0,0.0,0.0,0.1,0.0,0.0,0.0,0.1
1446038187255722061,200,1446038187252410888,robocape,9.52229876753,9.36732773807,12.5444172139,0.0,10.0,0.0,0.0,0.0,10.0,0.0,0.0,0.0,10.0,0.0125168571234,0.0117179087963,-0.0805606229749,1.0,0.0,0.0,0.0,1.0,0.0,0.0,0.0,1.0,0.0550854492188,1.55676269531,10.0626745605,0.1,0.0,0.0,0.0,0.1,0.0,0.0,0.0,0.1
1446038187289063394,201,1446038187285701036,robocape,9.30086721245,9.40578882752,12.3871058999,0.0,10.0,0.0,0.0,0.0,10.0,0.0,0.0,0.0,10.0,-0.0958737992429,0.0149137021044,-0.0741690363587,1.0,0.0,0.0,0.0,1.0,0.0,0.0,0.0,1.0,0.180823974609,1.87170776367,10.0219592285,0.1,0.0,0.0,0.0,0.1,0.0,0.0,0.0,0.1
1446038187321998019,202,1446038187318818092,robocape,8.90000144791,9.44097603474,12.2715530116,0.0,10.0,0.0,0.0,0.0,10.0,0.0,0.0,0.0,10.0,-0.194011285412,0.016644756813,-0.0531300637471,1.0,0.0,0.0,0.0,1.0,0.0,0.0,0.0,1.0,0.00838256835938,1.54478759766,9.99920654297,0.1,0.0,0.0,0.0,0.1,0.0,0.0,0.0,0.1
1446038187356418727,203,1446038187353353023,robocape,8.41137373136,9.47150958509,12.1863113302,0.0,10.0,0.0,0.0,0.0,10.0,0.0,0.0,0.0,10.0,-0.24301344947,0.016911072922,-0.0374174133156,1.0,0.0,0.0,0.0,1.0,0.0,0.0,0.0,1.0,0.0790356445313,0.791553955078,10.0219592285,0.1,0.0,0.0,0.0,0.1,0.0,0.0,0.0,0.1
1446038187388109811,204,1446038187384927988,robocape,7.9791483753,9.49098526781,12.1353270523,0.0,10.0,0.0,0.0,0.0,10.0,0.0,0.0,0.0,10.0,-0.216514996623,0.0143810698864,-0.0186421276306,1.0,0.0,0.0,0.0,1.0,0.0,0.0,0.0,1.0,0.0215551757813,0.608334960938,10.0255517578,0.1,0.0,0.0,0.0,0.1,0.0,0.0,0.0,0.1
1446038187421051561,205,1446038187417908906,robocape,7.68833680542,9.4970922289,12.119940268,0.0,10.0,0.0,0.0,0.0,10.0,0.0,0.0,0.0,10.0,-0.145408595518,0.0106526443603,0.00119842249054,1.0,0.0,0.0,0.0,1.0,0.0,0.0,0.0,1.0,0.0311352539063,0.243094482422,10.2411035156,0.1,0.0,0.0,0.0,0.1,0.0,0.0,0.0,0.1
1446038187453450269,206,1446038187450234889,robocape,7.58571741799,9.50617633599,12.0598164992,0.0,10.0,0.0,0.0,0.0,10.0,0.0,0.0,0.0,10.0,-0.0428768935503,0.00945422186978,-0.0215716048296,1.0,0.0,0.0,0.0,1.0,0.0,0.0,0.0,1.0,-0.076640625,0.337697753906,10.096204834,0.1,0.0,0.0,0.0,0.1,0.0,0.0,0.0,0.1
1446038187487501602,207,1446038187484246969,robocape,7.54386961342,9.50739824449,12.0591309173,0.0,10.0,0.0,0.0,0.0,10.0,0.0,0.0,0.0,10.0,-0.0159789665405,0.00985369603329,0.00985369603329,1.0,0.0,0.0,0.0,1.0,0.0,0.0,0.0,1.0,-0.0814306640625,0.519719238281,10.0914147949,0.1,0.0,0.0,0.0,0.1,0.0,0.0,0.0,0.1
1446038187520362394,208,1446038187517288923,robocape,7.46139126591,9.47085452881,12.2967980887,0.0,10.0,0.0,0.0,0.0,10.0,0.0,0.0,0.0,10.0,-0.0573911214912,0.00719053494321,0.13568805754,1.0,0.0,0.0,0.0,1.0,0.0,0.0,0.0,1.0,0.0934057617188,0.488583984375,10.0087866211,0.1,0.0,0.0,0.0,0.1,0.0,0.0,0.0,0.1
1446038187559877102,209,1446038187549958944,robocape,7.50716171654,9.43675155187,12.4864025417,0.0,10.0,0.0,0.0,0.0,10.0,0.0,0.0,0.0,10.0,0.0141147537774,0.00532632218016,0.111320133565,1.0,0.0,0.0,0.0,1.0,0.0,0.0,0.0,1.0,-0.1149609375,-0.295784912109,10.0902172852,0.1,0.0,0.0,0.0,0.1,0.0,0.0,0.0,0.1
1446038187587024311,210,1446038187583868026,robocape,7.92355809372,9.42207473772,12.5363066085,0.0,10.0,0.0,0.0,0.0,10.0,0.0,0.0,0.0,10.0,0.220909212422,0.00652474467069,0.0390153099697,1.0,0.0,0.0,0.0,1.0,0.0,0.0,0.0,1.0,-0.182021484375,0.294587402344,10.2279309082,0.1,0.0,0.0,0.0,0.1,0.0,0.0,0.0,0.1
1446038187620752561,211,1446038187617638111,robocape,8.48292780425,9.39738429795,12.5429500007,0.0,10.0,0.0,0.0,0.0,10.0,0.0,0.0,0.0,10.0,0.300271412906,-0.00133158054504,0.017976337358,1.0,0.0,0.0,0.0,1.0,0.0,0.0,0.0,1.0,0.124541015625,0.451461181641,10.0686621094,0.1,0.0,0.0,0.0,0.1,0.0,0.0,0.0,0.1
1446038187653201019,212,1446038187649986982,robocape,9.07680831839,9.37615274254,12.564734074,0.0,10.0,0.0,0.0,0.0,10.0,0.0,0.0,0.0,10.0,0.317981434155,0.00213052887206,0.0259658206283,1.0,0.0,0.0,0.0,1.0,0.0,0.0,0.0,1.0,0.185614013672,1.33881591797,10.0004040527,0.1,0.0,0.0,0.0,0.1,0.0,0.0,0.0,0.1
1446038187685549352,213,1446038187682457923,robocape,9.48673816073,9.34619573545,12.6135219931,0.0,10.0,0.0,0.0,0.0,10.0,0.0,0.0,0.0,10.0,0.219577631877,-0.000266316109008,0.0402137324602,1.0,0.0,0.0,0.0,1.0,0.0,0.0,0.0,1.0,0.0778381347656,1.86332519531,10.0051940918,0.1,0.0,0.0,0.0,0.1,0.0,0.0,0.0,0.1
1446038187718541311,214,1446038187715389013,robocape,9.70617260792,9.33222522759,12.6437608375,0.0,10.0,0.0,0.0,0.0,10.0,0.0,0.0,0.0,10.0,0.121173829599,0.00599211245268,0.0287621397729,1.0,0.0,0.0,0.0,1.0,0.0,0.0,0.0,1.0,0.15328125,2.13276489258,10.0075891113,0.1,0.0,0.0,0.0,0.1,0.0,0.0,0.0,0.1
1446038187752312061,215,1446038187748661994,robocape,9.74070599614,9.33568162032,12.6208750099,0.0,10.0,0.0,0.0,0.0,10.0,0.0,0.0,0.0,10.0,0.0282295075548,0.00958737992429,-0.000798948327024,1.0,0.0,0.0,0.0,1.0,0.0,0.0,0.0,1.0,0.0694555664063,1.75554931641,10.0650695801,0.1,0.0,0.0,0.0,0.1,0.0,0.0,0.0,0.1
1446038187785091727,216,1446038187782013893,robocape,9.66072720763,9.37598575459,12.4477259445,0.0,10.0,0.0,0.0,0.0,10.0,0.0,0.0,0.0,10.0,-0.0198405501211,0.0145142279409,-0.0818922035199,1.0,0.0,0.0,0.0,1.0,0.0,0.0,0.0,1.0,0.154478759766,2.26209594727,9.93334350586,0.1,0.0,0.0,0.0,0.1,0.0,0.0,0.0,0.1
1446038187818594019,217,1446038187815515995,robocape,9.25230254926,9.41818482069,12.3109736443,0.0,10.0,0.0,0.0,0.0,10.0,0.0,0.0,0.0,10.0,-0.19600865623,0.017976337358,-0.0647148144889,1.0,0.0,0.0,0.0,1.0,0.0,0.0,0.0,1.0,0.126936035156,1.88607788086,9.96567626953,0.1,0.0,0.0,0.0,0.1,0.0,0.0,0.0,0.1
1446038187851496936,218,1446038187848081111,robocape,8.74261522505,9.46164296153,12.1637551321,0.0,10.0,0.0,0.0,0.0,10.0,0.0,0.0,0.0,10.0,-0.248739245813,0.017976337358,-0.0705737688871,1.0,0.0,0.0,0.0,1.0,0.0,0.0,0.0,1.0,0.0538879394531,1.32923583984,10.019564209,0.1,0.0,0.0,0.0,0.1,0.0,0.0,0.0,0.1
1446038187884083477,219,1446038187880947113,robocape,8.34411983464,9.51614501287,11.9074354308,0.0,10.0,0.0,0.0,0.0,10.0,0.0,0.0,0.0,10.0,-0.181361270234,0.015845808486,-0.127299100106,1.0,0.0,0.0,0.0,1.0,0.0,0.0,0.0,1.0,0.0203576660156,0.476608886719,10.132130127,0.1,0.0,0.0,0.0,0.1,0.0,0.0,0.0,0.1
1446038187917904311,220,1446038187914810895,robocape,8.21517495282,9.58918807042,11.44465819,0.0,10.0,0.0,0.0,0.0,10.0,0.0,0.0,0.0,10.0,-0.0222373951022,0.0106526443603,-0.234491333981,1.0,0.0,0.0,0.0,1.0,0.0,0.0,0.0,1.0,-0.120948486328,0.334105224609,10.0974023437,0.1,0.0,0.0,0.0,0.1,0.0,0.0,0.0,0.1
1446038187950699144,221,1446038187947457075,robocape,8.26817429655,9.66996758561,10.7903818368,0.0,10.0,0.0,0.0,0.0,10.0,0.0,0.0,0.0,10.0,0.0900148448447,0.000399474163512,-0.333560926532,1.0,0.0,0.0,0.0,1.0,0.0,0.0,0.0,1.0,0.00598754882813,1.11847412109,9.99321899414,0.1,0.0,0.0,0.0,0.1,0.0,0.0,0.0,0.1
1446038187984482978,222,1446038187981013059,robocape,8.19052276684,9.71937782064,10.2919186523,0.0,10.0,0.0,0.0,0.0,10.0,0.0,0.0,0.0,10.0,0.00838895743375,-0.00399474163512,-0.251668723012,1.0,0.0,0.0,0.0,1.0,0.0,0.0,0.0,1.0,0.107775878906,2.04774169922,9.92376342773,0.1,0.0,0.0,0.0,0.1,0.0,0.0,0.0,0.1
1446038188017801103,223,1446038188014763116,robocape,7.7589652174,9.74329964926,10.0612708198,0.0,10.0,0.0,0.0,0.0,10.0,0.0,0.0,0.0,10.0,-0.200802346192,0.00306263525359,-0.113184346328,1.0,0.0,0.0,0.0,1.0,0.0,0.0,0.0,1.0,0.0694555664063,1.57951538086,10.0027990723,0.1,0.0,0.0,0.0,0.1,0.0,0.0,0.0,0.1
1446038188051133978,224,1446038188047972917,robocape,7.07983078508,9.73056430785,10.0394806609,0.0,10.0,0.0,0.0,0.0,10.0,0.0,0.0,0.0,10.0,-0.349406735018,-0.000932106381528,-0.00386158358061,1.0,0.0,0.0,0.0,1.0,0.0,0.0,0.0,1.0,0.0419128417969,0.978365478516,10.0950073242,0.1,0.0,0.0,0.0,0.1,0.0,0.0,0.0,0.1
1446038188084200894,225,1446038188080826044,robocape,6.43641222503,9.70933402524,10.076011748,0.0,10.0,0.0,0.0,0.0,10.0,0.0,0.0,0.0,10.0,-0.336090929568,-0.00133158054504,0.0268979270098,1.0,0.0,0.0,0.0,1.0,0.0,0.0,0.0,1.0,0.05748046875,0.336500244141,10.0530944824,0.1,0.0,0.0,0.0,0.1,0.0,0.0,0.0,0.1
1446038188117458603,226,1446038188114422082,robocape,5.89816160009,9.67350875968,10.107617239,0.0,10.0,0.0,0.0,0.0,10.0,0.0,0.0,0.0,10.0,-0.280830336949,-0.00918790576077,0.0254331884103,1.0,0.0,0.0,0.0,1.0,0.0,0.0,0.0,1.0,0.00598754882813,0.0850231933594,10.0698596191,0.1,0.0,0.0,0.0,0.1,0.0,0.0,0.0,0.1
1446038188151186478,227,1446038188148019075,robocape,5.51016137552,9.65229298,10.1271801822,0.0,10.0,0.0,0.0,0.0,10.0,0.0,0.0,0.0,10.0,-0.201201820355,-0.00199737081756,0.0187752856851,1.0,0.0,0.0,0.0,1.0,0.0,0.0,0.0,1.0,-0.0790356445313,-0.0179626464844,10.0926123047,0.1,0.0,0.0,0.0,0.1,0.0,0.0,0.0,0.1
1446038188184356269,228,1446038188181282043,robocape,5.29350488991,9.63990870207,10.1371223301,0.0,10.0,0.0,0.0,0.0,10.0,0.0,0.0,0.0,10.0,-0.110654343293,0.00239684498107,0.0137152796139,1.0,0.0,0.0,0.0,1.0,0.0,0.0,0.0,1.0,0.0562829589844,-0.0934057617188,10.0830322266,0.1,0.0,0.0,0.0,0.1,0.0,0.0,0.0,0.1
1446038188217888436,229,1446038188214746952,robocape,5.22528266642,9.64141122268,10.1351550007,0.0,10.0,0.0,0.0,0.0,10.0,0.0,0.0,0.0,10.0,-0.0318247750264,0.00932106381528,0.00719053494321,1.0,0.0,0.0,0.0,1.0,0.0,0.0,0.0,1.0,0.0658630371094,-0.104183349609,10.0842297363,0.1,0.0,0.0,0.0,0.1,0.0,0.0,0.0,0.1
1446038188251001436,230,1446038188247859954,robocape,5.15242558788,9.61830278838,10.3652017783,0.0,10.0,0.0,0.0,0.0,10.0,0.0,0.0,0.0,10.0,-0.0543284862376,0.00812264132474,0.128630680651,1.0,0.0,0.0,0.0,1.0,0.0,0.0,0.0,1.0,0.009580078125,0.452658691406,10.0171691895,0.1,0.0,0.0,0.0,0.1,0.0,0.0,0.0,0.1
1446038188283903478,231,1446038188280803918,robocape,5.21294236721,9.60514567761,10.5999726167,0.0,10.0,0.0,0.0,0.0,10.0,0.0,0.0,0.0,10.0,0.015313176268,0.0138484376684,0.131160683686,1.0,0.0,0.0,0.0,1.0,0.0,0.0,0.0,1.0,0.0347277832031,-0.234711914063,10.0950073242,0.1,0.0,0.0,0.0,0.1,0.0,0.0,0.0,0.1
1446038188317498811,232,1446038188314335107,robocape,5.32275959088,9.58267918902,10.9593742751,0.0,10.0,0.0,0.0,0.0,10.0,0.0,0.0,0.0,10.0,0.0306263525359,0.0157126504315,0.196674446502,1.0,0.0,0.0,0.0,1.0,0.0,0.0,0.0,1.0,0.00359252929688,0.410745849609,10.0878222656,0.1,0.0,0.0,0.0,0.1,0.0,0.0,0.0,0.1
1446038188351138853,233,1446038188347937107,robocape,5.47432248945,9.53851752379,11.4597743728,0.0,10.0,0.0,0.0,0.0,10.0,0.0,0.0,0.0,10.0,0.0407463646782,0.0123836990689,0.271509273134,1.0,0.0,0.0,0.0,1.0,0.0,0.0,0.0,1.0,0.150886230469,-0.591569824219,10.0985998535,0.1,0.0,0.0,0.0,0.1,0.0,0.0,0.0,0.1
1446038188384040519,234,1446038188380917072,robocape,6.0078603924,9.50893137769,11.7710504855,0.0,10.0,0.0,0.0,0.0,10.0,0.0,0.0,0.0,10.0,0.257927151574,0.0118510668509,0.174037577237,1.0,0.0,0.0,0.0,1.0,0.0,0.0,0.0,1.0,-0.0227526855469,-0.726888427734,10.0770446777,0.1,0.0,0.0,0.0,0.1,0.0,0.0,0.0,0.1
1446038188417528228,235,1446038188414165019,robocape,6.89880531986,9.48892395664,11.9117605207,0.0,10.0,0.0,0.0,0.0,10.0,0.0,0.0,0.0,10.0,0.460993184693,0.00918790576077,0.0862864193186,1.0,0.0,0.0,0.0,1.0,0.0,0.0,0.0,1.0,-0.0455053710938,-0.118553466797,10.0818347168,0.1,0.0,0.0,0.0,0.1,0.0,0.0,0.0,0.1
1446038188450876936,236,1446038188447563886,robocape,7.88429568197,9.45312861623,12.0273562423,0.0,10.0,0.0,0.0,0.0,10.0,0.0,0.0,0.0,10.0,0.51412324844,0.00106526443603,0.0751011427402,1.0,0.0,0.0,0.0,1.0,0.0,0.0,0.0,1.0,-0.292192382813,1.56155273438,9.98363891602,0.1,0.0,0.0,0.0,0.1,0.0,0.0,0.0,0.1
1446038188484205769,237,1446038188481070995,robocape,8.69462222947,9.41811637144,12.0891163696,0.0,10.0,0.0,0.0,0.0,10.0,0.0,0.0,0.0,10.0,0.427836829121,-0.00173105470855,0.0474042674034,1.0,0.0,0.0,0.0,1.0,0.0,0.0,0.0,1.0,0.102985839844,1.84057250977,9.94771362305,0.1,0.0,0.0,0.0,0.1,0.0,0.0,0.0,0.1
1446038188517533894,238,1446038188514440059,robocape,9.21998767665,9.38952815409,12.1671485808,0.0,10.0,0.0,0.0,0.0,10.0,0.0,0.0,0.0,10.0,0.277501385586,0.00292947719909,0.0548611184556,1.0,0.0,0.0,0.0,1.0,0.0,0.0,0.0,1.0,0.176033935547,2.54590576172,9.93334350586,0.1,0.0,0.0,0.0,0.1,0.0,0.0,0.0,0.1
1446038188551125811,239,1446038188547749996,robocape,9.337858668,9.36689227014,12.2673671545,0.0,10.0,0.0,0.0,0.0,10.0,0.0,0.0,0.0,10.0,0.0615190211808,0.00705737688871,0.0645816564344,1.0,0.0,0.0,0.0,1.0,0.0,0.0,0.0,1.0,0.150886230469,2.529140625,9.9980090332,0.1,0.0,0.0,0.0,0.1,0.0,0.0,0.0,0.1
1446038188585035769,240,1446038188581362009,robocape,9.15407540873,9.3713227415,12.2992477856,0.0,10.0,0.0,0.0,0.0,10.0,0.0,0.0,0.0,10.0,-0.0917458995532,0.0141147537774,0.0260989786828,1.0,0.0,0.0,0.0,1.0,0.0,0.0,0.0,1.0,0.130528564453,2.22377563477,9.99441650391,0.1,0.0,0.0,0.0,0.1,0.0,0.0,0.0,0.1
1446038188617707353,241,1446038188614363908,robocape,8.74281120876,9.38702840767,12.3191516997,0.0,10.0,0.0,0.0,0.0,10.0,0.0,0.0,0.0,10.0,-0.21078920028,0.0181094954125,0.018242653467,1.0,0.0,0.0,0.0,1.0,0.0,0.0,0.0,1.0,0.101788330078,1.81063476563,10.0051940918,0.1,0.0,0.0,0.0,0.1,0.0,0.0,0.0,0.1
1446038188651033353,242,1446038188647665023,robocape,8.19119642643,9.40336839473,12.3544958279,0.0,10.0,0.0,0.0,0.0,10.0,0.0,0.0,0.0,10.0,-0.286289817184,0.0191747598486,0.0258326625738,1.0,0.0,0.0,0.0,1.0,0.0,0.0,0.0,1.0,0.0383203125,1.10170898438,10.0327368164,0.1,0.0,0.0,0.0,0.1,0.0,0.0,0.0,0.1
1446038188686264603,243,1446038188683227062,robocape,7.68611740606,9.41358010382,12.391325924,0.0,10.0,0.0,0.0,0.0,10.0,0.0,0.0,0.0,10.0,-0.262321367373,0.016112124595,0.0274305592278,1.0,0.0,0.0,0.0,1.0,0.0,0.0,0.0,1.0,0.0802331542969,0.387993164063,10.0890197754,0.1,0.0,0.0,0.0,0.1,0.0,0.0,0.0,0.1
1446038188718387853,244,1446038188714381933,robocape,7.31871812344,9.4180408185,12.4218595264,0.0,10.0,0.0,0.0,0.0,10.0,0.0,0.0,0.0,10.0,-0.189750227668,0.0129163312869,0.0251668723012,1.0,0.0,0.0,0.0,1.0,0.0,0.0,0.0,1.0,-0.147293701172,0.168848876953,10.1500927734,0.1,0.0,0.0,0.0,0.1,0.0,0.0,0.0,0.1
1446038188751136561,245,1446038188747930049,robocape,7.31951163638,9.44543615271,12.2623981502,0.0,10.0,0.0,0.0,0.0,10.0,0.0,0.0,0.0,10.0,0.0194410759576,0.0123836990689,-0.0736364041407,1.0,0.0,0.0,0.0,1.0,0.0,0.0,0.0,1.0,-0.0251477050781,-0.774788818359,10.1632653809,0.1,0.0,0.0,0.0,0.1,0.0,0.0,0.0,0.1
1446038188787508978,246,1446038188784451007,robocape,7.67768289118,9.51114533216,11.7961147294,0.0,10.0,0.0,0.0,0.0,10.0,0.0,0.0,0.0,10.0,0.233159753436,0.0109189604693,-0.234225017872,1.0,0.0,0.0,0.0,1.0,0.0,0.0,0.0,1.0,0.00838256835938,0.529299316406,9.96567626953,0.1,0.0,0.0,0.0,0.1,0.0,0.0,0.0,0.1
1446038188817294895,247,1446038188814188003,robocape,8.10892972324,9.58139259748,11.1852476254,0.0,10.0,0.0,0.0,0.0,10.0,0.0,0.0,0.0,10.0,0.28442560442,0.00106526443603,-0.309326160613,1.0,0.0,0.0,0.0,1.0,0.0,0.0,0.0,1.0,-0.147293701172,1.17715209961,10.060279541,0.1,0.0,0.0,0.0,0.1,0.0,0.0,0.0,0.1
1446038188850768020,248,1446038188847461938,robocape,8.3440926048,9.66278170304,10.4986278007,0.0,10.0,0.0,0.0,0.0,10.0,0.0,0.0,0.0,10.0,0.188551805178,-0.00119842249054,-0.349939367236,1.0,0.0,0.0,0.0,1.0,0.0,0.0,0.0,1.0,0.130528564453,2.08366699219,10.0890197754,0.1,0.0,0.0,0.0,0.1,0.0,0.0,0.0,0.1
1446038188885141561,249,1446038188881742954,robocape,8.16348635589,9.7245457784,9.96556695844,0.0,10.0,0.0,0.0,0.0,10.0,0.0,0.0,0.0,10.0,-0.0427437354958,-0.00066579027252,-0.270843482861,1.0,0.0,0.0,0.0,1.0,0.0,0.0,0.0,1.0,0.0526904296875,3.16382080078,9.89502319336,0.1,0.0,0.0,0.0,0.1,0.0,0.0,0.0,0.1
1446038188918830603,250,1446038188915473937,robocape,7.36573262076,9.75935571761,9.69968124332,0.0,10.0,0.0,0.0,0.0,10.0,0.0,0.0,0.0,10.0,-0.390419415806,0.00545948023466,-0.133291212558,1.0,0.0,0.0,0.0,1.0,0.0,0.0,0.0,1.0,0.28740234375,2.18904785156,9.93214599609,0.1,0.0,0.0,0.0,0.1,0.0,0.0,0.0,0.1
1446038188951351270,251,1446038188948075056,robocape,6.26769818812,9.72763680057,9.6748604358,0.0,10.0,0.0,0.0,0.0,10.0,0.0,0.0,0.0,10.0,-0.569650157168,-0.0121173829599,-0.00559263828917,1.0,0.0,0.0,0.0,1.0,0.0,0.0,0.0,1.0,-0.273032226563,1.18553466797,9.99441650391,0.1,0.0,0.0,0.0,0.1,0.0,0.0,0.0,0.1
1446038188989058895,252,1446038188985943078,robocape,5.1653472533,9.67738814562,9.7133270057,0.0,10.0,0.0,0.0,0.0,10.0,0.0,0.0,0.0,10.0,-0.577905956547,-0.0178431793035,0.0280963495003,1.0,0.0,0.0,0.0,1.0,0.0,0.0,0.0,1.0,-0.0634680175781,-0.0610729980469,9.94292358398,0.1,0.0,0.0,0.0,0.1,0.0,0.0,0.0,0.1
1446038189017976645,253,1446038189014724969,robocape,4.14591094321,9.62647550551,9.7668551973,0.0,10.0,0.0,0.0,0.0,10.0,0.0,0.0,0.0,10.0,-0.536227485487,-0.01744370514,0.0360858327706,1.0,0.0,0.0,0.0,1.0,0.0,0.0,0.0,1.0,0.009580078125,-0.380808105469,10.1345251465,0.1,0.0,0.0,0.0,0.1,0.0,0.0,0.0,0.1
1446038189051069228,254,1446038189048017978,robocape,3.34212413422,9.56432728241,9.90854254929,0.0,10.0,0.0,0.0,0.0,10.0,0.0,0.0,0.0,10.0,-0.431298938538,-0.0199737081756,0.0825579937925,1.0,0.0,0.0,0.0,1.0,0.0,0.0,0.0,1.0,-0.076640625,-0.413140869141,10.2099682617,0.1,0.0,0.0,0.0,0.1,0.0,0.0,0.0,0.1
1446038189084713395,255,1446038189081428050,robocape,3.09433356734,9.54805691699,9.92953117784,0.0,10.0,0.0,0.0,0.0,10.0,0.0,0.0,0.0,10.0,-0.129695945087,0.000266316109008,0.0193079179031,1.0,0.0,0.0,0.0,1.0,0.0,0.0,0.0,1.0,0.130528564453,-1.28253295898,10.1249450684,0.1,0.0,0.0,0.0,0.1,0.0,0.0,0.0,0.1
1446038189117592145,256,1446038189114523887,robocape,3.07883729154,9.53293771172,10.1574202974,0.0,10.0,0.0,0.0,0.0,10.0,0.0,0.0,0.0,10.0,-0.0258326625738,0.00759000910673,0.127165942051,1.0,0.0,0.0,0.0,1.0,0.0,0.0,0.0,1.0,0.152083740234,-1.52323242188,10.1081799316,0.1,0.0,0.0,0.0,0.1,0.0,0.0,0.0,0.1
1446038189150880436,257,1446038189147778034,robocape,3.55216386697,9.54673709097,10.4419405741,0.0,10.0,0.0,0.0,0.0,10.0,0.0,0.0,0.0,10.0,0.225836060439,0.0256995045193,0.156593872097,1.0,0.0,0.0,0.0,1.0,0.0,0.0,0.0,1.0,0.282612304688,-1.58071289063,10.0506994629,0.1,0.0,0.0,0.0,0.1,0.0,0.0,0.0,0.1
1446038189184101603,258,1446038189181029081,robocape,4.52806698038,9.59112624686,10.605625549,0.0,10.0,0.0,0.0,0.0,10.0,0.0,0.0,0.0,10.0,0.50054112688,0.0395479421877,0.0934769542618,1.0,0.0,0.0,0.0,1.0,0.0,0.0,0.0,1.0,0.123343505859,-0.968785400391,10.0890197754,0.1,0.0,0.0,0.0,0.1,0.0,0.0,0.0,0.1
1446038189217462811,259,1446038189214397907,robocape,5.79654080032,9.63958830567,10.5751129476,0.0,10.0,0.0,0.0,0.0,10.0,0.0,0.0,0.0,10.0,0.672048701081,0.0344879361165,-0.00719053494321,1.0,0.0,0.0,0.0,1.0,0.0,0.0,0.0,1.0,-0.264649658203,-0.449066162109,10.0004040527,0.1,0.0,0.0,0.0,0.1,0.0,0.0,0.0,0.1
1446038189250552936,260,1446038189247500896,robocape,7.31375599374,9.68235903797,10.4060300245,0.0,10.0,0.0,0.0,0.0,10.0,0.0,0.0,0.0,10.0,0.816525190218,0.0237021337017,-0.0781637779938,1.0,0.0,0.0,0.0,1.0,0.0,0.0,0.0,1.0,-0.122145996094,1.01429077148,10.0207617188,0.1,0.0,0.0,0.0,0.1,0.0,0.0,0.0,0.1
1446038189284142061,261,1446038189281059026,robocape,8.36907904949,9.6747659733,10.3523933753,0.0,10.0,0.0,0.0,0.0,10.0,0.0,0.0,0.0,10.0,0.565788573587,0.00399474163512,-0.015845808486,1.0,0.0,0.0,0.0,1.0,0.0,0.0,0.0,1.0,-0.299377441406,2.7626550293,9.8135925293,0.1,0.0,0.0,0.0,0.1,0.0,0.0,0.0,0.1
1446038189317503061,262,1446038189314327955,robocape,8.87031694445,9.6726805824,10.364309634,0.0,10.0,0.0,0.0,0.0,10.0,0.0,0.0,0.0,10.0,0.269778218425,0.0107858024148,0.016378440704,1.0,0.0,0.0,0.0,1.0,0.0,0.0,0.0,1.0,0.380808105469,3.37697753906,9.87825805664,0.1,0.0,0.0,0.0,0.1,0.0,0.0,0.0,0.1
1446038189350849020,263,1446038189347594976,robocape,8.6065568127,9.66039526581,10.572308646,0.0,10.0,0.0,0.0,0.0,10.0,0.0,0.0,0.0,10.0,-0.149536495208,0.0193079179031,0.115847507418,1.0,0.0,0.0,0.0,1.0,0.0,0.0,0.0,1.0,0.124541015625,3.55181396484,9.87586303711,0.1,0.0,0.0,0.0,0.1,0.0,0.0,0.0,0.1
1446038189384447603,264,1446038189381329059,robocape,7.73664091211,9.62331513952,11.0649119803,0.0,10.0,0.0,0.0,0.0,10.0,0.0,0.0,0.0,10.0,-0.493217433883,0.0254331884103,0.262853999591,1.0,0.0,0.0,0.0,1.0,0.0,0.0,0.0,1.0,0.0922082519531,1.7244140625,9.98004638672,0.1,0.0,0.0,0.0,0.1,0.0,0.0,0.0,0.1
1446038189417694353,265,1446038189414340019,robocape,6.88512633682,9.57730695462,11.3824088898,0.0,10.0,0.0,0.0,0.0,10.0,0.0,0.0,0.0,10.0,-0.468982667963,0.00506000607115,0.174037577237,1.0,0.0,0.0,0.0,1.0,0.0,0.0,0.0,1.0,-0.150886230469,0.028740234375,10.2602636719,0.1,0.0,0.0,0.0,0.1,0.0,0.0,0.0,0.1
1446038189450870478,266,1446038189447560071,robocape,6.44730032486,9.56280865335,11.4840391073,0.0,10.0,0.0,0.0,0.0,10.0,0.0,0.0,0.0,10.0,-0.2335592276,0.00705737688871,0.0620516533988,1.0,0.0,0.0,0.0,1.0,0.0,0.0,0.0,1.0,-0.269439697266,-0.251477050781,10.1081799316,0.1,0.0,0.0,0.0,0.1,0.0,0.0,0.0,0.1
1446038189484674353,267,1446038189481523036,robocape,6.30720634009,9.55852883433,11.4944011005,0.0,10.0,0.0,0.0,0.0,10.0,0.0,0.0,0.0,10.0,-0.0696416625056,0.00719053494321,0.0150468601589,1.0,0.0,0.0,0.0,1.0,0.0,0.0,0.0,1.0,0.132923583984,-0.293389892578,10.055489502,0.1,0.0,0.0,0.0,0.1,0.0,0.0,0.0,0.1
1446038189517617312,268,1446038189514525890,robocape,6.42213463329,9.56257109687,11.4857093317,0.0,10.0,0.0,0.0,0.0,10.0,0.0,0.0,0.0,10.0,0.0659132369795,0.0109189604693,0.00532632218016,1.0,0.0,0.0,0.0,1.0,0.0,0.0,0.0,1.0,-0.0239501953125,-0.0898132324219,10.0375268555,0.1,0.0,0.0,0.0,0.1,0.0,0.0,0.0,0.1
1446038189550954145,269,1446038189547477006,robocape,6.72286621535,9.56724238008,11.4526254711,0.0,10.0,0.0,0.0,0.0,10.0,0.0,0.0,0.0,10.0,0.165781777857,0.0101200121423,-0.00692421883421,1.0,0.0,0.0,0.0,1.0,0.0,0.0,0.0,1.0,0.00718505859375,0.136516113281,10.0566870117,0.1,0.0,0.0,0.0,0.1,0.0,0.0,0.0,0.1
1446038189585256437,270,1446038189582114934,robocape,7.13396411996,9.57058966033,11.434265849,0.0,10.0,0.0,0.0,0.0,10.0,0.0,0.0,0.0,10.0,0.22290658324,0.0106526443603,0.00106526443603,1.0,0.0,0.0,0.0,1.0,0.0,0.0,0.0,1.0,-0.00838256835938,0.535286865234,10.0566870117,0.1,0.0,0.0,0.0,0.1,0.0,0.0,0.0,0.1
1446038189617371728,271,1446038189614321947,robocape,7.53222808526,9.56988792029,11.3981479645,0.0,10.0,0.0,0.0,0.0,10.0,0.0,0.0,0.0,10.0,0.218112893277,0.00732369299772,-0.00785632521573,1.0,0.0,0.0,0.0,1.0,0.0,0.0,0.0,1.0,-0.0790356445313,0.856219482422,10.096204834,0.1,0.0,0.0,0.0,0.1,0.0,0.0,0.0,0.1
1446038189650908478,272,1446038189647851943,robocape,7.91482821173,9.58377164073,11.2179101305,0.0,10.0,0.0,0.0,0.0,10.0,0.0,0.0,0.0,10.0,0.222507109076,0.00426105774413,-0.0833569421195,1.0,0.0,0.0,0.0,1.0,0.0,0.0,0.0,1.0,-0.0443078613281,1.52083740234,10.0027990723,0.1,0.0,0.0,0.0,0.1,0.0,0.0,0.0,0.1
1446038189684254520,273,1446038189681195974,robocape,8.05942337053,9.60021830394,11.0871920728,0.0,10.0,0.0,0.0,0.0,10.0,0.0,0.0,0.0,10.0,0.0934769542618,0.00838895743375,-0.0587227020362,1.0,0.0,0.0,0.0,1.0,0.0,0.0,0.0,1.0,0.208366699219,1.92320068359,10.0099841309,0.1,0.0,0.0,0.0,0.1,0.0,0.0,0.0,0.1
1446038189717361103,274,1446038189714247941,robocape,7.92203935478,9.61511876305,11.0230710658,0.0,10.0,0.0,0.0,0.0,10.0,0.0,0.0,0.0,10.0,-0.0604537567448,0.0118510668509,-0.0251668723012,1.0,0.0,0.0,0.0,1.0,0.0,0.0,0.0,1.0,0.028740234375,1.81542480469,10.0171691895,0.1,0.0,0.0,0.0,0.1,0.0,0.0,0.0,0.1
1446038189750569353,275,1446038189747522115,robocape,7.57411032651,9.6281005221,10.980838784,0.0,10.0,0.0,0.0,0.0,10.0,0.0,0.0,0.0,10.0,-0.17323862891,0.0119842249054,-0.0143810698864,1.0,0.0,0.0,0.0,1.0,0.0,0.0,0.0,1.0,0.104183349609,1.40946899414,9.99441650391,0.1,0.0,0.0,0.0,0.1,0.0,0.0,0.0,0.1
1446038189788506728,276,1446038189784584045,robocape,7.09605928098,9.6352178526,10.9681412986,0.0,10.0,0.0,0.0,0.0,10.0,0.0,0.0,0.0,10.0,-0.244478188069,0.0107858024148,0.000932106381528,1.0,0.0,0.0,0.0,1.0,0.0,0.0,0.0,1.0,-0.028740234375,1.00231567383,9.98363891602,0.1,0.0,0.0,0.0,0.1,0.0,0.0,0.0,0.1
1446038189820068437,277,1446038189816730976,robocape,6.68149346147,9.63530271823,10.9492568564,0.0,10.0,0.0,0.0,0.0,10.0,0.0,0.0,0.0,10.0,-0.210922358334,0.00692421883421,-0.00159789665405,1.0,0.0,0.0,0.0,1.0,0.0,0.0,0.0,1.0,-0.0946032714844,0.186811523438,10.0902172852,0.1,0.0,0.0,0.0,0.1,0.0,0.0,0.0,0.1
1446038189854915020,278,1446038189851430892,robocape,6.41664598572,9.63422479763,10.9377069714,0.0,10.0,0.0,0.0,0.0,10.0,0.0,0.0,0.0,10.0,-0.133158054504,0.00719053494321,0.00266316109008,1.0,0.0,0.0,0.0,1.0,0.0,0.0,0.0,1.0,0.0802331542969,-0.0107775878906,10.0423168945,0.1,0.0,0.0,0.0,0.1,0.0,0.0,0.0,0.1
1446038189887254895,279,1446038189884181976,robocape,6.36082031159,9.63430396777,10.9237935806,0.0,10.0,0.0,0.0,0.0,10.0,0.0,0.0,0.0,10.0,-0.0233026595382,0.00812264132474,0.00186421276306,1.0,0.0,0.0,0.0,1.0,0.0,0.0,0.0,1.0,0.00239501953125,-0.234711914063,10.0614770508,0.1,0.0,0.0,0.0,0.1,0.0,0.0,0.0,0.1
1446038189920140645,280,1446038189916822910,robocape,6.52398468977,9.63118804388,10.9677099764,0.0,10.0,0.0,0.0,0.0,10.0,0.0,0.0,0.0,10.0,0.0868190515366,0.0105194863058,0.032490565299,1.0,0.0,0.0,0.0,1.0,0.0,0.0,0.0,1.0,0.0263452148438,-0.0610729980469,10.1069824219,0.1,0.0,0.0,0.0,0.1,0.0,0.0,0.0,0.1
1446038189953093853,281,1446038189949810981,robocape,6.84644134882,9.63857450736,10.9327867876,0.0,10.0,0.0,0.0,0.0,10.0,0.0,0.0,0.0,10.0,0.177499686654,0.0114515926873,-0.00852211548825,1.0,0.0,0.0,0.0,1.0,0.0,0.0,0.0,1.0,-0.0155676269531,0.225131835938,10.0902172852,0.1,0.0,0.0,0.0,0.1,0.0,0.0,0.0,0.1
1446038189986849937,282,1446038189983644008,robocape,7.27129190461,9.64629320534,10.8840462467,0.0,10.0,0.0,0.0,0.0,10.0,0.0,0.0,0.0,10.0,0.232893437327,0.0109189604693,-0.0154463343225,1.0,0.0,0.0,0.0,1.0,0.0,0.0,0.0,1.0,0.0323327636719,0.668210449219,10.0686621094,0.1,0.0,0.0,0.0,0.1,0.0,0.0,0.0,0.1
1446038190019576270,283,1446038190016489982,robocape,7.74628578361,9.67367355831,10.5981513366,0.0,10.0,0.0,0.0,0.0,10.0,0.0,0.0,0.0,10.0,0.280031388622,0.00426105774413,-0.139150166957,1.0,0.0,0.0,0.0,1.0,0.0,0.0,0.0,1.0,-0.155676269531,1.27894042969,10.0459094238,0.1,0.0,0.0,0.0,0.1,0.0,0.0,0.0,0.1
1446038190051344854,284,1446038190048300981,robocape,8.06596096906,9.71909441601,10.1736999901,0.0,10.0,0.0,0.0,0.0,10.0,0.0,0.0,0.0,10.0,0.21078920028,0.00199737081756,-0.212387096934,1.0,0.0,0.0,0.0,1.0,0.0,0.0,0.0,1.0,0.0802331542969,1.94355834961,10.1045874023,0.1,0.0,0.0,0.0,0.1,0.0,0.0,0.0,0.1
1446038190085025604,285,1446038190081859111,robocape,8.13060756645,9.76444632615,9.78121884499,0.0,10.0,0.0,0.0,0.0,10.0,0.0,0.0,0.0,10.0,0.0743021944132,0.00306263525359,-0.196807604557,1.0,0.0,0.0,0.0,1.0,0.0,0.0,0.0,1.0,0.0754431152344,2.59021362305,9.94891113281,0.1,0.0,0.0,0.0,0.1,0.0,0.0,0.0,0.1
1446038190118249770,286,1446038190115097045,robocape,7.70015387577,9.78763223599,9.54882464639,0.0,10.0,0.0,0.0,0.0,10.0,0.0,0.0,0.0,10.0,-0.200003397865,0.00266316109008,-0.114382768819,1.0,0.0,0.0,0.0,1.0,0.0,0.0,0.0,1.0,0.202379150391,2.32077392578,9.93693603516,0.1,0.0,0.0,0.0,0.1,0.0,0.0,0.0,0.1
1446038190151190770,287,1446038190148128986,robocape,6.87135467704,9.79691177521,9.43052275949,0.0,10.0,0.0,0.0,0.0,10.0,0.0,0.0,0.0,10.0,-0.419714187796,0.0034621094171,-0.0557932248372,1.0,0.0,0.0,0.0,1.0,0.0,0.0,0.0,1.0,-0.217946777344,1.65376098633,10.1405126953,0.1,0.0,0.0,0.0,0.1,0.0,0.0,0.0,0.1
1446038190184375145,288,1446038190181287050,robocape,5.92616933163,9.75713467258,9.48903439865,0.0,10.0,0.0,0.0,0.0,10.0,0.0,0.0,0.0,10.0,-0.496812701354,-0.0106526443603,0.0380832035881,1.0,0.0,0.0,0.0,1.0,0.0,0.0,0.0,1.0,-0.384400634766,0.579594726562,10.1453027344,0.1,0.0,0.0,0.0,0.1,0.0,0.0,0.0,0.1
1446038190217599645,289,1446038190214536905,robocape,5.08218917173,9.72017062324,9.52103706168,0.0,10.0,0.0,0.0,0.0,10.0,0.0,0.0,0.0,10.0,-0.441818424844,-0.0106526443603,0.0245010820287,1.0,0.0,0.0,0.0,1.0,0.0,0.0,0.0,1.0,0.0335302734375,0.113763427734,9.89502319336,0.1,0.0,0.0,0.0,0.1,0.0,0.0,0.0,0.1
1446038190250937604,290,1446038190247693061,robocape,4.44844355644,9.69209521527,9.53500693826,0.0,10.0,0.0,0.0,0.0,10.0,0.0,0.0,0.0,10.0,-0.330365133224,-0.00652474467069,0.0151800182135,1.0,0.0,0.0,0.0,1.0,0.0,0.0,0.0,1.0,0.198786621094,-0.263452148438,10.055489502,0.1,0.0,0.0,0.0,0.1,0.0,0.0,0.0,0.1
1446038190283961895,291,1446038190280910015,robocape,3.97566035012,9.6681569123,9.59369300897,0.0,10.0,0.0,0.0,0.0,10.0,0.0,0.0,0.0,10.0,-0.250203984413,-0.00226368692657,0.0384826777516,1.0,0.0,0.0,0.0,1.0,0.0,0.0,0.0,1.0,0.257464599609,-0.401165771484,10.0590820312,0.1,0.0,0.0,0.0,0.1,0.0,0.0,0.0,0.1
1446038190317551604,292,1446038190314393043,robocape,3.69989827816,9.6574964471,9.58949603322,0.0,10.0,0.0,0.0,0.0,10.0,0.0,0.0,0.0,10.0,-0.141680169992,0.00239684498107,0.00572579634367,1.0,0.0,0.0,0.0,1.0,0.0,0.0,0.0,1.0,-0.2682421875,-0.825084228516,9.96807128906,0.1,0.0,0.0,0.0,0.1,0.0,0.0,0.0,0.1
1446038190350562229,293,1446038190347423076,robocape,3.60670322615,9.64312499259,9.65851287457,0.0,10.0,0.0,0.0,0.0,10.0,0.0,0.0,0.0,10.0,-0.0524642734746,0.0033289513626,0.0440753160408,1.0,0.0,0.0,0.0,1.0,0.0,0.0,0.0,1.0,0.221539306641,-0.807121582031,10.1165625,0.1,0.0,0.0,0.0,0.1,0.0,0.0,0.0,0.1
1446038190383909354,294,1446038190380754947,robocape,3.7504170871,9.64934047335,9.76166515313,0.0,10.0,0.0,0.0,0.0,10.0,0.0,0.0,0.0,10.0,0.0688427141785,0.0157126504315,0.0615190211808,1.0,0.0,0.0,0.0,1.0,0.0,0.0,0.0,1.0,0.220341796875,-0.760418701172,10.1896105957,0.1,0.0,0.0,0.0,0.1,0.0,0.0,0.0,0.1
1446038190417605062,295,1446038190414479017,robocape,4.08511132674,9.65579193634,9.99188744889,0.0,10.0,0.0,0.0,0.0,10.0,0.0,0.0,0.0,10.0,0.158191768751,0.0213052887206,0.127831732324,1.0,0.0,0.0,0.0,1.0,0.0,0.0,0.0,1.0,-0.0910107421875,0.107775878906,10.0854272461,0.1,0.0,0.0,0.0,0.1,0.0,0.0,0.0,0.1
1446038190450916562,296,1446038190447805881,robocape,4.37690892047,9.64166575012,10.4686531966,0.0,10.0,0.0,0.0,0.0,10.0,0.0,0.0,0.0,10.0,0.114649084928,0.0215716048296,0.256861887138,1.0,0.0,0.0,0.0,1.0,0.0,0.0,0.0,1.0,0.0203576660156,-0.228724365234,9.97405883789,0.1,0.0,0.0,0.0,0.1,0.0,0.0,0.0,0.1
1446038190484638479,297,1446038190481539964,robocape,4.84228232033,9.62081463451,10.9419290269,0.0,10.0,0.0,0.0,0.0,10.0,0.0,0.0,0.0,10.0,0.206528142536,0.0199737081756,0.256196096866,1.0,0.0,0.0,0.0,1.0,0.0,0.0,0.0,1.0,0.0886157226563,-0.74724609375,10.0674645996,0.1,0.0,0.0,0.0,0.1,0.0,0.0,0.0,0.1
1446038190517856187,298,1446038190514779090,robocape,5.68046373789,9.61460708041,11.2182271105,0.0,10.0,0.0,0.0,0.0,10.0,0.0,0.0,0.0,10.0,0.419980503905,0.0211721306661,0.154463343225,1.0,0.0,0.0,0.0,1.0,0.0,0.0,0.0,1.0,-0.0323327636719,-0.499361572266,10.1081799316,0.1,0.0,0.0,0.0,0.1,0.0,0.0,0.0,0.1
1446038190550953062,299,1446038190547593116,robocape,6.97206492516,9.62948751357,11.1794590468,0.0,10.0,0.0,0.0,0.0,10.0,0.0,0.0,0.0,10.0,0.686429770968,0.016911072922,-0.00878843159726,1.0,0.0,0.0,0.0,1.0,0.0,0.0,0.0,1.0,-0.143701171875,0.0275427246094,10.1884130859,0.1,0.0,0.0,0.0,0.1,0.0,0.0,0.0,0.1
1446038190585325895,300,1446038190582165002,robocape,8.29854864926,9.68909186502,11.0167702995,0.0,10.0,0.0,0.0,0.0,10.0,0.0,0.0,0.0,10.0,0.717455597667,0.0318247750264,-0.0752343007947,1.0,0.0,0.0,0.0,1.0,0.0,0.0,0.0,1.0,-0.570014648438,1.81781982422,10.0686621094,0.1,0.0,0.0,0.0,0.1,0.0,0.0,0.0,0.1
1446038190618772895,301,1446038190615631103,robocape,9.16426711285,9.69255714489,10.9318363768,0.0,10.0,0.0,0.0,0.0,10.0,0.0,0.0,0.0,10.0,0.470047932399,0.00692421883421,-0.0320910911355,1.0,0.0,0.0,0.0,1.0,0.0,0.0,0.0,1.0,0.262254638672,2.59620117188,9.85909790039,0.1,0.0,0.0,0.0,0.1,0.0,0.0,0.0,0.1
1446038190651210520,302,1446038190648072004,robocape,9.56186869874,9.6949925996,10.9178374932,0.0,10.0,0.0,0.0,0.0,10.0,0.0,0.0,0.0,10.0,0.218379209386,0.0110521185238,0.0031957933081,1.0,0.0,0.0,0.0,1.0,0.0,0.0,0.0,1.0,0.328117675781,2.94347900391,9.88783813477,0.1,0.0,0.0,0.0,0.1,0.0,0.0,0.0,0.1
1446038190684664479,303,1446038190681194067,robocape,9.21809846649,9.67441352875,11.1177190265,0.0,10.0,0.0,0.0,0.0,10.0,0.0,0.0,0.0,10.0,-0.190416017941,0.0154463343225,0.112518556056,1.0,0.0,0.0,0.0,1.0,0.0,0.0,0.0,1.0,0.105380859375,3.72784790039,9.7752722168,0.1,0.0,0.0,0.0,0.1,0.0,0.0,0.0,0.1
1446038190717324479,304,1446038190714248895,robocape,8.43020780656,9.64223977556,11.5144264707,0.0,10.0,0.0,0.0,0.0,10.0,0.0,0.0,0.0,10.0,-0.441418950681,0.0233026595382,0.213585519424,1.0,0.0,0.0,0.0,1.0,0.0,0.0,0.0,1.0,0.296982421875,1.38791381836,9.97765136719,0.1,0.0,0.0,0.0,0.1,0.0,0.0,0.0,0.1
1446038190750778479,305,1446038190747385025,robocape,7.72033479449,9.61288812101,11.8340051872,0.0,10.0,0.0,0.0,0.0,10.0,0.0,0.0,0.0,10.0,-0.394147841332,0.016644756813,0.174703367509,1.0,0.0,0.0,0.0,1.0,0.0,0.0,0.0,1.0,-0.0407153320313,0.204774169922,10.1129699707,0.1,0.0,0.0,0.0,0.1,0.0,0.0,0.0,0.1
1446038190783896771,306,1446038190780822992,robocape,7.3931815786,9.608530555,11.9108815148,0.0,10.0,0.0,0.0,0.0,10.0,0.0,0.0,0.0,10.0,-0.172572838637,0.0118510668509,0.0492684801665,1.0,0.0,0.0,0.0,1.0,0.0,0.0,0.0,1.0,0.0981958007813,-0.116158447266,10.0423168945,0.1,0.0,0.0,0.0,0.1,0.0,0.0,0.0,0.1
1446038190817507146,307,1446038190814364910,robocape,7.32910165155,9.60371866355,11.9080791292,0.0,10.0,0.0,0.0,0.0,10.0,0.0,0.0,0.0,10.0,-0.0276968753368,0.00652474467069,0.00892158965177,1.0,0.0,0.0,0.0,1.0,0.0,0.0,0.0,1.0,-0.245489501953,-0.00838256835938,10.1632653809,0.1,0.0,0.0,0.0,0.1,0.0,0.0,0.0,0.1
1446038190850862854,308,1446038190847415924,robocape,7.48675310229,9.6085438899,11.9049790648,0.0,10.0,0.0,0.0,0.0,10.0,0.0,0.0,0.0,10.0,0.0889495804086,0.0121173829599,0.00878843159726,1.0,0.0,0.0,0.0,1.0,0.0,0.0,0.0,1.0,-0.255069580078,0.211959228516,10.0818347168,0.1,0.0,0.0,0.0,0.1,0.0,0.0,0.0,0.1
1446038190885030979,309,1446038190881680965,robocape,7.82113040103,9.6049283308,11.8807693762,0.0,10.0,0.0,0.0,0.0,10.0,0.0,0.0,0.0,10.0,0.18389127327,0.0066579027252,-0.00106526443603,1.0,0.0,0.0,0.0,1.0,0.0,0.0,0.0,1.0,0.171243896484,0.324525146484,10.0099841309,0.1,0.0,0.0,0.0,0.1,0.0,0.0,0.0,0.1
1446038190917680437,310,1446038190914366006,robocape,8.26670668455,9.59453256049,11.863638987,0.0,10.0,0.0,0.0,0.0,10.0,0.0,0.0,0.0,10.0,0.242214501143,0.00399474163512,0.0034621094171,1.0,0.0,0.0,0.0,1.0,0.0,0.0,0.0,1.0,-0.106578369141,0.78556640625,10.0351318359,0.1,0.0,0.0,0.0,0.1,0.0,0.0,0.0,0.1
1446038190951296271,311,1446038190947556972,robocape,8.70368720754,9.57845181412,11.8576150327,0.0,10.0,0.0,0.0,0.0,10.0,0.0,0.0,0.0,10.0,0.237287653126,0.00199737081756,0.00972053797879,1.0,0.0,0.0,0.0,1.0,0.0,0.0,0.0,1.0,0.0694555664063,1.05740112305,10.0375268555,0.1,0.0,0.0,0.0,0.1,0.0,0.0,0.0,0.1
1446038190984611812,312,1446038190981102943,robocape,9.09889884654,9.55901868183,11.8941547577,0.0,10.0,0.0,0.0,0.0,10.0,0.0,0.0,0.0,10.0,0.212253938879,0.00386158358061,0.031957933081,1.0,0.0,0.0,0.0,1.0,0.0,0.0,0.0,1.0,0.0981958007813,1.48610961914,10.0099841309,0.1,0.0,0.0,0.0,0.1,0.0,0.0,0.0,0.1
1446038191017848312,313,1446038191014400959,robocape,9.36043261532,9.54319101071,11.9267049603,0.0,10.0,0.0,0.0,0.0,10.0,0.0,0.0,0.0,10.0,0.142612276374,0.00519316412565,0.0292947719909,1.0,0.0,0.0,0.0,1.0,0.0,0.0,0.0,1.0,0.0502954101563,1.70884643555,10.0255517578,0.1,0.0,0.0,0.0,0.1,0.0,0.0,0.0,0.1
1446038191051011521,314,1446038191047461032,robocape,9.41871564758,9.53585132537,11.9520774739,0.0,10.0,0.0,0.0,0.0,10.0,0.0,0.0,0.0,10.0,0.0363521488796,0.00838895743375,0.0242347659197,1.0,0.0,0.0,0.0,1.0,0.0,0.0,0.0,1.0,0.130528564453,1.77351196289,10.0135766602,0.1,0.0,0.0,0.0,0.1,0.0,0.0,0.0,0.1
1446038191083968646,315,1446038191080677986,robocape,9.43663622255,9.54790216624,11.892649203,0.0,10.0,0.0,0.0,0.0,10.0,0.0,0.0,0.0,10.0,0.0222373951022,0.0107858024148,-0.0211721306661,1.0,0.0,0.0,0.0,1.0,0.0,0.0,0.0,1.0,0.0431103515625,1.10051147461,10.1225500488,0.1,0.0,0.0,0.0,0.1,0.0,0.0,0.0,0.1
1446038191117381562,316,1446038191114168882,robocape,9.43437860093,9.56910139456,11.7524815651,0.0,10.0,0.0,0.0,0.0,10.0,0.0,0.0,0.0,10.0,0.0183758115215,0.00825579937925,-0.0636495500529,1.0,0.0,0.0,0.0,1.0,0.0,0.0,0.0,1.0,0.112565917969,1.59508300781,9.98244140625,0.1,0.0,0.0,0.0,0.1,0.0,0.0,0.0,0.1
1446038191150988354,317,1446038191147583007,robocape,9.29131067584,9.59394193738,11.6420745527,0.0,10.0,0.0,0.0,0.0,10.0,0.0,0.0,0.0,10.0,-0.0583232278727,0.0123836990689,-0.0492684801665,1.0,0.0,0.0,0.0,1.0,0.0,0.0,0.0,1.0,0.0455053710938,1.58670043945,10.0027990723,0.1,0.0,0.0,0.0,0.1,0.0,0.0,0.0,0.1
1446038191184176687,318,1446038191180847883,robocape,9.01777069707,9.6145332314,11.5770608797,0.0,10.0,0.0,0.0,0.0,10.0,0.0,0.0,0.0,10.0,-0.131027525632,0.0138484376684,-0.0260989786828,1.0,0.0,0.0,0.0,1.0,0.0,0.0,0.0,1.0,0.0898132324219,1.2645703125,10.0063916016,0.1,0.0,0.0,0.0,0.1,0.0,0.0,0.0,0.1
1446038191217410812,319,1446038191214323997,robocape,8.72073650403,9.63233201536,11.5379041305,0.0,10.0,0.0,0.0,0.0,10.0,0.0,0.0,0.0,10.0,-0.145808069682,0.0146473859954,-0.0126500151779,1.0,0.0,0.0,0.0,1.0,0.0,0.0,0.0,1.0,0.01916015625,0.997525634766,10.0291442871,0.1,0.0,0.0,0.0,0.1,0.0,0.0,0.0,0.1
1446038191251258812,320,1446038191247761011,robocape,8.46848896359,9.6441416236,11.5259505163,0.0,10.0,0.0,0.0,0.0,10.0,0.0,0.0,0.0,10.0,-0.12476909707,0.0139815957229,0.00199737081756,1.0,0.0,0.0,0.0,1.0,0.0,0.0,0.0,1.0,0.0299377441406,0.591569824219,10.055489502,0.1,0.0,0.0,0.0,0.1,0.0,0.0,0.0,0.1
1446038191285424979,321,1446038191281996965,robocape,8.3604670186,9.65533190629,11.4807123347,0.0,10.0,0.0,0.0,0.0,10.0,0.0,0.0,0.0,10.0,-0.0462058449129,0.0114515926873,-0.0146473859954,1.0,0.0,0.0,0.0,1.0,0.0,0.0,0.0,1.0,-0.0419128417969,0.322130126953,10.0638720703,0.1,0.0,0.0,0.0,0.1,0.0,0.0,0.0,0.1
1446038191318700437,322,1446038191315635919,robocape,8.33809520699,9.65724347769,11.4744807894,0.0,10.0,0.0,0.0,0.0,10.0,0.0,0.0,0.0,10.0,-0.00452737385313,0.0099868540878,0.00639158661619,1.0,0.0,0.0,0.0,1.0,0.0,0.0,0.0,1.0,-0.009580078125,0.376018066406,10.019564209,0.1,0.0,0.0,0.0,0.1,0.0,0.0,0.0,0.1
1446038191352237271,323,1446038191348809003,robocape,8.42995404995,9.6557676306,11.4660512269,0.0,10.0,0.0,0.0,0.0,10.0,0.0,0.0,0.0,10.0,0.0557932248372,0.00838895743375,0.00585895439817,1.0,0.0,0.0,0.0,1.0,0.0,0.0,0.0,1.0,-0.0215551757813,0.628692626953,10.0255517578,0.1,0.0,0.0,0.0,0.1,0.0,0.0,0.0,0.1
1446038191384484604,324,1446038191381073951,robocape,8.57801553247,9.6528625602,11.4513905368,0.0,10.0,0.0,0.0,0.0,10.0,0.0,0.0,0.0,10.0,0.0860201032096,0.00732369299772,0.00292947719909,1.0,0.0,0.0,0.0,1.0,0.0,0.0,0.0,1.0,0.0263452148438,0.965192871094,10.0327368164,0.1,0.0,0.0,0.0,0.1,0.0,0.0,0.0,0.1
1446038191419333354,325,1446038191415712118,robocape,8.70561599377,9.65000289474,11.4386650166,0.0,10.0,0.0,0.0,0.0,10.0,0.0,0.0,0.0,10.0,0.0752343007947,0.00745685105222,0.00386158358061,1.0,0.0,0.0,0.0,1.0,0.0,0.0,0.0,1.0,0.0239501953125,1.22145996094,10.0674645996,0.1,0.0,0.0,0.0,0.1,0.0,0.0,0.0,0.1
1446038191452838854,326,1446038191449073076,robocape,8.75588141058,9.65015140275,11.4322999455,0.0,10.0,0.0,0.0,0.0,10.0,0.0,0.0,0.0,10.0,0.034088461953,0.00932106381528,0.0066579027252,1.0,0.0,0.0,0.0,1.0,0.0,0.0,0.0,1.0,0.0538879394531,1.26217529297,10.0435144043,0.1,0.0,0.0,0.0,0.1,0.0,0.0,0.0,0.1
1446038191486195979,327,1446038191482908010,robocape,8.74121294806,9.65033401526,11.4281754156,0.0,10.0,0.0,0.0,0.0,10.0,0.0,0.0,0.0,10.0,-0.000266316109008,0.00932106381528,0.00759000910673,1.0,0.0,0.0,0.0,1.0,0.0,0.0,0.0,1.0,0.0263452148438,1.37833374023,10.0590820312,0.1,0.0,0.0,0.0,0.1,0.0,0.0,0.0,0.1
1446038191522594146,328,1446038191518968105,robocape,8.67037916701,9.65225028472,11.4298419964,0.0,10.0,0.0,0.0,0.0,10.0,0.0,0.0,0.0,10.0,-0.0303600364269,0.0105194863058,0.0102531701968,1.0,0.0,0.0,0.0,1.0,0.0,0.0,0.0,1.0,0.0419128417969,1.16517700195,10.0339343262,0.1,0.0,0.0,0.0,0.1,0.0,0.0,0.0,0.1
1446038191562109896,329,1446038191552611112,robocape,8.56678088543,9.65519342117,11.4328942472,0.0,10.0,0.0,0.0,0.0,10.0,0.0,0.0,0.0,10.0,-0.0478037415669,0.0110521185238,0.0107858024148,1.0,0.0,0.0,0.0,1.0,0.0,0.0,0.0,1.0,0.0,1.04063598633,10.060279541,0.1,0.0,0.0,0.0,0.1,0.0,0.0,0.0,0.1
1446038191587907146,330,1446038191584757089,robocape,8.46268407494,9.65716822916,11.4489589319,0.0,10.0,0.0,0.0,0.0,10.0,0.0,0.0,0.0,10.0,-0.0492684801665,0.0115847507418,0.0175768631945,1.0,0.0,0.0,0.0,1.0,0.0,0.0,0.0,1.0,0.0227526855469,0.953217773438,10.060279541,0.1,0.0,0.0,0.0,0.1,0.0,0.0,0.0,0.1
1446038191621356604,331,1446038191617804050,robocape,8.19076436635,9.62491408901,11.7209528586,0.0,10.0,0.0,0.0,0.0,10.0,0.0,0.0,0.0,10.0,-0.159523349296,0.0134489635049,0.15166702408,1.0,0.0,0.0,0.0,1.0,0.0,0.0,0.0,1.0,0.156873779297,1.05261108398,9.93573852539,0.1,0.0,0.0,0.0,0.1,0.0,0.0,0.0,0.1
1446038191654098104,332,1446038191650744915,robocape,8.09275911516,9.58954593243,11.9577030015,0.0,10.0,0.0,0.0,0.0,10.0,0.0,0.0,0.0,10.0,-0.0651142886524,0.00918790576077,0.134622793104,1.0,0.0,0.0,0.0,1.0,0.0,0.0,0.0,1.0,-0.0682580566406,-0.0730480957031,10.1644628906,0.1,0.0,0.0,0.0,0.1,0.0,0.0,0.0,0.1
1446038191688421979,333,1446038191685338973,robocape,8.28350556623,9.5697157545,12.0188165457,0.0,10.0,0.0,0.0,0.0,10.0,0.0,0.0,0.0,10.0,0.101732753641,0.00452737385313,0.0439421579863,1.0,0.0,0.0,0.0,1.0,0.0,0.0,0.0,1.0,-0.173638916016,0.168848876953,10.1189575195,0.1,0.0,0.0,0.0,0.1,0.0,0.0,0.0,0.1
1446038191720738229,334,1446038191717600107,robocape,8.6639658576,9.55461388481,12.0232361156,0.0,10.0,0.0,0.0,0.0,10.0,0.0,0.0,0.0,10.0,0.20666130059,0.0031957933081,0.0150468601589,1.0,0.0,0.0,0.0,1.0,0.0,0.0,0.0,1.0,0.05748046875,0.362845458984,10.1021923828,0.1,0.0,0.0,0.0,0.1,0.0,0.0,0.0,0.1
1446038191754498729,335,1446038191750546932,robocape,9.22006750931,9.54969399416,11.9271308633,0.0,10.0,0.0,0.0,0.0,10.0,0.0,0.0,0.0,10.0,0.308127738122,0.00066579027252,-0.0368847810976,1.0,0.0,0.0,0.0,1.0,0.0,0.0,0.0,1.0,-0.107775878906,0.687370605469,10.0926123047,0.1,0.0,0.0,0.0,0.1,0.0,0.0,0.0,0.1
1446038191786536438,336,1446038191783360958,robocape,9.77976719191,9.55490263988,11.7542913408,0.0,10.0,0.0,0.0,0.0,10.0,0.0,0.0,0.0,10.0,0.317182485828,-0.00119842249054,-0.0770985135578,1.0,0.0,0.0,0.0,1.0,0.0,0.0,0.0,1.0,0.161663818359,1.99984130859,9.89382568359,0.1,0.0,0.0,0.0,0.1,0.0,0.0,0.0,0.1
1446038191821715354,337,1446038191818268060,robocape,9.96022349349,9.56461595478,11.6962215812,0.0,10.0,0.0,0.0,0.0,10.0,0.0,0.0,0.0,10.0,0.108257498312,0.0101200121423,-0.0198405501211,1.0,0.0,0.0,0.0,1.0,0.0,0.0,0.0,1.0,0.164058837891,2.51237548828,9.93573852539,0.1,0.0,0.0,0.0,0.1,0.0,0.0,0.0,0.1
1446038191855430354,338,1446038191849823951,robocape,9.72432132836,9.57350825656,11.6948425851,0.0,10.0,0.0,0.0,0.0,10.0,0.0,0.0,0.0,10.0,-0.115980665473,0.0134489635049,0.00772316716123,1.0,0.0,0.0,0.0,1.0,0.0,0.0,0.0,1.0,0.117355957031,2.26209594727,9.99681152344,0.1,0.0,0.0,0.0,0.1,0.0,0.0,0.0,0.1
1446038191888202604,339,1446038191884670972,robocape,9.29182560537,9.58947857263,11.6902999955,0.0,10.0,0.0,0.0,0.0,10.0,0.0,0.0,0.0,10.0,-0.219577631877,0.016112124595,0.00479368996214,1.0,0.0,0.0,0.0,1.0,0.0,0.0,0.0,1.0,0.0467028808594,1.76033935547,10.0423168945,0.1,0.0,0.0,0.0,0.1,0.0,0.0,0.0,0.1
1446038191922349354,340,1446038191919150114,robocape,8.81180786001,9.61697718179,11.6204454313,0.0,10.0,0.0,0.0,0.0,10.0,0.0,0.0,0.0,10.0,-0.239418181998,0.016378440704,-0.0298274042089,1.0,0.0,0.0,0.0,1.0,0.0,0.0,0.0,1.0,0.05748046875,1.06817871094,10.0291442871,0.1,0.0,0.0,0.0,0.1,0.0,0.0,0.0,0.1
1446038191953932521,341,1446038191950457096,robocape,8.38754383437,9.62831993652,11.6654197164,0.0,10.0,0.0,0.0,0.0,10.0,0.0,0.0,0.0,10.0,-0.220110264095,0.0178431793035,0.0308926686449,1.0,0.0,0.0,0.0,1.0,0.0,0.0,0.0,1.0,0.00359252929688,0.487386474609,10.096204834,0.1,0.0,0.0,0.0,0.1,0.0,0.0,0.0,0.1
1446038191988484354,342,1446038191985140085,robocape,8.11580532262,9.63747986445,11.6358538846,0.0,10.0,0.0,0.0,0.0,10.0,0.0,0.0,0.0,10.0,-0.133823844776,0.0111852765783,-0.0067910607797,1.0,0.0,0.0,0.0,1.0,0.0,0.0,0.0,1.0,-0.0754431152344,0.544866943359,10.0255517578,0.1,0.0,0.0,0.0,0.1,0.0,0.0,0.0,0.1
1446038192021188979,343,1446038192018021106,robocape,7.83686079014,9.615162009,11.7953324046,0.0,10.0,0.0,0.0,0.0,10.0,0.0,0.0,0.0,10.0,-0.153930711007,0.00918790576077,0.0930774800983,1.0,0.0,0.0,0.0,1.0,0.0,0.0,0.0,1.0,0.0490979003906,0.543669433594,10.0351318359,0.1,0.0,0.0,0.0,0.1,0.0,0.0,0.0,0.1
1446038192053611729,344,1446038192050285100,robocape,7.79798902807,9.58540673363,11.9774602291,0.0,10.0,0.0,0.0,0.0,10.0,0.0,0.0,0.0,10.0,-0.0296942461544,0.00745685105222,0.106260127494,1.0,0.0,0.0,0.0,1.0,0.0,0.0,0.0,1.0,0.0622705078125,-0.274229736328,10.1117724609,0.1,0.0,0.0,0.0,0.1,0.0,0.0,0.0,0.1
1446038192086290729,345,1446038192083087921,robocape,8.05661130024,9.56995106964,12.0370127842,0.0,10.0,0.0,0.0,0.0,10.0,0.0,0.0,0.0,10.0,0.137285954194,0.0066579027252,0.0430100516048,1.0,0.0,0.0,0.0,1.0,0.0,0.0,0.0,1.0,-0.277822265625,-0.0167651367188,10.0854272461,0.1,0.0,0.0,0.0,0.1,0.0,0.0,0.0,0.1
1446038192120528355,346,1446038192117378950,robocape,8.77539598418,9.5806064086,11.7900733811,0.0,10.0,0.0,0.0,0.0,10.0,0.0,0.0,0.0,10.0,0.405732592074,-0.00266316109008,-0.115714349364,1.0,0.0,0.0,0.0,1.0,0.0,0.0,0.0,1.0,-0.228724365234,-0.397573242188,10.1860180664,0.1,0.0,0.0,0.0,0.1,0.0,0.0,0.0,0.1
1446038192153193313,347,1446038192149955987,robocape,9.78513731302,9.62389892695,11.3583734293,0.0,10.0,0.0,0.0,0.0,10.0,0.0,0.0,0.0,10.0,0.575775427675,-0.00253000303558,-0.212387096934,1.0,0.0,0.0,0.0,1.0,0.0,0.0,0.0,1.0,0.130528564453,1.75315429688,9.90340576172,0.1,0.0,0.0,0.0,0.1,0.0,0.0,0.0,0.1
1446038192187057730,348,1446038192183737993,robocape,10.4851766305,9.67294197029,10.9627165717,0.0,10.0,0.0,0.0,0.0,10.0,0.0,0.0,0.0,10.0,0.411058914254,0.000133158054504,-0.195209707903,1.0,0.0,0.0,0.0,1.0,0.0,0.0,0.0,1.0,0.00598754882813,2.90755371094,9.95609619141,0.1,0.0,0.0,0.0,0.1,0.0,0.0,0.0,0.1
1446038192220333938,349,1446038192217216014,robocape,10.5160736441,9.72836571906,10.6105888092,0.0,10.0,0.0,0.0,0.0,10.0,0.0,0.0,0.0,10.0,0.0551274345646,0.00412789968962,-0.176034948054,1.0,0.0,0.0,0.0,1.0,0.0,0.0,0.0,1.0,0.263452148438,3.61767700195,9.82796264648,0.1,0.0,0.0,0.0,0.1,0.0,0.0,0.0,0.1
1446038192253403271,350,1446038192250092983,robocape,9.89715583225,9.78863506865,10.295610542,0.0,10.0,0.0,0.0,0.0,10.0,0.0,0.0,0.0,10.0,-0.290817191037,0.00852211548825,-0.160055981514,1.0,0.0,0.0,0.0,1.0,0.0,0.0,0.0,1.0,0.152083740234,3.86316650391,9.76329711914,0.1,0.0,0.0,0.0,0.1,0.0,0.0,0.0,0.1
1446038192285672021,351,1446038192282438993,robocape,8.71695024415,9.83032707907,10.2071115015,0.0,10.0,0.0,0.0,0.0,10.0,0.0,0.0,0.0,10.0,-0.606401780211,0.0191747598486,-0.0442084740953,1.0,0.0,0.0,0.0,1.0,0.0,0.0,0.0,1.0,0.276624755859,2.06450683594,9.94412109375,0.1,0.0,0.0,0.0,0.1,0.0,0.0,0.0,0.1
1446038192318903855,352,1446038192315696954,robocape,7.35932659062,9.81937076469,10.2654796485,0.0,10.0,0.0,0.0,0.0,10.0,0.0,0.0,0.0,10.0,-0.712928223814,0.00372842552611,0.0352868844435,1.0,0.0,0.0,0.0,1.0,0.0,0.0,0.0,1.0,-0.067060546875,0.711320800781,10.0914147949,0.1,0.0,0.0,0.0,0.1,0.0,0.0,0.0,0.1
1446038192351476313,353,1446038192348380088,robocape,6.11605994134,9.77808138924,10.3320435208,0.0,10.0,0.0,0.0,0.0,10.0,0.0,0.0,0.0,10.0,-0.653939205669,-0.0114515926873,0.0422111032778,1.0,0.0,0.0,0.0,1.0,0.0,0.0,0.0,1.0,-0.174836425781,0.0455053710938,9.97884887695,0.1,0.0,0.0,0.0,0.1,0.0,0.0,0.0,0.1
1446038192385472896,354,1446038192382262945,robocape,5.04772068687,9.72572342172,10.4156579064,0.0,10.0,0.0,0.0,0.0,10.0,0.0,0.0,0.0,10.0,-0.564057518879,-0.0162452826495,0.0521979573656,1.0,0.0,0.0,0.0,1.0,0.0,0.0,0.0,1.0,-0.293389892578,-0.220341796875,9.96088623047,0.1,0.0,0.0,0.0,0.1,0.0,0.0,0.0,0.1
1446038192418718896,355,1446038192415452957,robocape,4.21657422481,9.7028628103,10.4198949822,0.0,10.0,0.0,0.0,0.0,10.0,0.0,0.0,0.0,10.0,-0.433163151301,-0.00439421579863,0.0103863282513,1.0,0.0,0.0,0.0,1.0,0.0,0.0,0.0,1.0,0.208366699219,-0.875379638672,10.1093774414,0.1,0.0,0.0,0.0,0.1,0.0,0.0,0.0,0.1
1446038192450966355,356,1446038192447840929,robocape,3.74060693229,9.68288201512,10.4143894515,0.0,10.0,0.0,0.0,0.0,10.0,0.0,0.0,0.0,10.0,-0.246475558887,-0.00266316109008,0.00585895439817,1.0,0.0,0.0,0.0,1.0,0.0,0.0,0.0,1.0,0.0550854492188,-1.12206665039,10.1632653809,0.1,0.0,0.0,0.0,0.1,0.0,0.0,0.0,0.1
1446038192485300938,357,1446038192481909036,robocape,3.657022141,9.67878540876,10.4037255908,0.0,10.0,0.0,0.0,0.0,10.0,0.0,0.0,0.0,10.0,-0.0404800485692,0.00599211245268,0.0031957933081,1.0,0.0,0.0,0.0,1.0,0.0,0.0,0.0,1.0,-0.132923583984,-1.02387084961,10.1021923828,0.1,0.0,0.0,0.0,0.1,0.0,0.0,0.0,0.1
1446038192517893230,358,1446038192514763116,robocape,3.8348039486,9.69199059115,10.4017141165,0.0,10.0,0.0,0.0,0.0,10.0,0.0,0.0,0.0,10.0,0.0958737992429,0.0157126504315,0.00745685105222,1.0,0.0,0.0,0.0,1.0,0.0,0.0,0.0,1.0,0.330512695313,-0.55564453125,10.0890197754,0.1,0.0,0.0,0.0,0.1,0.0,0.0,0.0,0.1
1446038192556944521,359,1446038192548125028,robocape,4.14387002983,9.69617146354,10.4603523758,0.0,10.0,0.0,0.0,0.0,10.0,0.0,0.0,0.0,10.0,0.15965650735,0.0135821215594,0.0394147841332,1.0,0.0,0.0,0.0,1.0,0.0,0.0,0.0,1.0,-0.0850231933594,-0.237106933594,10.1021923828,0.1,0.0,0.0,0.0,0.1,0.0,0.0,0.0,0.1
1446038192587155730,360,1446038192583818912,robocape,4.59375472792,9.70607707687,10.5519628941,0.0,10.0,0.0,0.0,0.0,10.0,0.0,0.0,0.0,10.0,0.231029224564,0.0185089695761,0.0565921731642,1.0,0.0,0.0,0.0,1.0,0.0,0.0,0.0,1.0,-0.129331054688,-0.232316894531,10.1668579102,0.1,0.0,0.0,0.0,0.1,0.0,0.0,0.0,0.1
1446038192618548896,361,1446038192615338087,robocape,5.14622782569,9.73131907833,10.535080224,0.0,10.0,0.0,0.0,0.0,10.0,0.0,0.0,0.0,10.0,0.294811932672,0.0221042370477,-0.000133158054504,1.0,0.0,0.0,0.0,1.0,0.0,0.0,0.0,1.0,0.0562829589844,-0.285007324219,10.0566870117,0.1,0.0,0.0,0.0,0.1,0.0,0.0,0.0,0.1
1446038192650867896,362,1446038192647809982,robocape,5.94010832138,9.76587295554,10.4449250081,0.0,10.0,0.0,0.0,0.0,10.0,0.0,0.0,0.0,10.0,0.428635777448,0.0235689756472,-0.0382163616426,1.0,0.0,0.0,0.0,1.0,0.0,0.0,0.0,1.0,0.0838256835938,-0.123343505859,10.0375268555,0.1,0.0,0.0,0.0,0.1,0.0,0.0,0.0,0.1
1446038192684042146,363,1446038192680994033,robocape,6.78915714578,9.78948977843,10.4270397401,0.0,10.0,0.0,0.0,0.0,10.0,0.0,0.0,0.0,10.0,0.45233791115,0.0221042370477,-0.000133158054504,1.0,0.0,0.0,0.0,1.0,0.0,0.0,0.0,1.0,0.0335302734375,0.384400634766,10.0327368164,0.1,0.0,0.0,0.0,0.1,0.0,0.0,0.0,0.1
1446038192717890855,364,1446038192714751958,robocape,7.4750613551,9.7755016576,10.5584690682,0.0,10.0,0.0,0.0,0.0,10.0,0.0,0.0,0.0,10.0,0.354599899144,0.0125168571234,0.0790958843754,1.0,0.0,0.0,0.0,1.0,0.0,0.0,0.0,1.0,-0.377215576172,1.29091552734,10.0483044434,0.1,0.0,0.0,0.0,0.1,0.0,0.0,0.0,0.1
1446038192751033730,365,1446038192747903108,robocape,8.07982331025,9.76506205925,10.6331394044,0.0,10.0,0.0,0.0,0.0,10.0,0.0,0.0,0.0,10.0,0.317715118046,0.0110521185238,0.04966795433,1.0,0.0,0.0,0.0,1.0,0.0,0.0,0.0,1.0,0.135318603516,1.37474121094,10.0495019531,0.1,0.0,0.0,0.0,0.1,0.0,0.0,0.0,0.1
1446038192784129646,366,1446038192781054019,robocape,8.35872693759,9.72943575529,10.9225280166,0.0,10.0,0.0,0.0,0.0,10.0,0.0,0.0,0.0,10.0,0.128364364542,0.0142479118319,0.161520720113,1.0,0.0,0.0,0.0,1.0,0.0,0.0,0.0,1.0,0.156873779297,2.20701049805,9.87706054688,0.1,0.0,0.0,0.0,0.1,0.0,0.0,0.0,0.1
1446038192817860688,367,1446038192814580917,robocape,8.31216632967,9.66065024773,11.4512138764,0.0,10.0,0.0,0.0,0.0,10.0,0.0,0.0,0.0,10.0,-0.0631169178349,0.015313176268,0.286822449402,1.0,0.0,0.0,0.0,1.0,0.0,0.0,0.0,1.0,0.0610729980469,1.11727661133,10.0483044434,0.1,0.0,0.0,0.0,0.1,0.0,0.0,0.0,0.1
1446038192850820688,368,1446038192847682952,robocape,8.40758064137,9.60159900101,11.8202136614,0.0,10.0,0.0,0.0,0.0,10.0,0.0,0.0,0.0,10.0,0.0255663464648,0.00838895743375,0.204930245882,1.0,0.0,0.0,0.0,1.0,0.0,0.0,0.0,1.0,-0.102985839844,0.469423828125,10.1273400879,0.1,0.0,0.0,0.0,0.1,0.0,0.0,0.0,0.1
1446038192884369730,369,1446038192881268024,robocape,8.71454734391,9.55912003106,12.0019994061,0.0,10.0,0.0,0.0,0.0,10.0,0.0,0.0,0.0,10.0,0.15313176268,0.0031957933081,0.108257498312,1.0,0.0,0.0,0.0,1.0,0.0,0.0,0.0,1.0,-0.076640625,0.604742431641,10.0794396973,0.1,0.0,0.0,0.0,0.1,0.0,0.0,0.0,0.1
1446038192917692813,370,1446038192914499998,robocape,9.26273796696,9.54606566077,11.9746348331,0.0,10.0,0.0,0.0,0.0,10.0,0.0,0.0,0.0,10.0,0.298274042089,0.00226368692657,-0.000798948327024,1.0,0.0,0.0,0.0,1.0,0.0,0.0,0.0,1.0,-0.00838256835938,0.619112548828,10.1333276367,0.1,0.0,0.0,0.0,0.1,0.0,0.0,0.0,0.1
1446038192951176813,371,1446038192948098897,robocape,9.88561596377,9.55977278149,11.7648291385,0.0,10.0,0.0,0.0,0.0,10.0,0.0,0.0,0.0,10.0,0.353667792763,0.0,-0.0965395895154,1.0,0.0,0.0,0.0,1.0,0.0,0.0,0.0,1.0,0.086220703125,1.97828613281,9.98842895508,0.1,0.0,0.0,0.0,0.1,0.0,0.0,0.0,0.1
1446038192984576522,372,1446038192981014966,robocape,10.2038734933,9.57552099422,11.633662649,0.0,10.0,0.0,0.0,0.0,10.0,0.0,0.0,0.0,10.0,0.187220224633,0.0067910607797,-0.0573911214912,1.0,0.0,0.0,0.0,1.0,0.0,0.0,0.0,1.0,0.209564208984,2.54470825195,9.97525634766,0.1,0.0,0.0,0.0,0.1,0.0,0.0,0.0,0.1
1446038193017920522,373,1446038193014549970,robocape,10.113085773,9.58422800767,11.6271670427,0.0,10.0,0.0,0.0,0.0,10.0,0.0,0.0,0.0,10.0,-0.0387489938607,0.0134489635049,0.00559263828917,1.0,0.0,0.0,0.0,1.0,0.0,0.0,0.0,1.0,0.0754431152344,2.35789672852,9.98363891602,0.1,0.0,0.0,0.0,0.1,0.0,0.0,0.0,0.1
1446038193050697938,374,1446038193047403097,robocape,9.77174974397,9.58560198466,11.7070934037,0.0,10.0,0.0,0.0,0.0,10.0,0.0,0.0,0.0,10.0,-0.178298634981,0.0167779148675,0.04966795433,1.0,0.0,0.0,0.0,1.0,0.0,0.0,0.0,1.0,0.147293701172,2.12557983398,9.92256591797,0.1,0.0,0.0,0.0,0.1,0.0,0.0,0.0,0.1
1446038193083821313,375,1446038193080691099,robocape,9.07323348616,9.56292451639,11.9748131252,0.0,10.0,0.0,0.0,0.0,10.0,0.0,0.0,0.0,10.0,-0.382696248644,0.0193079179031,0.147139650227,1.0,0.0,0.0,0.0,1.0,0.0,0.0,0.0,1.0,0.124541015625,1.16278198242,10.060279541,0.1,0.0,0.0,0.0,0.1,0.0,0.0,0.0,0.1
1446038193117305897,376,1446038193114219903,robocape,8.81781564723,9.57071374841,11.9592099408,0.0,10.0,0.0,0.0,0.0,10.0,0.0,0.0,0.0,10.0,-0.125834361506,0.0115847507418,0.000798948327024,1.0,0.0,0.0,0.0,1.0,0.0,0.0,0.0,1.0,-0.128133544922,-0.338895263672,10.1848205566,0.1,0.0,0.0,0.0,0.1,0.0,0.0,0.0,0.1
1446038193150749313,377,1446038193147536039,robocape,9.05855208664,9.627903773,11.5653813644,0.0,10.0,0.0,0.0,0.0,10.0,0.0,0.0,0.0,10.0,0.167246516457,0.0067910607797,-0.196408130393,1.0,0.0,0.0,0.0,1.0,0.0,0.0,0.0,1.0,-0.047900390625,0.209564208984,10.177635498,0.1,0.0,0.0,0.0,0.1,0.0,0.0,0.0,0.1
1446038193184062105,378,1446038193180998086,robocape,9.45012289847,9.71214139951,10.9755581051,0.0,10.0,0.0,0.0,0.0,10.0,0.0,0.0,0.0,10.0,0.263919264027,0.0031957933081,-0.29920614847,1.0,0.0,0.0,0.0,1.0,0.0,0.0,0.0,1.0,0.13412109375,1.33881591797,10.0303417969,0.1,0.0,0.0,0.0,0.1,0.0,0.0,0.0,0.1
1446038193217404105,379,1446038193214180946,robocape,9.66940689353,9.7882690765,10.4147309163,0.0,10.0,0.0,0.0,0.0,10.0,0.0,0.0,0.0,10.0,0.171507574201,-0.000399474163512,-0.28442560442,1.0,0.0,0.0,0.0,1.0,0.0,0.0,0.0,1.0,-0.0383203125,2.51117797852,9.92735595703,0.1,0.0,0.0,0.0,0.1,0.0,0.0,0.0,0.1
1446038193250811730,380,1446038193247387886,robocape,9.48695837456,9.85386779788,9.93051946142,0.0,10.0,0.0,0.0,0.0,10.0,0.0,0.0,0.0,10.0,-0.0463390029674,-0.000399474163512,-0.245809768614,1.0,0.0,0.0,0.0,1.0,0.0,0.0,0.0,1.0,0.131726074219,2.54351074219,9.94891113281,0.1,0.0,0.0,0.0,0.1,0.0,0.0,0.0,0.1
1446038193284317397,381,1446038193280858039,robocape,8.65459533161,9.89026170167,9.68547242831,0.0,10.0,0.0,0.0,0.0,10.0,0.0,0.0,0.0,10.0,-0.409594175654,0.00466053190764,-0.123038042362,1.0,0.0,0.0,0.0,1.0,0.0,0.0,0.0,1.0,0.132923583984,2.51716552734,9.87346801758,0.1,0.0,0.0,0.0,0.1,0.0,0.0,0.0,0.1
1446038193317856397,382,1446038193314275026,robocape,7.50961057305,9.87140877222,9.67932082503,0.0,10.0,0.0,0.0,0.0,10.0,0.0,0.0,0.0,10.0,-0.595482819742,-0.00466053190764,0.00292947719909,1.0,0.0,0.0,0.0,1.0,0.0,0.0,0.0,1.0,0.0778381347656,1.11967163086,10.1824255371,0.1,0.0,0.0,0.0,0.1,0.0,0.0,0.0,0.1
1446038193350875355,383,1446038193347538948,robocape,6.30219416223,9.80486213856,9.77645397374,0.0,10.0,0.0,0.0,0.0,10.0,0.0,0.0,0.0,10.0,-0.637827081074,-0.0226368692657,0.0591221761998,1.0,0.0,0.0,0.0,1.0,0.0,0.0,0.0,1.0,0.0610729980469,0.444276123047,9.94891113281,0.1,0.0,0.0,0.0,0.1,0.0,0.0,0.0,0.1
1446038193384225272,384,1446038193380920886,robocape,5.12799917059,9.74063703146,9.8917183441,0.0,10.0,0.0,0.0,0.0,10.0,0.0,0.0,0.0,10.0,-0.622380746752,-0.0210389726116,0.068443240015,1.0,0.0,0.0,0.0,1.0,0.0,0.0,0.0,1.0,-0.141306152344,0.247884521484,9.98244140625,0.1,0.0,0.0,0.0,0.1,0.0,0.0,0.0,0.1
1446038193417452605,385,1446038193414139032,robocape,4.13851944597,9.69805441465,9.88384857571,0.0,10.0,0.0,0.0,0.0,10.0,0.0,0.0,0.0,10.0,-0.515188512876,-0.0157126504315,0.00412789968962,1.0,0.0,0.0,0.0,1.0,0.0,0.0,0.0,1.0,-0.1916015625,-0.480201416016,10.1093774414,0.1,0.0,0.0,0.0,0.1,0.0,0.0,0.0,0.1
1446038193450917063,386,1446038193447755098,robocape,3.32631194415,9.64950673057,9.88209552738,0.0,10.0,0.0,0.0,0.0,10.0,0.0,0.0,0.0,10.0,-0.423309455268,-0.0181094954125,0.00772316716123,1.0,0.0,0.0,0.0,1.0,0.0,0.0,0.0,1.0,-0.0778381347656,-1.43940673828,10.0614770508,0.1,0.0,0.0,0.0,0.1,0.0,0.0,0.0,0.1
1446038193484767063,387,1446038193481170892,robocape,3.05144509438,9.63131129163,9.86338285238,0.0,10.0,0.0,0.0,0.0,10.0,0.0,0.0,0.0,10.0,-0.140481747502,-0.00199737081756,-0.00133158054504,1.0,0.0,0.0,0.0,1.0,0.0,0.0,0.0,1.0,0.602347412109,-1.53999755859,10.0746496582,0.1,0.0,0.0,0.0,0.1,0.0,0.0,0.0,0.1
1446038193517609980,388,1446038193514300107,robocape,3.24817698719,9.65013827969,9.85027872023,0.0,10.0,0.0,0.0,0.0,10.0,0.0,0.0,0.0,10.0,0.106260127494,0.0181094954125,0.00106526443603,1.0,0.0,0.0,0.0,1.0,0.0,0.0,0.0,1.0,0.123343505859,-1.32444580078,10.096204834,0.1,0.0,0.0,0.0,0.1,0.0,0.0,0.0,0.1
1446038193556362147,389,1446038193547552108,robocape,3.74050185854,9.69076270445,9.86536811454,0.0,10.0,0.0,0.0,0.0,10.0,0.0,0.0,0.0,10.0,0.259125574065,0.0308926686449,0.015313176268,1.0,0.0,0.0,0.0,1.0,0.0,0.0,0.0,1.0,0.341290283203,-0.601149902344,10.0279467773,0.1,0.0,0.0,0.0,0.1,0.0,0.0,0.0,0.1
1446038193586045772,390,1446038193582906007,robocape,4.40003645272,9.74419299148,9.84067334279,0.0,10.0,0.0,0.0,0.0,10.0,0.0,0.0,0.0,10.0,0.350871473618,0.0364853069341,-0.00572579634367,1.0,0.0,0.0,0.0,1.0,0.0,0.0,0.0,1.0,-0.214354248047,0.0802331542969,10.193203125,0.1,0.0,0.0,0.0,0.1,0.0,0.0,0.0,0.1
1446038193618768522,391,1446038193615499973,robocape,5.02730464231,9.7704925658,9.87209136516,0.0,10.0,0.0,0.0,0.0,10.0,0.0,0.0,0.0,10.0,0.329699342952,0.0249005561922,0.0242347659197,1.0,0.0,0.0,0.0,1.0,0.0,0.0,0.0,1.0,-0.251477050781,0.641865234375,10.0866247559,0.1,0.0,0.0,0.0,0.1,0.0,0.0,0.0,0.1
1446038193652214189,392,1446038193647846937,robocape,5.55450318071,9.79023509278,9.96796175984,0.0,10.0,0.0,0.0,0.0,10.0,0.0,0.0,0.0,10.0,0.272175063406,0.0250337142467,0.0577905956547,1.0,0.0,0.0,0.0,1.0,0.0,0.0,0.0,1.0,-0.126936035156,0.780776367188,10.0722546387,0.1,0.0,0.0,0.0,0.1,0.0,0.0,0.0,0.1
