%time,field.header.seq,field.header.stamp,field.header.frame_id,field.orientation.x,field.orientation.y,field.orientation.z,field.orientation.w,field.orientation_covariance0,field.orientation_covariance1,field.orientation_covariance2,field.orientation_covariance3,field.orientation_covariance4,field.orientation_covariance5,field.orientation_covariance6,field.orientation_covariance7,field.orientation_covariance8,field.angular_velocity.x,field.angular_velocity.y,field.angular_velocity.z,field.angular_velocity_covariance0,field.angular_velocity_covariance1,field.angular_velocity_covariance2,field.angular_velocity_covariance3,field.angular_velocity_covariance4,field.angular_velocity_covariance5,field.angular_velocity_covariance6,field.angular_velocity_covariance7,field.angular_velocity_covariance8,field.linear_acceleration.x,field.linear_acceleration.y,field.linear_acceleration.z,field.linear_acceleration_covariance0,field.linear_acceleration_covariance1,field.linear_acceleration_covariance2,field.linear_acceleration_covariance3,field.linear_acceleration_covariance4,field.linear_acceleration_covariance5,field.linear_acceleration_covariance6,field.linear_acceleration_covariance7,field.linear_acceleration_covariance8
1446038005069531470,1,1446038005053689956,robocape,7.40323538647,4.53428098197,-23.5474204042,0.0,10.0,0.0,0.0,0.0,10.0,0.0,0.0,0.0,10.0,-0.311456689485,0.00545948023466,0.251535564958,1.0,0.0,0.0,0.0,1.0,0.0,0.0,0.0,1.0,-0.102985839844,-1.94715087891,10.2446960449,0.1,0.0,0.0,0.0,0.1,0.0,0.0,0.0,0.1
1446038005091701095,2,1446038005088677883,robocape,7.56124547729,4.55194088426,-23.425825334,0.0,10.0,0.0,0.0,0.0,10.0,0.0,0.0,0.0,10.0,0.0870853676456,0.0207726565026,0.035153726389,1.0,0.0,0.0,0.0,1.0,0.0,0.0,0.0,1.0,-0.0490979003906,-1.73878417969,10.1201550293,0.1,0.0,0.0,0.0,0.1,0.0,0.0,0.0,0.1
1446038005121377262,3,1446038005118401050,robocape,8.04520350215,4.58743721989,-23.432843045,0.0,10.0,0.0,0.0,0.0,10.0,0.0,0.0,0.0,10.0,0.26578347679,0.0219710789932,-0.0384826777516,1.0,0.0,0.0,0.0,1.0,0.0,0.0,0.0,1.0,-0.00838256835938,-0.565224609375,10.0435144043,0.1,0.0,0.0,0.0,0.1,0.0,0.0,0.0,0.1
1446038005154834220,4,1446038005151740074,robocape,8.5563583625,4.59572460218,-23.2900655155,0.0,10.0,0.0,0.0,0.0,10.0,0.0,0.0,0.0,10.0,0.273240327842,0.0186421276306,0.0439421579863,1.0,0.0,0.0,0.0,1.0,0.0,0.0,0.0,1.0,-0.0814306640625,-0.803529052734,10.0842297363,0.1,0.0,0.0,0.0,0.1,0.0,0.0,0.0,0.1
1446038005190872053,5,1446038005187767982,robocape,9.43882017933,4.63418532423,-23.2834637215,0.0,10.0,0.0,0.0,0.0,10.0,0.0,0.0,0.0,10.0,0.477504783451,0.0247673981377,-0.0359526747161,1.0,0.0,0.0,0.0,1.0,0.0,0.0,0.0,1.0,-0.252674560547,-1.43820922852,10.1153649902,0.1,0.0,0.0,0.0,0.1,0.0,0.0,0.0,0.1
1446038005221693053,6,1446038005218405008,robocape,10.4872569519,4.67521884236,-23.464098716,0.0,10.0,0.0,0.0,0.0,10.0,0.0,0.0,0.0,10.0,0.577373324329,0.00972053797879,-0.140215431393,1.0,0.0,0.0,0.0,1.0,0.0,0.0,0.0,1.0,-0.750838623047,2.6860144043,10.0051940918,0.1,0.0,0.0,0.0,0.1,0.0,0.0,0.0,0.1
1446038005254672470,7,1446038005251610994,robocape,10.8635440208,4.66395873173,-23.2105985827,0.0,10.0,0.0,0.0,0.0,10.0,0.0,0.0,0.0,10.0,0.199603923701,0.0215716048296,0.103996440568,1.0,0.0,0.0,0.0,1.0,0.0,0.0,0.0,1.0,0.392783203125,0.707728271484,9.93094848633,0.1,0.0,0.0,0.0,0.1,0.0,0.0,0.0,0.1
1446038005289340720,8,1446038005285459995,robocape,11.228590528,4.65037716158,-22.9963519218,0.0,10.0,0.0,0.0,0.0,10.0,0.0,0.0,0.0,10.0,0.196274972339,0.0173105470855,0.0833569421195,1.0,0.0,0.0,0.0,1.0,0.0,0.0,0.0,1.0,0.302969970703,0.384400634766,10.0231567383,0.1,0.0,0.0,0.0,0.1,0.0,0.0,0.0,0.1
1446038005321457637,9,1446038005318124055,robocape,11.579175444,4.65882546517,-22.9490526812,0.0,10.0,0.0,0.0,0.0,10.0,0.0,0.0,0.0,10.0,0.198272343156,0.0123836990689,-0.00825579937925,1.0,0.0,0.0,0.0,1.0,0.0,0.0,0.0,1.0,-0.640667724609,0.451461181641,10.1752404785,0.1,0.0,0.0,0.0,0.1,0.0,0.0,0.0,0.1
1446038005354598137,10,1446038005351440906,robocape,11.9594351123,4.70971955663,-23.152710272,0.0,10.0,0.0,0.0,0.0,10.0,0.0,0.0,0.0,10.0,0.228632379583,0.00812264132474,-0.147938598554,1.0,0.0,0.0,0.0,1.0,0.0,0.0,0.0,1.0,0.326920166016,1.77111694336,10.0291442871,0.1,0.0,0.0,0.0,0.1,0.0,0.0,0.0,0.1
1446038005387948387,11,1446038005384896039,robocape,11.7179980808,4.73335425834,-23.0878398552,0.0,10.0,0.0,0.0,0.0,10.0,0.0,0.0,0.0,10.0,-0.115980665473,0.0214384467751,0.00572579634367,1.0,0.0,0.0,0.0,1.0,0.0,0.0,0.0,1.0,0.227526855469,2.34951416016,9.98244140625,0.1,0.0,0.0,0.0,0.1,0.0,0.0,0.0,0.1
1446038005421964512,12,1446038005418189048,robocape,11.1557535505,4.76069266252,-22.945920627,0.0,10.0,0.0,0.0,0.0,10.0,0.0,0.0,0.0,10.0,-0.290817191037,0.0306263525359,0.050733218766,1.0,0.0,0.0,0.0,1.0,0.0,0.0,0.0,1.0,-0.244291992188,0.166453857422,10.1261425781,0.1,0.0,0.0,0.0,0.1,0.0,0.0,0.0,0.1
1446038005454889012,13,1446038005451659917,robocape,10.646033474,4.78178103163,-22.8886486416,0.0,10.0,0.0,0.0,0.0,10.0,0.0,0.0,0.0,10.0,-0.258859257956,0.0187752856851,0.00585895439817,1.0,0.0,0.0,0.0,1.0,0.0,0.0,0.0,1.0,-0.0263452148438,0.0598754882813,9.83993774414,0.1,0.0,0.0,0.0,0.1,0.0,0.0,0.0,0.1
1446038005487885970,14,1446038005484785079,robocape,10.18430587,4.77973583009,-22.7457545509,0.0,10.0,0.0,0.0,0.0,10.0,0.0,0.0,0.0,10.0,-0.238619233671,0.0146473859954,0.0537958540196,1.0,0.0,0.0,0.0,1.0,0.0,0.0,0.0,1.0,-0.067060546875,-0.1149609375,10.0902172852,0.1,0.0,0.0,0.0,0.1,0.0,0.0,0.0,0.1
1446038005521947429,15,1446038005518755912,robocape,9.87832979639,4.77170687768,-22.5488270934,0.0,10.0,0.0,0.0,0.0,10.0,0.0,0.0,0.0,10.0,-0.159523349296,0.016112124595,0.0820253615744,1.0,0.0,0.0,0.0,1.0,0.0,0.0,0.0,1.0,0.0443078613281,-1.47772705078,10.213560791,0.1,0.0,0.0,0.0,0.1,0.0,0.0,0.0,0.1
1446038005554937304,16,1446038005551717042,robocape,10.0075621486,4.7693653723,-22.4647334598,0.0,10.0,0.0,0.0,0.0,10.0,0.0,0.0,0.0,10.0,0.0765658813398,0.00958737992429,0.016911072922,1.0,0.0,0.0,0.0,1.0,0.0,0.0,0.0,1.0,-0.439486083984,-0.0359252929688,9.96447875977,0.1,0.0,0.0,0.0,0.1,0.0,0.0,0.0,0.1
1446038005588329012,17,1446038005585155010,robocape,10.1696680795,4.78387202403,-22.3259133704,0.0,10.0,0.0,0.0,0.0,10.0,0.0,0.0,0.0,10.0,0.0912132673352,0.0233026595382,0.0443416321498,1.0,0.0,0.0,0.0,1.0,0.0,0.0,0.0,1.0,-0.305364990234,-0.947230224609,10.2219433594,0.1,0.0,0.0,0.0,0.1,0.0,0.0,0.0,0.1
1446038005621445929,18,1446038005618338108,robocape,10.5588665809,4.81858077825,-22.3647304048,0.0,10.0,0.0,0.0,0.0,10.0,0.0,0.0,0.0,10.0,0.22144184464,0.0181094954125,-0.0551274345646,1.0,0.0,0.0,0.0,1.0,0.0,0.0,0.0,1.0,-0.301772460938,0.488583984375,9.92615844727,0.1,0.0,0.0,0.0,0.1,0.0,0.0,0.0,0.1
1446038005654965095,19,1446038005651808023,robocape,10.7267542604,4.78652270571,-22.1159059485,0.0,10.0,0.0,0.0,0.0,10.0,0.0,0.0,0.0,10.0,0.0888164223541,0.0102531701968,0.107591708039,1.0,0.0,0.0,0.0,1.0,0.0,0.0,0.0,1.0,0.567619628906,0.313747558594,9.86388793945,0.1,0.0,0.0,0.0,0.1,0.0,0.0,0.0,0.1
1446038005688498762,20,1446038005684945106,robocape,10.9374626496,4.7418835521,-21.8039093934,0.0,10.0,0.0,0.0,0.0,10.0,0.0,0.0,0.0,10.0,0.108257498312,0.0102531701968,0.142479118319,1.0,0.0,0.0,0.0,1.0,0.0,0.0,0.0,1.0,-0.423918457031,-0.0658630371094,10.3021765137,0.1,0.0,0.0,0.0,0.1,0.0,0.0,0.0,0.1
1446038005721253012,21,1446038005718103885,robocape,11.3417940864,4.74094344386,-21.7460075932,0.0,10.0,0.0,0.0,0.0,10.0,0.0,0.0,0.0,10.0,0.225170270166,0.00878843159726,0.000532632218016,1.0,0.0,0.0,0.0,1.0,0.0,0.0,0.0,1.0,-0.250279541016,-0.361647949219,10.1273400879,0.1,0.0,0.0,0.0,0.1,0.0,0.0,0.0,0.1
1446038005754436429,22,1446038005751312971,robocape,12.0093643806,4.78459424463,-21.9638751163,0.0,10.0,0.0,0.0,0.0,10.0,0.0,0.0,0.0,10.0,0.38109835199,0.00372842552611,-0.154596501279,1.0,0.0,0.0,0.0,1.0,0.0,0.0,0.0,1.0,0.216749267578,1.55915771484,9.96926879883,0.1,0.0,0.0,0.0,0.1,0.0,0.0,0.0,0.1
1446038005788130429,23,1446038005784841060,robocape,11.9973494214,4.79070326484,-21.8353868774,0.0,10.0,0.0,0.0,0.0,10.0,0.0,0.0,0.0,10.0,0.00186421276306,0.0197073920666,0.0408795227327,1.0,0.0,0.0,0.0,1.0,0.0,0.0,0.0,1.0,-0.0263452148438,2.11001220703,10.0830322266,0.1,0.0,0.0,0.0,0.1,0.0,0.0,0.0,0.1
1446038005821266762,24,1446038005818084955,robocape,11.5577776116,4.75408417667,-21.4837771097,0.0,10.0,0.0,0.0,0.0,10.0,0.0,0.0,0.0,10.0,-0.23768712729,0.0202400242846,0.169643361438,1.0,0.0,0.0,0.0,1.0,0.0,0.0,0.0,1.0,-0.0047900390625,0.220341796875,9.86508544922,0.1,0.0,0.0,0.0,0.1,0.0,0.0,0.0,0.1
1446038005854433804,25,1446038005851295948,robocape,11.597940412,4.79122158254,-21.5515519831,0.0,10.0,0.0,0.0,0.0,10.0,0.0,0.0,0.0,10.0,0.0396811002422,0.0151800182135,-0.0664458691975,1.0,0.0,0.0,0.0,1.0,0.0,0.0,0.0,1.0,-0.215551757813,-0.167651367188,10.2626586914,0.1,0.0,0.0,0.0,0.1,0.0,0.0,0.0,0.1
1446038005887838470,26,1446038005884659051,robocape,11.7188950791,4.86200479113,-21.736234523,0.0,10.0,0.0,0.0,0.0,10.0,0.0,0.0,0.0,10.0,0.0893490545722,0.0205063403936,-0.133557528667,1.0,0.0,0.0,0.0,1.0,0.0,0.0,0.0,1.0,0.0886157226563,1.04183349609,10.1213525391,0.1,0.0,0.0,0.0,0.1,0.0,0.0,0.0,0.1
1446038005921229012,27,1446038005917980909,robocape,11.7195277667,4.92829579669,-21.8851954004,0.0,10.0,0.0,0.0,0.0,10.0,0.0,0.0,0.0,10.0,0.0238352917562,0.0217047628841,-0.113184346328,1.0,0.0,0.0,0.0,1.0,0.0,0.0,0.0,1.0,-0.193996582031,1.08494384766,10.1105749512,0.1,0.0,0.0,0.0,0.1,0.0,0.0,0.0,0.1
1446038005954572762,28,1446038005951433897,robocape,11.2834325701,4.95846575566,-21.7879802625,0.0,10.0,0.0,0.0,0.0,10.0,0.0,0.0,0.0,10.0,-0.221974476858,0.0279631914458,0.0267647689553,1.0,0.0,0.0,0.0,1.0,0.0,0.0,0.0,1.0,0.0682580566406,0.778381347656,9.68306396484,0.1,0.0,0.0,0.0,0.1,0.0,0.0,0.0,0.1
1446038005988157429,29,1446038005984729051,robocape,10.9421255907,4.98680255302,-21.7684640229,0.0,10.0,0.0,0.0,0.0,10.0,0.0,0.0,0.0,10.0,-0.167779148675,0.0193079179031,-0.0151800182135,1.0,0.0,0.0,0.0,1.0,0.0,0.0,0.0,1.0,-0.117355957031,0.0610729980469,9.88903564453,0.1,0.0,0.0,0.0,0.1,0.0,0.0,0.0,0.1
1446038006022645637,30,1446038006019213914,robocape,10.6217611684,5.00119729681,-21.6769395504,0.0,10.0,0.0,0.0,0.0,10.0,0.0,0.0,0.0,10.0,-0.16112124595,0.0190416017941,0.0246342400832,1.0,0.0,0.0,0.0,1.0,0.0,0.0,0.0,1.0,-0.146096191406,-0.0311352539063,10.0698596191,0.1,0.0,0.0,0.0,0.1,0.0,0.0,0.0,0.1
1446038006055185846,31,1446038006051640987,robocape,10.2808872299,4.96903378407,-21.3753411288,0.0,10.0,0.0,0.0,0.0,10.0,0.0,0.0,0.0,10.0,-0.184157589379,0.0141147537774,0.141946486101,1.0,0.0,0.0,0.0,1.0,0.0,0.0,0.0,1.0,0.0419128417969,-0.411943359375,9.9980090332,0.1,0.0,0.0,0.0,0.1,0.0,0.0,0.0,0.1
1446038006088132762,32,1446038006084817886,robocape,10.1800661295,4.90425654845,-20.988792488,0.0,10.0,0.0,0.0,0.0,10.0,0.0,0.0,0.0,10.0,-0.0620516533988,0.00466053190764,0.188551805178,1.0,0.0,0.0,0.0,1.0,0.0,0.0,0.0,1.0,-0.0598754882813,-1.01309326172,10.1153649902,0.1,0.0,0.0,0.0,0.1,0.0,0.0,0.0,0.1
1446038006121227804,33,1446038006117961883,robocape,10.3514078605,4.8277463607,-20.6139672592,0.0,10.0,0.0,0.0,0.0,10.0,0.0,0.0,0.0,10.0,0.082691151847,-0.00199737081756,0.181361270234,1.0,0.0,0.0,0.0,1.0,0.0,0.0,0.0,1.0,-0.401165771484,-0.8813671875,10.003996582,0.1,0.0,0.0,0.0,0.1,0.0,0.0,0.0,0.1
1446038006154710929,34,1446038006151314020,robocape,11.0092817131,4.8190762136,-20.5992426177,0.0,10.0,0.0,0.0,0.0,10.0,0.0,0.0,0.0,10.0,0.360458853542,0.00106526443603,-0.0213052887206,1.0,0.0,0.0,0.0,1.0,0.0,0.0,0.0,1.0,-0.684975585938,0.298179931641,10.3404968262,0.1,0.0,0.0,0.0,0.1,0.0,0.0,0.0,0.1
1446038006187970554,35,1446038006184685945,robocape,11.6619019136,4.80584735518,-20.5225491621,0.0,10.0,0.0,0.0,0.0,10.0,0.0,0.0,0.0,10.0,0.355532005526,0.00492684801665,0.0115847507418,1.0,0.0,0.0,0.0,1.0,0.0,0.0,0.0,1.0,0.135318603516,-0.147293701172,10.1967956543,0.1,0.0,0.0,0.0,0.1,0.0,0.0,0.0,0.1
1446038006221020679,36,1446038006217938899,robocape,12.6872840692,4.85853781948,-20.7058959029,0.0,10.0,0.0,0.0,0.0,10.0,0.0,0.0,0.0,10.0,0.569783315222,0.0117179087963,-0.13835121863,1.0,0.0,0.0,0.0,1.0,0.0,0.0,0.0,1.0,-0.0622705078125,1.17954711914,10.1764379883,0.1,0.0,0.0,0.0,0.1,0.0,0.0,0.0,0.1
1446038006254397679,37,1446038006251370906,robocape,13.0659027559,4.83491499394,-20.576756505,0.0,10.0,0.0,0.0,0.0,10.0,0.0,0.0,0.0,10.0,0.209990251953,0.00612527050718,0.0418116291142,1.0,0.0,0.0,0.0,1.0,0.0,0.0,0.0,1.0,-0.131726074219,2.67164428711,9.6914465332,0.1,0.0,0.0,0.0,0.1,0.0,0.0,0.0,0.1
1446038006288166012,38,1446038006284945011,robocape,13.2075607094,4.84128730595,-20.527009466,0.0,10.0,0.0,0.0,0.0,10.0,0.0,0.0,0.0,10.0,0.0889495804086,0.0121173829599,-0.00106526443603,1.0,0.0,0.0,0.0,1.0,0.0,0.0,0.0,1.0,0.323327636719,1.90404052734,10.0830322266,0.1,0.0,0.0,0.0,0.1,0.0,0.0,0.0,0.1
1446038006321093971,39,1446038006318099975,robocape,13.0347535718,4.88451736741,-20.5209061778,0.0,10.0,0.0,0.0,0.0,10.0,0.0,0.0,0.0,10.0,-0.0757669330128,0.0254331884103,-0.0249005561922,1.0,0.0,0.0,0.0,1.0,0.0,0.0,0.0,1.0,-0.113763427734,2.24173828125,10.1716479492,0.1,0.0,0.0,0.0,0.1,0.0,0.0,0.0,0.1
1446038006355459554,40,1446038006352314949,robocape,12.4853318805,4.9191558336,-20.4272582534,0.0,10.0,0.0,0.0,0.0,10.0,0.0,0.0,0.0,10.0,-0.281362969167,0.0304931944814,0.0270310850643,1.0,0.0,0.0,0.0,1.0,0.0,0.0,0.0,1.0,0.0730480957031,1.17116455078,9.85670288086,0.1,0.0,0.0,0.0,0.1,0.0,0.0,0.0,0.1
1446038006389042887,41,1446038006385797023,robocape,12.0078753241,4.95921140999,-20.400557426,0.0,10.0,0.0,0.0,0.0,10.0,0.0,0.0,0.0,10.0,-0.239817656162,0.0258326625738,-0.00945422186978,1.0,0.0,0.0,0.0,1.0,0.0,0.0,0.0,1.0,-0.217946777344,0.128133544922,10.0255517578,0.1,0.0,0.0,0.0,0.1,0.0,0.0,0.0,0.1
1446038006422491471,42,1446038006419425964,robocape,11.9524293397,5.05240023483,-20.6378263692,0.0,10.0,0.0,0.0,0.0,10.0,0.0,0.0,0.0,10.0,-0.000932106381528,0.0258326625738,-0.159789665405,1.0,0.0,0.0,0.0,1.0,0.0,0.0,0.0,1.0,-0.150886230469,-0.310155029297,10.1884130859,0.1,0.0,0.0,0.0,0.1,0.0,0.0,0.0,0.1
1446038006456234304,43,1446038006452625036,robocape,12.1009977359,5.16596552165,-21.0092154994,0.0,10.0,0.0,0.0,0.0,10.0,0.0,0.0,0.0,10.0,0.115714349364,0.0223705531567,-0.236089230636,1.0,0.0,0.0,0.0,1.0,0.0,0.0,0.0,1.0,-0.0227526855469,0.892144775391,10.0495019531,0.1,0.0,0.0,0.0,0.1,0.0,0.0,0.0,0.1
1446038006489968762,44,1446038006486848115,robocape,12.0621901148,5.25890149369,-21.2706817933,0.0,10.0,0.0,0.0,0.0,10.0,0.0,0.0,0.0,10.0,0.0103863282513,0.0231695014837,-0.174303893346,1.0,0.0,0.0,0.0,1.0,0.0,0.0,0.0,1.0,-0.0718505859375,1.31247070313,10.0063916016,0.1,0.0,0.0,0.0,0.1,0.0,0.0,0.0,0.1
1446038006522213929,45,1446038006518994092,robocape,11.542462276,5.2959325592,-21.205651127,0.0,10.0,0.0,0.0,0.0,10.0,0.0,0.0,0.0,10.0,-0.264585054299,0.0284958236638,0.0105194863058,1.0,0.0,0.0,0.0,1.0,0.0,0.0,0.0,1.0,0.0730480957031,0.568817138672,9.79562988281,0.1,0.0,0.0,0.0,0.1,0.0,0.0,0.0,0.1
1446038006560952054,46,1446038006556961059,robocape,11.0908664147,5.32089513847,-21.1795697052,0.0,10.0,0.0,0.0,0.0,10.0,0.0,0.0,0.0,10.0,-0.226635008766,0.0183758115215,-0.00932106381528,1.0,0.0,0.0,0.0,1.0,0.0,0.0,0.0,1.0,-0.177231445313,-0.511336669922,9.91538085938,0.1,0.0,0.0,0.0,0.1,0.0,0.0,0.0,0.1
1446038006589571971,47,1446038006586273908,robocape,11.0109400818,5.37042010252,-21.2972351752,0.0,10.0,0.0,0.0,0.0,10.0,0.0,0.0,0.0,10.0,-0.0213052887206,0.017710021249,-0.0922785317712,1.0,0.0,0.0,0.0,1.0,0.0,0.0,0.0,1.0,-0.203576660156,-0.730480957031,10.1632653809,0.1,0.0,0.0,0.0,0.1,0.0,0.0,0.0,0.1
1446038006625840304,48,1446038006620454072,robocape,10.9120933646,5.38503731991,-21.1950087112,0.0,10.0,0.0,0.0,0.0,10.0,0.0,0.0,0.0,10.0,-0.0446079482588,0.0210389726116,0.0284958236638,1.0,0.0,0.0,0.0,1.0,0.0,0.0,0.0,1.0,-0.166453857422,0.0898132324219,9.9980090332,0.1,0.0,0.0,0.0,0.1,0.0,0.0,0.0,0.1
1446038006656122429,49,1446038006652955055,robocape,10.8289577888,5.34538157916,-20.9066491146,0.0,10.0,0.0,0.0,0.0,10.0,0.0,0.0,0.0,10.0,-0.0476705835124,0.0107858024148,0.133291212558,1.0,0.0,0.0,0.0,1.0,0.0,0.0,0.0,1.0,-0.110170898438,-0.332907714844,10.0027990723,0.1,0.0,0.0,0.0,0.1,0.0,0.0,0.0,0.1
1446038006691553054,50,1446038006687752008,robocape,11.1285535635,5.3342928946,-20.7621222331,0.0,10.0,0.0,0.0,0.0,10.0,0.0,0.0,0.0,10.0,0.16378440704,0.0125168571234,0.0503337446025,1.0,0.0,0.0,0.0,1.0,0.0,0.0,0.0,1.0,-0.304167480469,-0.851429443359,10.2650537109,0.1,0.0,0.0,0.0,0.1,0.0,0.0,0.0,0.1
1446038006724214013,51,1446038006720963954,robocape,11.5583929084,5.28932569733,-20.5199090053,0.0,10.0,0.0,0.0,0.0,10.0,0.0,0.0,0.0,10.0,0.227433957093,0.00545948023466,0.104529072786,1.0,0.0,0.0,0.0,1.0,0.0,0.0,0.0,1.0,-0.0802331542969,1.07296875,9.91897338867,0.1,0.0,0.0,0.0,0.1,0.0,0.0,0.0,0.1
1446038006758630804,52,1446038006755352020,robocape,12.0870417624,5.28150341627,-20.409433771,0.0,10.0,0.0,0.0,0.0,10.0,0.0,0.0,0.0,10.0,0.28855350411,0.0119842249054,0.0295610880999,1.0,0.0,0.0,0.0,1.0,0.0,0.0,0.0,1.0,0.0742456054688,-0.246687011719,10.208770752,0.1,0.0,0.0,0.0,0.1,0.0,0.0,0.0,0.1
1446038006792133346,53,1446038006788212060,robocape,12.5713760613,5.2887482147,-20.4271364172,0.0,10.0,0.0,0.0,0.0,10.0,0.0,0.0,0.0,10.0,0.273639802006,0.00612527050718,-0.0398142582967,1.0,0.0,0.0,0.0,1.0,0.0,0.0,0.0,1.0,-0.347277832031,1.28253295898,10.0495019531,0.1,0.0,0.0,0.0,0.1,0.0,0.0,0.0,0.1
1446038006826174346,54,1446038006822489023,robocape,12.6570794201,5.28879886269,-20.3249181877,0.0,10.0,0.0,0.0,0.0,10.0,0.0,0.0,0.0,10.0,0.0551274345646,0.0150468601589,0.0284958236638,1.0,0.0,0.0,0.0,1.0,0.0,0.0,0.0,1.0,0.171243896484,1.89326293945,9.8483203125,0.1,0.0,0.0,0.0,0.1,0.0,0.0,0.0,0.1
1446038006857773221,55,1446038006854655027,robocape,12.5206017891,5.31055995646,-20.2952540946,0.0,10.0,0.0,0.0,0.0,10.0,0.0,0.0,0.0,10.0,-0.0585895439817,0.017710021249,-0.00972053797879,1.0,0.0,0.0,0.0,1.0,0.0,0.0,0.0,1.0,-0.204774169922,1.63220581055,10.0985998535,0.1,0.0,0.0,0.0,0.1,0.0,0.0,0.0,0.1
1446038006891405596,56,1446038006887586116,robocape,12.1345123682,5.32097056716,-20.1640982328,0.0,10.0,0.0,0.0,0.0,10.0,0.0,0.0,0.0,10.0,-0.197606552884,0.0225037112112,0.0482032157304,1.0,0.0,0.0,0.0,1.0,0.0,0.0,0.0,1.0,0.100590820313,1.17116455078,10.0267492676,0.1,0.0,0.0,0.0,0.1,0.0,0.0,0.0,0.1
1446038006924691971,57,1446038006921355009,robocape,11.4773893496,5.28714792185,-19.7858631771,0.0,10.0,0.0,0.0,0.0,10.0,0.0,0.0,0.0,10.0,-0.356597269962,0.0245010820287,0.187087066578,1.0,0.0,0.0,0.0,1.0,0.0,0.0,0.0,1.0,-0.104183349609,0.161663818359,9.86748046875,0.1,0.0,0.0,0.0,0.1,0.0,0.0,0.0,0.1
1446038006958472763,58,1446038006954922914,robocape,11.1422271409,5.24451993842,-19.4806151129,0.0,10.0,0.0,0.0,0.0,10.0,0.0,0.0,0.0,10.0,-0.181893902452,0.0115847507418,0.146607018009,1.0,0.0,0.0,0.0,1.0,0.0,0.0,0.0,1.0,-0.0167651367188,-0.975970458984,9.98962646484,0.1,0.0,0.0,0.0,0.1,0.0,0.0,0.0,0.1
1446038006993919304,59,1446038006990334987,robocape,11.2588757002,5.22653172698,-19.2935940197,0.0,10.0,0.0,0.0,0.0,10.0,0.0,0.0,0.0,10.0,0.0643153403254,0.0130494893414,0.0774979877213,1.0,0.0,0.0,0.0,1.0,0.0,0.0,0.0,1.0,-0.148491210938,-1.48371459961,10.249486084,0.1,0.0,0.0,0.0,0.1,0.0,0.0,0.0,0.1
1446038007025778138,60,1446038007022200107,robocape,11.958732634,5.30777307979,-19.5703384188,0.0,10.0,0.0,0.0,0.0,10.0,0.0,0.0,0.0,10.0,0.401471534329,0.018242653467,-0.184024431324,1.0,0.0,0.0,0.0,1.0,0.0,0.0,0.0,1.0,-0.932860107422,0.553249511719,10.1405126953,0.1,0.0,0.0,0.0,0.1,0.0,0.0,0.0,0.1
1446038007058556929,61,1446038007055358886,robocape,12.4393815057,5.31662695784,-19.5733316652,0.0,10.0,0.0,0.0,0.0,10.0,0.0,0.0,0.0,10.0,0.270177692589,0.00865527354276,-0.0303600364269,1.0,0.0,0.0,0.0,1.0,0.0,0.0,0.0,1.0,1.00231567383,1.5747253418,9.81239501953,0.1,0.0,0.0,0.0,0.1,0.0,0.0,0.0,0.1
1446038007091385596,62,1446038007088057994,robocape,12.5416238704,5.28143569658,-19.2916332838,0.0,10.0,0.0,0.0,0.0,10.0,0.0,0.0,0.0,10.0,0.0525974315291,0.0167779148675,0.128497522596,1.0,0.0,0.0,0.0,1.0,0.0,0.0,0.0,1.0,-0.208366699219,1.68848876953,10.1560803223,0.1,0.0,0.0,0.0,0.1,0.0,0.0,0.0,0.1
1446038007124460804,63,1446038007121265888,robocape,12.3093463553,5.26357422618,-19.0560217326,0.0,10.0,0.0,0.0,0.0,10.0,0.0,0.0,0.0,10.0,-0.122372252089,0.0198405501211,0.10612696944,1.0,0.0,0.0,0.0,1.0,0.0,0.0,0.0,1.0,-0.335302734375,-0.590372314453,10.0435144043,0.1,0.0,0.0,0.0,0.1,0.0,0.0,0.0,0.1
1446038007158576179,64,1446038007155467033,robocape,12.6723643601,5.31370164367,-19.1710826458,0.0,10.0,0.0,0.0,0.0,10.0,0.0,0.0,0.0,10.0,0.214783941915,0.017177389031,-0.0922785317712,1.0,0.0,0.0,0.0,1.0,0.0,0.0,0.0,1.0,0.132923583984,0.106578369141,9.87945556641,0.1,0.0,0.0,0.0,0.1,0.0,0.0,0.0,0.1
1446038007191946929,65,1446038007188627004,robocape,12.7281380225,5.32124698846,-19.1786814663,0.0,10.0,0.0,0.0,0.0,10.0,0.0,0.0,0.0,10.0,0.0454068965859,0.0066579027252,-0.0278300333913,1.0,0.0,0.0,0.0,1.0,0.0,0.0,0.0,1.0,-0.234711914063,1.94834838867,9.75850708008,0.1,0.0,0.0,0.0,0.1,0.0,0.0,0.0,0.1
1446038007222992596,66,1446038007219835042,robocape,12.5236197128,5.3442909289,-19.0745608109,0.0,10.0,0.0,0.0,0.0,10.0,0.0,0.0,0.0,10.0,-0.099602224769,0.0266316109008,0.0318247750264,1.0,0.0,0.0,0.0,1.0,0.0,0.0,0.0,1.0,-0.00838256835938,0.620310058594,10.1476977539,0.1,0.0,0.0,0.0,0.1,0.0,0.0,0.0,0.1
1446038007257272304,67,1446038007254163980,robocape,12.3764895897,5.3990893834,-19.1512561552,0.0,10.0,0.0,0.0,0.0,10.0,0.0,0.0,0.0,10.0,-0.0584563859272,0.0230363434292,-0.067377975579,1.0,0.0,0.0,0.0,1.0,0.0,0.0,0.0,1.0,-0.311352539063,0.311352539063,10.1225500488,0.1,0.0,0.0,0.0,0.1,0.0,0.0,0.0,0.1
1446038007291253763,68,1446038007287786006,robocape,12.1762771616,5.43933847083,-19.1884218747,0.0,10.0,0.0,0.0,0.0,10.0,0.0,0.0,0.0,10.0,-0.0892158965177,0.0199737081756,-0.0443416321498,1.0,0.0,0.0,0.0,1.0,0.0,0.0,0.0,1.0,0.137713623047,1.53401000977,9.88185058594,0.1,0.0,0.0,0.0,0.1,0.0,0.0,0.0,0.1
1446038007324484388,69,1446038007321386098,robocape,11.7132315037,5.42766982661,-18.99117915,0.0,10.0,0.0,0.0,0.0,10.0,0.0,0.0,0.0,10.0,-0.243279765579,0.017710021249,0.0878843159726,1.0,0.0,0.0,0.0,1.0,0.0,0.0,0.0,1.0,-0.0910107421875,0.719703369141,10.0650695801,0.1,0.0,0.0,0.0,0.1,0.0,0.0,0.0,0.1
1446038007357006388,70,1446038007353888988,robocape,11.2919459534,5.39061165756,-18.6492205974,0.0,10.0,0.0,0.0,0.0,10.0,0.0,0.0,0.0,10.0,-0.230097118183,0.0186421276306,0.166847042293,1.0,0.0,0.0,0.0,1.0,0.0,0.0,0.0,1.0,-0.0263452148438,-0.698148193359,10.1512902832,0.1,0.0,0.0,0.0,0.1,0.0,0.0,0.0,0.1
1446038007390842763,71,1446038007387465000,robocape,11.278572809,5.33991472615,-18.365767504,0.0,10.0,0.0,0.0,0.0,10.0,0.0,0.0,0.0,10.0,-0.0106526443603,0.00585895439817,0.134090160885,1.0,0.0,0.0,0.0,1.0,0.0,0.0,0.0,1.0,-0.142503662109,-1.25139770508,9.97884887695,0.1,0.0,0.0,0.0,0.1,0.0,0.0,0.0,0.1
1446038007422916721,72,1446038007419645071,robocape,11.739458475,5.33326572261,-18.3402102744,0.0,10.0,0.0,0.0,0.0,10.0,0.0,0.0,0.0,10.0,0.256196096866,0.00372842552611,-0.0105194863058,1.0,0.0,0.0,0.0,1.0,0.0,0.0,0.0,1.0,-0.546064453125,0.216749267578,10.1225500488,0.1,0.0,0.0,0.0,0.1,0.0,0.0,0.0,0.1
1446038007455465055,73,1446038007452390909,robocape,12.2690373982,5.32458724419,-18.2689624855,0.0,10.0,0.0,0.0,0.0,10.0,0.0,0.0,0.0,10.0,0.290817191037,0.00772316716123,0.0127831732324,1.0,0.0,0.0,0.0,1.0,0.0,0.0,0.0,1.0,0.320932617188,0.0993933105469,10.2363134766,0.1,0.0,0.0,0.0,0.1,0.0,0.0,0.0,0.1
1446038007488572805,74,1446038007485215902,robocape,12.8540805359,5.31918203042,-18.2069622458,0.0,10.0,0.0,0.0,0.0,10.0,0.0,0.0,0.0,10.0,0.321843017736,0.00878843159726,0.0066579027252,1.0,0.0,0.0,0.0,1.0,0.0,0.0,0.0,1.0,-0.0610729980469,1.32684082031,9.96447875977,0.1,0.0,0.0,0.0,0.1,0.0,0.0,0.0,0.1
1446038007521641096,75,1446038007518532991,robocape,13.167166989,5.32572052244,-18.2060053154,0.0,10.0,0.0,0.0,0.0,10.0,0.0,0.0,0.0,10.0,0.181760744398,0.00759000910673,-0.0243679239742,1.0,0.0,0.0,0.0,1.0,0.0,0.0,0.0,1.0,-0.0706530761719,1.37833374023,9.99561401367,0.1,0.0,0.0,0.0,0.1,0.0,0.0,0.0,0.1
1446038007555153263,76,1446038007552171945,robocape,13.2283066165,5.35877415365,-18.2703613271,0.0,10.0,0.0,0.0,0.0,10.0,0.0,0.0,0.0,10.0,0.052064799311,0.0130494893414,-0.0593884923088,1.0,0.0,0.0,0.0,1.0,0.0,0.0,0.0,1.0,0.241896972656,2.7590625,9.67468139648,0.1,0.0,0.0,0.0,0.1,0.0,0.0,0.0,0.1
1446038007588235638,77,1446038007585150957,robocape,12.6050862487,5.34533701635,-17.9701960035,0.0,10.0,0.0,0.0,0.0,10.0,0.0,0.0,0.0,10.0,-0.333960400696,0.0298274042089,0.144343331082,1.0,0.0,0.0,0.0,1.0,0.0,0.0,0.0,1.0,0.0598754882813,1.98187866211,10.1105749512,0.1,0.0,0.0,0.0,0.1,0.0,0.0,0.0,0.1
1446038007621187763,78,1446038007618113040,robocape,12.1991236376,5.3790001726,-17.9659790497,0.0,10.0,0.0,0.0,0.0,10.0,0.0,0.0,0.0,10.0,-0.20133497841,0.0206394984481,-0.017976337358,1.0,0.0,0.0,0.0,1.0,0.0,0.0,0.0,1.0,-0.09580078125,1.1076965332,9.91059082031,0.1,0.0,0.0,0.0,0.1,0.0,0.0,0.0,0.1
1446038007654760763,79,1446038007651745080,robocape,11.8545329315,5.42296386154,-17.9157534013,0.0,10.0,0.0,0.0,0.0,10.0,0.0,0.0,0.0,10.0,-0.17177389031,0.0310258266994,0.00452737385313,1.0,0.0,0.0,0.0,1.0,0.0,0.0,0.0,1.0,-0.0874182128906,-0.656235351563,10.3357067871,0.1,0.0,0.0,0.0,0.1,0.0,0.0,0.0,0.1
1446038007687882638,80,1446038007684782981,robocape,12.1203847951,5.53741108965,-18.3213044485,0.0,10.0,0.0,0.0,0.0,10.0,0.0,0.0,0.0,10.0,0.179630215526,0.0202400242846,-0.248606087759,1.0,0.0,0.0,0.0,1.0,0.0,0.0,0.0,1.0,-0.143701171875,0.705333251953,10.1536853027,0.1,0.0,0.0,0.0,0.1,0.0,0.0,0.0,0.1
1446038007721134471,81,1446038007718132972,robocape,12.1050925003,5.6113412232,-18.4615041217,0.0,10.0,0.0,0.0,0.0,10.0,0.0,0.0,0.0,10.0,0.0149137021044,0.0268979270098,-0.102798018077,1.0,0.0,0.0,0.0,1.0,0.0,0.0,0.0,1.0,0.102985839844,1.22145996094,9.91298583984,0.1,0.0,0.0,0.0,0.1,0.0,0.0,0.0,0.1
1446038007754503971,82,1446038007751514911,robocape,12.0224324993,5.7021340864,-18.7011406589,0.0,10.0,0.0,0.0,0.0,10.0,0.0,0.0,0.0,10.0,-0.0145142279409,0.0250337142467,-0.156593872097,1.0,0.0,0.0,0.0,1.0,0.0,0.0,0.0,1.0,-0.184416503906,0.546064453125,10.0483044434,0.1,0.0,0.0,0.0,0.1,0.0,0.0,0.0,0.1
1446038007787742430,83,1446038007784702062,robocape,11.9091444751,5.80942219511,-19.0507875799,0.0,10.0,0.0,0.0,0.0,10.0,0.0,0.0,0.0,10.0,-0.0235689756472,0.0222373951022,-0.216514996623,1.0,0.0,0.0,0.0,1.0,0.0,0.0,0.0,1.0,0.0131726074219,1.10170898438,9.98962646484,0.1,0.0,0.0,0.0,0.1,0.0,0.0,0.0,0.1
1446038007824955930,84,1446038007821248054,robocape,11.482689954,5.87209944595,-19.2292317911,0.0,10.0,0.0,0.0,0.0,10.0,0.0,0.0,0.0,10.0,-0.200669188137,0.0173105470855,-0.118643826563,1.0,0.0,0.0,0.0,1.0,0.0,0.0,0.0,1.0,-0.0107775878906,1.72201904297,9.91897338867,0.1,0.0,0.0,0.0,0.1,0.0,0.0,0.0,0.1
1446038007854383055,85,1446038007851242065,robocape,10.7721665857,5.8795647714,-19.088546862,0.0,10.0,0.0,0.0,0.0,10.0,0.0,0.0,0.0,10.0,-0.372043604284,0.0205063403936,0.0584563859272,1.0,0.0,0.0,0.0,1.0,0.0,0.0,0.0,1.0,-0.0490979003906,0.182021484375,10.1021923828,0.1,0.0,0.0,0.0,0.1,0.0,0.0,0.0,0.1
1446038007887915388,86,1446038007884768962,robocape,10.3575071841,5.89073940423,-18.9886392631,0.0,10.0,0.0,0.0,0.0,10.0,0.0,0.0,0.0,10.0,-0.213186045261,0.0186421276306,0.0339553038985,1.0,0.0,0.0,0.0,1.0,0.0,0.0,0.0,1.0,-0.0946032714844,-0.481398925781,10.213560791,0.1,0.0,0.0,0.0,0.1,0.0,0.0,0.0,0.1
1446038007921377263,87,1446038007918277978,robocape,10.1518524656,5.90414386247,-18.9305177217,0.0,10.0,0.0,0.0,0.0,10.0,0.0,0.0,0.0,10.0,-0.100268015041,0.0162452826495,0.0099868540878,1.0,0.0,0.0,0.0,1.0,0.0,0.0,0.0,1.0,-0.259859619141,-0.275427246094,10.1069824219,0.1,0.0,0.0,0.0,0.1,0.0,0.0,0.0,0.1
1446038007954855638,88,1446038007951632022,robocape,10.0951397503,5.91894410778,-18.845791514,0.0,10.0,0.0,0.0,0.0,10.0,0.0,0.0,0.0,10.0,-0.0233026595382,0.0195742340121,0.0227700273202,1.0,0.0,0.0,0.0,1.0,0.0,0.0,0.0,1.0,-0.203576660156,-0.453856201172,9.96807128906,0.1,0.0,0.0,0.0,0.1,0.0,0.0,0.0,0.1
1446038007995736888,89,1446038007987567901,robocape,10.1918129697,5.931825352,-18.7881133473,0.0,10.0,0.0,0.0,0.0,10.0,0.0,0.0,0.0,10.0,0.0595216503633,0.0165115987585,0.00745685105222,1.0,0.0,0.0,0.0,1.0,0.0,0.0,0.0,1.0,-0.233514404297,-0.00598754882813,9.94771362305,0.1,0.0,0.0,0.0,0.1,0.0,0.0,0.0,0.1
1446038008026274346,90,1446038008022241115,robocape,10.2085968088,5.90680960318,-18.5522347547,0.0,10.0,0.0,0.0,0.0,10.0,0.0,0.0,0.0,10.0,0.00599211245268,0.0126500151779,0.10612696944,1.0,0.0,0.0,0.0,1.0,0.0,0.0,0.0,1.0,-0.0179626464844,0.227526855469,9.88424560547,0.1,0.0,0.0,0.0,0.1,0.0,0.0,0.0,0.1
1446038008060687263,91,1446038008055229902,robocape,10.1873564123,5.82182508803,-18.0252778225,0.0,10.0,0.0,0.0,0.0,10.0,0.0,0.0,0.0,10.0,-0.0323574072445,0.00745685105222,0.266316109008,1.0,0.0,0.0,0.0,1.0,0.0,0.0,0.0,1.0,0.104183349609,-0.647852783203,10.0722546387,0.1,0.0,0.0,0.0,0.1,0.0,0.0,0.0,0.1
1446038008093126638,92,1446038008089541912,robocape,10.6720729336,5.80858020824,-17.9430187064,0.0,10.0,0.0,0.0,0.0,10.0,0.0,0.0,0.0,10.0,0.263386631809,0.00599211245268,0.0210389726116,1.0,0.0,0.0,0.0,1.0,0.0,0.0,0.0,1.0,-0.457448730469,-0.780776367188,10.3201391602,0.1,0.0,0.0,0.0,0.1,0.0,0.0,0.0,0.1
1446038008125962513,93,1446038008122747898,robocape,11.3148005532,5.84524585528,-17.9405514869,0.0,10.0,0.0,0.0,0.0,10.0,0.0,0.0,0.0,10.0,0.353135160545,0.0247673981377,-0.0278300333913,1.0,0.0,0.0,0.0,1.0,0.0,0.0,0.0,1.0,-0.76640625,0.399968261719,9.98723144531,0.1,0.0,0.0,0.0,0.1,0.0,0.0,0.0,0.1
1446038008159336013,94,1446038008156218051,robocape,11.9089122881,5.84071374556,-17.9925606556,0.0,10.0,0.0,0.0,0.0,10.0,0.0,0.0,0.0,10.0,0.331829871824,-0.00213052887206,-0.0521979573656,1.0,0.0,0.0,0.0,1.0,0.0,0.0,0.0,1.0,0.880169677734,1.34719848633,9.51541259766,0.1,0.0,0.0,0.0,0.1,0.0,0.0,0.0,0.1
1446038008192730472,95,1446038008189161062,robocape,12.2550369246,5.85495988293,-17.9015766693,0.0,10.0,0.0,0.0,0.0,10.0,0.0,0.0,0.0,10.0,0.192147072649,0.0219710789932,0.0225037112112,1.0,0.0,0.0,0.0,1.0,0.0,0.0,0.0,1.0,-0.00838256835938,1.6058605957,10.4015698242,0.1,0.0,0.0,0.0,0.1,0.0,0.0,0.0,0.1
1446038008224198472,96,1446038008220741987,robocape,12.2988853228,5.8695093863,-17.8741373952,0.0,10.0,0.0,0.0,0.0,10.0,0.0,0.0,0.0,10.0,0.0359526747161,0.0147805440499,-0.00798948327024,1.0,0.0,0.0,0.0,1.0,0.0,0.0,0.0,1.0,0.225131835938,1.51125732422,9.95609619141,0.1,0.0,0.0,0.0,0.1,0.0,0.0,0.0,0.1
1446038008258071972,97,1446038008254884004,robocape,12.2596366498,5.94838141391,-18.041501152,0.0,10.0,0.0,0.0,0.0,10.0,0.0,0.0,0.0,10.0,0.00452737385313,0.0266316109008,-0.1167796138,1.0,0.0,0.0,0.0,1.0,0.0,0.0,0.0,1.0,-0.0838256835938,1.53161499023,9.99441650391,0.1,0.0,0.0,0.0,0.1,0.0,0.0,0.0,0.1
1446038008290559430,98,1446038008287298917,robocape,11.9496691341,6.02989171048,-18.2574281365,0.0,10.0,0.0,0.0,0.0,10.0,0.0,0.0,0.0,10.0,-0.136087531703,0.0226368692657,-0.140082273338,1.0,0.0,0.0,0.0,1.0,0.0,0.0,0.0,1.0,-0.0634680175781,1.59628051758,9.99321899414,0.1,0.0,0.0,0.0,0.1,0.0,0.0,0.0,0.1
1446038008323684180,99,1446038008320475101,robocape,11.461985231,6.08147768284,-18.34334631,0.0,10.0,0.0,0.0,0.0,10.0,0.0,0.0,0.0,10.0,-0.239151865889,0.0211721306661,-0.066845343361,1.0,0.0,0.0,0.0,1.0,0.0,0.0,0.0,1.0,0.21076171875,1.74117919922,9.91777587891,0.1,0.0,0.0,0.0,0.1,0.0,0.0,0.0,0.1
1446038008357840055,100,1446038008354806900,robocape,10.5822096607,6.08439469627,-18.2034906576,0.0,10.0,0.0,0.0,0.0,10.0,0.0,0.0,0.0,10.0,-0.462191607183,0.017710021249,0.0609863889628,1.0,0.0,0.0,0.0,1.0,0.0,0.0,0.0,1.0,-0.154478759766,0.348475341797,10.1141674805,0.1,0.0,0.0,0.0,0.1,0.0,0.0,0.0,0.1
1446038008390731180,101,1446038008387644052,robocape,9.69563442368,6.03435414989,-17.8317265883,0.0,10.0,0.0,0.0,0.0,10.0,0.0,0.0,0.0,10.0,-0.480966892868,0.00985369603329,0.188551805178,1.0,0.0,0.0,0.0,1.0,0.0,0.0,0.0,1.0,0.0562829589844,0.126936035156,9.9596887207,0.1,0.0,0.0,0.0,0.1,0.0,0.0,0.0,0.1
1446038008422961805,102,1446038008419929981,robocape,8.99214141065,5.95867958901,-17.3377258915,0.0,10.0,0.0,0.0,0.0,10.0,0.0,0.0,0.0,10.0,-0.391884154405,0.00426105774413,0.253932409939,1.0,0.0,0.0,0.0,1.0,0.0,0.0,0.0,1.0,-0.264649658203,-1.69806884766,10.0782421875,0.1,0.0,0.0,0.0,0.1,0.0,0.0,0.0,0.1
1446038008457944222,103,1446038008454924106,robocape,9.00170002597,5.95716210229,-17.2735572488,0.0,10.0,0.0,0.0,0.0,10.0,0.0,0.0,0.0,10.0,0.0111852765783,0.00892158965177,0.0157126504315,1.0,0.0,0.0,0.0,1.0,0.0,0.0,0.0,1.0,-0.656235351563,-0.452658691406,9.99561401367,0.1,0.0,0.0,0.0,0.1,0.0,0.0,0.0,0.1
1446038008490586888,104,1446038008487277030,robocape,9.14135135475,5.98281965301,-17.2247072835,0.0,10.0,0.0,0.0,0.0,10.0,0.0,0.0,0.0,10.0,0.0809600971384,0.0221042370477,0.00439421579863,1.0,0.0,0.0,0.0,1.0,0.0,0.0,0.0,1.0,-0.237106933594,-1.39869140625,10.1979931641,0.1,0.0,0.0,0.0,0.1,0.0,0.0,0.0,0.1
1446038008523296055,105,1446038008520184040,robocape,9.6261631407,5.99248483481,-17.1442246922,0.0,10.0,0.0,0.0,0.0,10.0,0.0,0.0,0.0,10.0,0.2616555771,0.017177389031,0.0199737081756,1.0,0.0,0.0,0.0,1.0,0.0,0.0,0.0,1.0,0.105380859375,-0.324525146484,10.1057849121,0.1,0.0,0.0,0.0,0.1,0.0,0.0,0.0,0.1
1446038008556937680,106,1446038008553603887,robocape,10.0707732868,5.98882903606,-16.9802051461,0.0,10.0,0.0,0.0,0.0,10.0,0.0,0.0,0.0,10.0,0.235822914527,0.017710021249,0.0652474467069,1.0,0.0,0.0,0.0,1.0,0.0,0.0,0.0,1.0,-0.262254638672,0.108973388672,10.0902172852,0.1,0.0,0.0,0.0,0.1,0.0,0.0,0.0,0.1
1446038008588932597,107,1446038008585699081,robocape,10.6128749963,6.01584004143,-17.0251630589,0.0,10.0,0.0,0.0,0.0,10.0,0.0,0.0,0.0,10.0,0.301336677342,0.015579492377,-0.0486026898939,1.0,0.0,0.0,0.0,1.0,0.0,0.0,0.0,1.0,-0.358055419922,0.354462890625,9.9285534668,0.1,0.0,0.0,0.0,0.1,0.0,0.0,0.0,0.1
1446038008621858930,108,1446038008618787050,robocape,11.035838651,6.03836987101,-17.0831852041,0.0,10.0,0.0,0.0,0.0,10.0,0.0,0.0,0.0,10.0,0.239950814216,0.0115847507418,-0.0545948023466,1.0,0.0,0.0,0.0,1.0,0.0,0.0,0.0,1.0,0.476608886719,1.37114868164,9.86388793945,0.1,0.0,0.0,0.0,0.1,0.0,0.0,0.0,0.1
1446038008655421055,109,1446038008652363061,robocape,11.1095570407,6.02286953881,-16.9012650878,0.0,10.0,0.0,0.0,0.0,10.0,0.0,0.0,0.0,10.0,0.0399474163512,0.0143810698864,0.0778974618848,1.0,0.0,0.0,0.0,1.0,0.0,0.0,0.0,1.0,-0.0467028808594,1.70166137695,10.1357226563,0.1,0.0,0.0,0.0,0.1,0.0,0.0,0.0,0.1
1446038008688422263,110,1446038008685231924,robocape,10.9164393899,6.01284899158,-16.6919438189,0.0,10.0,0.0,0.0,0.0,10.0,0.0,0.0,0.0,10.0,-0.103197492241,0.0191747598486,0.0941427445343,1.0,0.0,0.0,0.0,1.0,0.0,0.0,0.0,1.0,-0.176033935547,-0.166453857422,10.1680554199,0.1,0.0,0.0,0.0,0.1,0.0,0.0,0.0,0.1
1446038008721517888,111,1446038008718488931,robocape,10.9641777042,6.01779984687,-16.6143710268,0.0,10.0,0.0,0.0,0.0,10.0,0.0,0.0,0.0,10.0,0.0326237233535,0.0146473859954,0.0218379209386,1.0,0.0,0.0,0.0,1.0,0.0,0.0,0.0,1.0,0.0431103515625,0.952020263672,9.81119750977,0.1,0.0,0.0,0.0,0.1,0.0,0.0,0.0,0.1
1446038008754699264,112,1446038008751687049,robocape,10.8710404147,6.02346823082,-16.4623015628,0.0,10.0,0.0,0.0,0.0,10.0,0.0,0.0,0.0,10.0,-0.0467384771309,0.0218379209386,0.0620516533988,1.0,0.0,0.0,0.0,1.0,0.0,0.0,0.0,1.0,-0.0550854492188,-0.322130126953,10.1848205566,0.1,0.0,0.0,0.0,0.1,0.0,0.0,0.0,0.1
1446038008788282180,113,1446038008785084962,robocape,11.1035733837,6.07824166587,-16.6065042599,0.0,10.0,0.0,0.0,0.0,10.0,0.0,0.0,0.0,10.0,0.144742805246,0.0194410759576,-0.100800647259,1.0,0.0,0.0,0.0,1.0,0.0,0.0,0.0,1.0,-0.231119384766,-0.067060546875,10.0471069336,0.1,0.0,0.0,0.0,0.1,0.0,0.0,0.0,0.1
1446038008821212764,114,1446038008818191051,robocape,11.3078980213,6.14480519585,-16.8108981714,0.0,10.0,0.0,0.0,0.0,10.0,0.0,0.0,0.0,10.0,0.13422331894,0.0193079179031,-0.133823844776,1.0,0.0,0.0,0.0,1.0,0.0,0.0,0.0,1.0,-0.0395178222656,0.920885009766,9.98962646484,0.1,0.0,0.0,0.0,0.1,0.0,0.0,0.0,0.1
1446038008854842972,115,1446038008851453065,robocape,11.3261989412,6.21918461667,-17.0236125574,0.0,10.0,0.0,0.0,0.0,10.0,0.0,0.0,0.0,10.0,0.0366184649886,0.0219710789932,-0.137951744466,1.0,0.0,0.0,0.0,1.0,0.0,0.0,0.0,1.0,-0.00598754882813,1.28971801758,10.0207617188,0.1,0.0,0.0,0.0,0.1,0.0,0.0,0.0,0.1
1446038008888178055,116,1446038008884910106,robocape,11.0627356083,6.29248058072,-17.2603824169,0.0,10.0,0.0,0.0,0.0,10.0,0.0,0.0,0.0,10.0,-0.111053817456,0.0187752856851,-0.148338072717,1.0,0.0,0.0,0.0,1.0,0.0,0.0,0.0,1.0,0.0203576660156,2.04295166016,9.94891113281,0.1,0.0,0.0,0.0,0.1,0.0,0.0,0.0,0.1
1446038008920971055,117,1446038008917963981,robocape,10.3973265103,6.30942449639,-17.1523849532,0.0,10.0,0.0,0.0,0.0,10.0,0.0,0.0,0.0,10.0,-0.347143048092,0.0222373951022,0.0418116291142,1.0,0.0,0.0,0.0,1.0,0.0,0.0,0.0,1.0,-0.1149609375,0.602347412109,10.1656604004,0.1,0.0,0.0,0.0,0.1,0.0,0.0,0.0,0.1
1446038008954732972,118,1446038008951498985,robocape,9.62510456872,6.27600638426,-16.8201597698,0.0,10.0,0.0,0.0,0.0,10.0,0.0,0.0,0.0,10.0,-0.418782081415,0.0149137021044,0.165648619803,1.0,0.0,0.0,0.0,1.0,0.0,0.0,0.0,1.0,0.107775878906,-0.0335302734375,9.91418334961,0.1,0.0,0.0,0.0,0.1,0.0,0.0,0.0,0.1
1446038008992421805,119,1446038008986352920,robocape,8.95390138699,6.1811895482,-16.3753347645,0.0,10.0,0.0,0.0,0.0,10.0,0.0,0.0,0.0,10.0,-0.372842552611,-0.00972053797879,0.229830802074,1.0,0.0,0.0,0.0,1.0,0.0,0.0,0.0,1.0,-0.0730480957031,-1.20589233398,10.0351318359,0.1,0.0,0.0,0.0,0.1,0.0,0.0,0.0,0.1
1446038009022253597,120,1446038009019244909,robocape,8.88262177221,6.16862107668,-16.1735130554,0.0,10.0,0.0,0.0,0.0,10.0,0.0,0.0,0.0,10.0,-0.0406132066237,0.0138484376684,0.0909469512262,1.0,0.0,0.0,0.0,1.0,0.0,0.0,0.0,1.0,-0.433498535156,-1.83218994141,10.208770752,0.1,0.0,0.0,0.0,0.1,0.0,0.0,0.0,0.1
1446038009054677055,121,1446038009051568984,robocape,9.39704564645,6.22467097522,-16.2632825747,0.0,10.0,0.0,0.0,0.0,10.0,0.0,0.0,0.0,10.0,0.287488239674,0.0278300333913,-0.0721716655411,1.0,0.0,0.0,0.0,1.0,0.0,0.0,0.0,1.0,0.0275427246094,-1.46215942383,10.1500927734,0.1,0.0,0.0,0.0,0.1,0.0,0.0,0.0,0.1
1446038009087947264,122,1446038009084880113,robocape,10.068804673,6.25514182688,-16.3551275101,0.0,10.0,0.0,0.0,0.0,10.0,0.0,0.0,0.0,10.0,0.371777288175,0.0142479118319,-0.0727042977592,1.0,0.0,0.0,0.0,1.0,0.0,0.0,0.0,1.0,-0.308957519531,1.19750976562,9.99082397461,0.1,0.0,0.0,0.0,0.1,0.0,0.0,0.0,0.1
1446038009121282680,123,1446038009118246078,robocape,10.4384689679,6.2671359751,-16.3076817933,0.0,10.0,0.0,0.0,0.0,10.0,0.0,0.0,0.0,10.0,0.203864981446,0.016112124595,0.00372842552611,1.0,0.0,0.0,0.0,1.0,0.0,0.0,0.0,1.0,-0.237106933594,0.473016357422,10.213560791,0.1,0.0,0.0,0.0,0.1,0.0,0.0,0.0,0.1
1446038009154849139,124,1446038009151860952,robocape,10.8248969146,6.30488108136,-16.3569224618,0.0,10.0,0.0,0.0,0.0,10.0,0.0,0.0,0.0,10.0,0.219710789932,0.0206394984481,-0.049934270439,1.0,0.0,0.0,0.0,1.0,0.0,0.0,0.0,1.0,0.120948486328,0.447868652344,9.89262817383,0.1,0.0,0.0,0.0,0.1,0.0,0.0,0.0,0.1
1446038009188439722,125,1446038009185409069,robocape,11.0542525871,6.3211883828,-16.3703946123,0.0,10.0,0.0,0.0,0.0,10.0,0.0,0.0,0.0,10.0,0.134622793104,0.0125168571234,-0.0280963495003,1.0,0.0,0.0,0.0,1.0,0.0,0.0,0.0,1.0,0.261057128906,1.62142822266,9.83754272461,0.1,0.0,0.0,0.0,0.1,0.0,0.0,0.0,0.1
1446038009221603180,126,1446038009218588113,robocape,10.8770210529,6.30660808181,-16.2135223231,0.0,10.0,0.0,0.0,0.0,10.0,0.0,0.0,0.0,10.0,-0.0920122156622,0.0119842249054,0.0675111336335,1.0,0.0,0.0,0.0,1.0,0.0,0.0,0.0,1.0,-0.106578369141,1.73040161133,10.0650695801,0.1,0.0,0.0,0.0,0.1,0.0,0.0,0.0,0.1
1446038009254807680,127,1446038009251811027,robocape,10.4947568862,6.28147505998,-15.892103145,0.0,10.0,0.0,0.0,0.0,10.0,0.0,0.0,0.0,10.0,-0.211588148607,0.0210389726116,0.156593872097,1.0,0.0,0.0,0.0,1.0,0.0,0.0,0.0,1.0,0.0562829589844,-0.673000488281,10.254276123,0.1,0.0,0.0,0.0,0.1,0.0,0.0,0.0,0.1
1446038009287880347,128,1446038009284852027,robocape,10.4230380557,6.30523542015,-15.9133826568,0.0,10.0,0.0,0.0,0.0,10.0,0.0,0.0,0.0,10.0,-0.0250337142467,0.0150468601589,-0.0296942461544,1.0,0.0,0.0,0.0,1.0,0.0,0.0,0.0,1.0,-0.168848876953,0.407153320313,9.84712280273,0.1,0.0,0.0,0.0,0.1,0.0,0.0,0.0,0.1
1446038009321171680,129,1446038009318135023,robocape,10.3377607729,6.31902650677,-15.870660826,0.0,10.0,0.0,0.0,0.0,10.0,0.0,0.0,0.0,10.0,-0.0364853069341,0.0157126504315,0.00492684801665,1.0,0.0,0.0,0.0,1.0,0.0,0.0,0.0,1.0,-0.197589111328,0.209564208984,10.0471069336,0.1,0.0,0.0,0.0,0.1,0.0,0.0,0.0,0.1
1446038009354292764,130,1446038009351288080,robocape,10.1212656436,6.29116571566,-15.6321524011,0.0,10.0,0.0,0.0,0.0,10.0,0.0,0.0,0.0,10.0,-0.118910142672,0.0113184346328,0.11265171411,1.0,0.0,0.0,0.0,1.0,0.0,0.0,0.0,1.0,0.0443078613281,0.17244140625,9.9980090332,0.1,0.0,0.0,0.0,0.1,0.0,0.0,0.0,0.1
1446038009388194889,131,1446038009385109901,robocape,10.0275495871,6.24458722447,-15.32046986,0.0,10.0,0.0,0.0,0.0,10.0,0.0,0.0,0.0,10.0,-0.0588558600908,0.00798948327024,0.152199656298,1.0,0.0,0.0,0.0,1.0,0.0,0.0,0.0,1.0,0.0826281738281,-0.439486083984,10.0087866211,0.1,0.0,0.0,0.0,0.1,0.0,0.0,0.0,0.1
1446038009421097972,132,1446038009418061971,robocape,10.2709726814,6.2379117101,-15.3028697744,0.0,10.0,0.0,0.0,0.0,10.0,0.0,0.0,0.0,10.0,0.138484376684,0.0034621094171,-0.00759000910673,1.0,0.0,0.0,0.0,1.0,0.0,0.0,0.0,1.0,-0.484991455078,0.777183837891,10.1153649902,0.1,0.0,0.0,0.0,0.1,0.0,0.0,0.0,0.1
1446038009455382889,133,1446038009452162981,robocape,10.3929657006,6.26395770815,-15.2474931214,0.0,10.0,0.0,0.0,0.0,10.0,0.0,0.0,0.0,10.0,0.0721716655411,0.0235689756472,0.00972053797879,1.0,0.0,0.0,0.0,1.0,0.0,0.0,0.0,1.0,-0.353265380859,0.441881103516,10.3452868652,0.1,0.0,0.0,0.0,0.1,0.0,0.0,0.0,0.1
1446038009488255347,134,1446038009484978914,robocape,10.5027650783,6.27755675929,-15.1979401493,0.0,10.0,0.0,0.0,0.0,10.0,0.0,0.0,0.0,10.0,0.0661795530885,0.016644756813,0.00798948327024,1.0,0.0,0.0,0.0,1.0,0.0,0.0,0.0,1.0,0.111368408203,-0.0371228027344,9.99920654297,0.1,0.0,0.0,0.0,0.1,0.0,0.0,0.0,0.1
1446038009521188181,135,1446038009517940998,robocape,10.7414305977,6.29157955843,-15.1633181579,0.0,10.0,0.0,0.0,0.0,10.0,0.0,0.0,0.0,10.0,0.135554899485,0.015845808486,-0.000798948327024,1.0,0.0,0.0,0.0,1.0,0.0,0.0,0.0,1.0,0.202379150391,0.0502954101563,9.95250366211,0.1,0.0,0.0,0.0,0.1,0.0,0.0,0.0,0.1
1446038009554720389,136,1446038009551359891,robocape,10.9467151953,6.30072413184,-15.1217694832,0.0,10.0,0.0,0.0,0.0,10.0,0.0,0.0,0.0,10.0,0.117711720182,0.0139815957229,0.0034621094171,1.0,0.0,0.0,0.0,1.0,0.0,0.0,0.0,1.0,-0.342487792969,0.710123291016,10.075847168,0.1,0.0,0.0,0.0,0.1,0.0,0.0,0.0,0.1
1446038009588323014,137,1446038009584908008,robocape,11.0590985255,6.31155865717,-15.0780311703,0.0,10.0,0.0,0.0,0.0,10.0,0.0,0.0,0.0,10.0,0.0685763980695,0.0149137021044,0.00506000607115,1.0,0.0,0.0,0.0,1.0,0.0,0.0,0.0,1.0,0.171243896484,0.671802978516,9.99920654297,0.1,0.0,0.0,0.0,0.1,0.0,0.0,0.0,0.1
1446038009621658847,138,1446038009618240118,robocape,11.0740982085,6.32846556007,-15.0316611088,0.0,10.0,0.0,0.0,0.0,10.0,0.0,0.0,0.0,10.0,0.016911072922,0.0181094954125,0.00652474467069,1.0,0.0,0.0,0.0,1.0,0.0,0.0,0.0,1.0,-0.0455053710938,0.874182128906,10.0746496582,0.1,0.0,0.0,0.0,0.1,0.0,0.0,0.0,0.1
1446038009654661472,139,1446038009651474952,robocape,10.9708172341,6.34577527892,-14.9831980005,0.0,10.0,0.0,0.0,0.0,10.0,0.0,0.0,0.0,10.0,-0.0459395288039,0.018242653467,0.00852211548825,1.0,0.0,0.0,0.0,1.0,0.0,0.0,0.0,1.0,0.0646655273438,0.629890136719,10.0219592285,0.1,0.0,0.0,0.0,0.1,0.0,0.0,0.0,0.1
1446038009688439556,140,1446038009685416936,robocape,10.8220481693,6.36667473422,-14.9346216673,0.0,10.0,0.0,0.0,0.0,10.0,0.0,0.0,0.0,10.0,-0.0701742947236,0.0199737081756,0.00865527354276,1.0,0.0,0.0,0.0,1.0,0.0,0.0,0.0,1.0,-0.0910107421875,0.499361572266,10.0698596191,0.1,0.0,0.0,0.0,0.1,0.0,0.0,0.0,0.1
1446038009722908431,141,1446038009719837903,robocape,10.6610905406,6.38644670546,-14.8877002459,0.0,10.0,0.0,0.0,0.0,10.0,0.0,0.0,0.0,10.0,-0.0766990393943,0.0191747598486,0.00812264132474,1.0,0.0,0.0,0.0,1.0,0.0,0.0,0.0,1.0,-0.0826281738281,0.237106933594,10.0590820312,0.1,0.0,0.0,0.0,0.1,0.0,0.0,0.0,0.1
1446038009756253806,142,1446038009752639055,robocape,10.6781462472,6.4292789403,-14.9187147632,0.0,10.0,0.0,0.0,0.0,10.0,0.0,0.0,0.0,10.0,0.0226368692657,0.0242347659197,-0.0360858327706,1.0,0.0,0.0,0.0,1.0,0.0,0.0,0.0,1.0,-0.067060546875,-0.644260253906,10.136920166,0.1,0.0,0.0,0.0,0.1,0.0,0.0,0.0,0.1
1446038009789587222,143,1446038009786324977,robocape,10.9048049843,6.49549138919,-15.2393757149,0.0,10.0,0.0,0.0,0.0,10.0,0.0,0.0,0.0,10.0,0.15313176268,0.00945422186978,-0.191348124322,1.0,0.0,0.0,0.0,1.0,0.0,0.0,0.0,1.0,-0.217946777344,2.6405090332,9.78485229492,0.1,0.0,0.0,0.0,0.1,0.0,0.0,0.0,0.1
1446038009822088556,144,1446038009819020032,robocape,10.6597363886,6.5306734587,-15.0953895362,0.0,10.0,0.0,0.0,0.0,10.0,0.0,0.0,0.0,10.0,-0.127565416215,0.0362189908251,0.0573911214912,1.0,0.0,0.0,0.0,1.0,0.0,0.0,0.0,1.0,-0.0934057617188,-0.67060546875,10.540480957,0.1,0.0,0.0,0.0,0.1,0.0,0.0,0.0,0.1
1446038009855195014,145,1446038009851970911,robocape,10.73387085,6.60073395819,-15.3100557662,0.0,10.0,0.0,0.0,0.0,10.0,0.0,0.0,0.0,10.0,0.0655137628159,0.0214384467751,-0.135554899485,1.0,0.0,0.0,0.0,1.0,0.0,0.0,0.0,1.0,-0.302969970703,0.821491699219,9.8902331543,0.1,0.0,0.0,0.0,0.1,0.0,0.0,0.0,0.1
1446038009888265431,146,1446038009885145902,robocape,10.6004217454,6.64568050424,-15.3672507004,0.0,10.0,0.0,0.0,0.0,10.0,0.0,0.0,0.0,10.0,-0.0549942765101,0.0227700273202,-0.0495347962755,1.0,0.0,0.0,0.0,1.0,0.0,0.0,0.0,1.0,0.117355957031,0.104183349609,9.92975097656,0.1,0.0,0.0,0.0,0.1,0.0,0.0,0.0,0.1
1446038009921591514,147,1446038009918488025,robocape,10.6057757438,6.7410804334,-15.7113512804,0.0,10.0,0.0,0.0,0.0,10.0,0.0,0.0,0.0,10.0,0.0383495196971,0.0227700273202,-0.205729194209,1.0,0.0,0.0,0.0,1.0,0.0,0.0,0.0,1.0,-0.280217285156,0.174836425781,10.0614770508,0.1,0.0,0.0,0.0,0.1,0.0,0.0,0.0,0.1
1446038009954843056,148,1446038009951762914,robocape,10.5685764323,6.85163530426,-16.1546608878,0.0,10.0,0.0,0.0,0.0,10.0,0.0,0.0,0.0,10.0,0.0233026595382,0.0215716048296,-0.259525048228,1.0,0.0,0.0,0.0,1.0,0.0,0.0,0.0,1.0,-0.0490979003906,1.05021606445,10.0471069336,0.1,0.0,0.0,0.0,0.1,0.0,0.0,0.0,0.1
1446038009992322847,149,1446038009986229896,robocape,10.1932603184,6.91794485549,-16.3996130964,0.0,10.0,0.0,0.0,0.0,10.0,0.0,0.0,0.0,10.0,-0.169510203384,0.0167779148675,-0.149270179099,1.0,0.0,0.0,0.0,1.0,0.0,0.0,0.0,1.0,-0.0526904296875,1.63220581055,9.90460327148,0.1,0.0,0.0,0.0,0.1,0.0,0.0,0.0,0.1
1446038010023452597,150,1446038010020363092,robocape,9.56431797406,6.94208172939,-16.3611369465,0.0,10.0,0.0,0.0,0.0,10.0,0.0,0.0,0.0,10.0,-0.324106704663,0.0198405501211,0.00519316412565,1.0,0.0,0.0,0.0,1.0,0.0,0.0,0.0,1.0,0.0778381347656,-0.397573242188,10.193203125,0.1,0.0,0.0,0.0,0.1,0.0,0.0,0.0,0.1
1446038010054684597,151,1446038010051614046,robocape,9.14305027591,6.97532516825,-16.3422549456,0.0,10.0,0.0,0.0,0.0,10.0,0.0,0.0,0.0,10.0,-0.213319203315,0.0234358175927,-0.00732369299772,1.0,0.0,0.0,0.0,1.0,0.0,0.0,0.0,1.0,-0.0934057617188,-0.663420410156,10.0710571289,0.1,0.0,0.0,0.0,0.1,0.0,0.0,0.0,0.1
1446038010088141014,152,1446038010085089921,robocape,9.01886604692,7.02889094231,-16.5358020345,0.0,10.0,0.0,0.0,0.0,10.0,0.0,0.0,0.0,10.0,-0.0415453130052,0.0181094954125,-0.122771726253,1.0,0.0,0.0,0.0,1.0,0.0,0.0,0.0,1.0,-0.589174804688,-0.300574951172,9.87586303711,0.1,0.0,0.0,0.0,0.1,0.0,0.0,0.0,0.1
1446038010121199889,153,1446038010118144989,robocape,8.90073417319,7.06862590252,-16.64552941,0.0,10.0,0.0,0.0,0.0,10.0,0.0,0.0,0.0,10.0,-0.0443416321498,0.017710021249,-0.0777643038303,1.0,0.0,0.0,0.0,1.0,0.0,0.0,0.0,1.0,0.0490979003906,-0.323327636719,10.0842297363,0.1,0.0,0.0,0.0,0.1,0.0,0.0,0.0,0.1
1446038010155041639,154,1446038010152033090,robocape,8.80433145291,7.08150681943,-16.6096469958,0.0,10.0,0.0,0.0,0.0,10.0,0.0,0.0,0.0,10.0,-0.0434095257683,0.0150468601589,0.000932106381528,1.0,0.0,0.0,0.0,1.0,0.0,0.0,0.0,1.0,-0.143701171875,0.15328125,10.2027832031,0.1,0.0,0.0,0.0,0.1,0.0,0.0,0.0,0.1
1446038010187973389,155,1446038010184948921,robocape,8.84790103303,7.09297260597,-16.5298190095,0.0,10.0,0.0,0.0,0.0,10.0,0.0,0.0,0.0,10.0,0.0272974011733,0.017976337358,0.0233026595382,1.0,0.0,0.0,0.0,1.0,0.0,0.0,0.0,1.0,-0.108973388672,-0.874182128906,10.1417102051,0.1,0.0,0.0,0.0,0.1,0.0,0.0,0.0,0.1
1446038010221294598,156,1446038010218278884,robocape,9.04319819935,7.1045466282,-16.4547192171,0.0,10.0,0.0,0.0,0.0,10.0,0.0,0.0,0.0,10.0,0.107858024148,0.0181094954125,0.0198405501211,1.0,0.0,0.0,0.0,1.0,0.0,0.0,0.0,1.0,-0.178428955078,-0.148491210938,10.075847168,0.1,0.0,0.0,0.0,0.1,0.0,0.0,0.0,0.1
1446038010254898139,157,1446038010251892089,robocape,9.31507217653,7.12679448264,-16.4608304561,0.0,10.0,0.0,0.0,0.0,10.0,0.0,0.0,0.0,10.0,0.154463343225,0.0175768631945,-0.0243679239742,1.0,0.0,0.0,0.0,1.0,0.0,0.0,0.0,1.0,-0.342487792969,0.144898681641,10.0578845215,0.1,0.0,0.0,0.0,0.1,0.0,0.0,0.0,0.1
1446038010288065264,158,1446038010285034894,robocape,9.62030804815,7.16567484224,-16.5916535356,0.0,10.0,0.0,0.0,0.0,10.0,0.0,0.0,0.0,10.0,0.181627586343,0.016112124595,-0.0918790576077,1.0,0.0,0.0,0.0,1.0,0.0,0.0,0.0,1.0,-0.0898132324219,0.271834716797,10.0722546387,0.1,0.0,0.0,0.0,0.1,0.0,0.0,0.0,0.1
1446038010321085014,159,1446038010318061113,robocape,10.034861547,7.24072769366,-16.9407979243,0.0,10.0,0.0,0.0,0.0,10.0,0.0,0.0,0.0,10.0,0.25632925492,0.0162452826495,-0.211321832498,1.0,0.0,0.0,0.0,1.0,0.0,0.0,0.0,1.0,-0.119750976563,0.816701660156,10.0866247559,0.1,0.0,0.0,0.0,0.1,0.0,0.0,0.0,0.1
1446038010354718973,160,1446038010351618051,robocape,9.98817262752,7.29798159818,-17.1456700819,0.0,10.0,0.0,0.0,0.0,10.0,0.0,0.0,0.0,10.0,0.00226368692657,0.0178431793035,-0.131160683686,1.0,0.0,0.0,0.0,1.0,0.0,0.0,0.0,1.0,0.353265380859,2.14114746094,9.89143066406,0.1,0.0,0.0,0.0,0.1,0.0,0.0,0.0,0.1
1446038010389238431,161,1446038010386221885,robocape,9.50877074701,7.32908142747,-17.2334046245,0.0,10.0,0.0,0.0,0.0,10.0,0.0,0.0,0.0,10.0,-0.235556598418,0.0135821215594,-0.0639158661619,1.0,0.0,0.0,0.0,1.0,0.0,0.0,0.0,1.0,-0.113763427734,1.16996704102,10.0051940918,0.1,0.0,0.0,0.0,0.1,0.0,0.0,0.0,0.1
1446038010421122431,162,1446038010418090105,robocape,8.82928361073,7.33925839778,-17.2094121712,0.0,10.0,0.0,0.0,0.0,10.0,0.0,0.0,0.0,10.0,-0.350072525291,0.0115847507418,-0.00173105470855,1.0,0.0,0.0,0.0,1.0,0.0,0.0,0.0,1.0,0.0981958007813,0.113763427734,10.039921875,0.1,0.0,0.0,0.0,0.1,0.0,0.0,0.0,0.1
1446038010454590139,163,1446038010451308012,robocape,8.18565932474,7.3121698911,-17.168844491,0.0,10.0,0.0,0.0,0.0,10.0,0.0,0.0,0.0,10.0,-0.33289513626,-0.00652474467069,0.00985369603329,1.0,0.0,0.0,0.0,1.0,0.0,0.0,0.0,1.0,-0.0838256835938,-0.36404296875,10.1944006348,0.1,0.0,0.0,0.0,0.1,0.0,0.0,0.0,0.1
1446038010488067181,164,1446038010484972953,robocape,7.63664661617,7.31147540942,-17.1914500067,0.0,10.0,0.0,0.0,0.0,10.0,0.0,0.0,0.0,10.0,-0.278699808077,0.00306263525359,-0.0263652947918,1.0,0.0,0.0,0.0,1.0,0.0,0.0,0.0,1.0,-0.680185546875,-0.233514404297,10.0914147949,0.1,0.0,0.0,0.0,0.1,0.0,0.0,0.0,0.1
1446038010521824639,165,1446038010518012046,robocape,7.117346182,7.31184107782,-17.1120697869,0.0,10.0,0.0,0.0,0.0,10.0,0.0,0.0,0.0,10.0,-0.270843482861,0.0102531701968,0.0271642431188,1.0,0.0,0.0,0.0,1.0,0.0,0.0,0.0,1.0,-0.0275427246094,-0.358055419922,10.0291442871,0.1,0.0,0.0,0.0,0.1,0.0,0.0,0.0,0.1
1446038010554617764,166,1446038010551384925,robocape,6.64271330814,7.30571195128,-17.023875223,0.0,10.0,0.0,0.0,0.0,10.0,0.0,0.0,0.0,10.0,-0.24833977165,0.00719053494321,0.0320910911355,1.0,0.0,0.0,0.0,1.0,0.0,0.0,0.0,1.0,0.0706530761719,-0.28740234375,10.0495019531,0.1,0.0,0.0,0.0,0.1,0.0,0.0,0.0,0.1
1446038010588080223,167,1446038010584692955,robocape,6.28243961662,7.30158332406,-16.9640966346,0.0,10.0,0.0,0.0,0.0,10.0,0.0,0.0,0.0,10.0,-0.186421276306,0.0066579027252,0.016378440704,1.0,0.0,0.0,0.0,1.0,0.0,0.0,0.0,1.0,-0.176033935547,-0.613125,10.0099841309,0.1,0.0,0.0,0.0,0.1,0.0,0.0,0.0,0.1
1446038010621616389,168,1446038010618341922,robocape,6.0785031243,7.31199399054,-16.9522861696,0.0,10.0,0.0,0.0,0.0,10.0,0.0,0.0,0.0,10.0,-0.100933805314,0.0119842249054,-0.0106526443603,1.0,0.0,0.0,0.0,1.0,0.0,0.0,0.0,1.0,-0.131726074219,-1.07416625977,10.0506994629,0.1,0.0,0.0,0.0,0.1,0.0,0.0,0.0,0.1
1446038010654655723,169,1446038010651351928,robocape,6.04443408152,7.32811296552,-16.9008286468,0.0,10.0,0.0,0.0,0.0,10.0,0.0,0.0,0.0,10.0,-0.0145142279409,0.0173105470855,0.00918790576077,1.0,0.0,0.0,0.0,1.0,0.0,0.0,0.0,1.0,-0.0526904296875,-1.08374633789,10.0794396973,0.1,0.0,0.0,0.0,0.1,0.0,0.0,0.0,0.1
1446038010688054931,170,1446038010684703111,robocape,6.16345842886,7.35121948207,-16.8490042413,0.0,10.0,0.0,0.0,0.0,10.0,0.0,0.0,0.0,10.0,0.066046395034,0.0213052887206,0.00825579937925,1.0,0.0,0.0,0.0,1.0,0.0,0.0,0.0,1.0,0.0934057617188,-0.736468505859,10.0950073242,0.1,0.0,0.0,0.0,0.1,0.0,0.0,0.0,0.1
1446038010721441098,171,1446038010718035936,robocape,6.34828916793,7.38230936759,-16.8021217669,0.0,10.0,0.0,0.0,0.0,10.0,0.0,0.0,0.0,10.0,0.101200121423,0.0254331884103,0.00479368996214,1.0,0.0,0.0,0.0,1.0,0.0,0.0,0.0,1.0,-0.243094482422,-0.36404296875,10.0183666992,0.1,0.0,0.0,0.0,0.1,0.0,0.0,0.0,0.1
1446038010755031723,172,1446038010751698017,robocape,6.55568214299,7.41209063146,-16.7575508799,0.0,10.0,0.0,0.0,0.0,10.0,0.0,0.0,0.0,10.0,0.113450662437,0.0247673981377,0.0034621094171,1.0,0.0,0.0,0.0,1.0,0.0,0.0,0.0,1.0,-0.0742456054688,-0.173638916016,10.060279541,0.1,0.0,0.0,0.0,0.1,0.0,0.0,0.0,0.1
1446038010787983264,173,1446038010784805059,robocape,6.76094258152,7.43701073899,-16.7144456753,0.0,10.0,0.0,0.0,0.0,10.0,0.0,0.0,0.0,10.0,0.11265171411,0.0222373951022,0.00292947719909,1.0,0.0,0.0,0.0,1.0,0.0,0.0,0.0,1.0,-0.168848876953,-0.1149609375,10.0734521484,0.1,0.0,0.0,0.0,0.1,0.0,0.0,0.0,0.1
1446038010821150306,174,1446038010818037033,robocape,6.92580930307,7.46087001653,-16.6825806245,0.0,10.0,0.0,0.0,0.0,10.0,0.0,0.0,0.0,10.0,0.0924116898257,0.0210389726116,-0.00279631914458,1.0,0.0,0.0,0.0,1.0,0.0,0.0,0.0,1.0,-0.09580078125,0.0814306640625,10.075847168,0.1,0.0,0.0,0.0,0.1,0.0,0.0,0.0,0.1
1446038010854927348,175,1446038010851490974,robocape,7.04333738342,7.48117336403,-16.6455187029,0.0,10.0,0.0,0.0,0.0,10.0,0.0,0.0,0.0,10.0,0.0672448175245,0.0194410759576,0.000399474163512,1.0,0.0,0.0,0.0,1.0,0.0,0.0,0.0,1.0,-0.102985839844,0.0455053710938,10.080637207,0.1,0.0,0.0,0.0,0.1,0.0,0.0,0.0,0.1
1446038010887793848,176,1446038010884756088,robocape,7.11904242815,7.49961579216,-16.6025620947,0.0,10.0,0.0,0.0,0.0,10.0,0.0,0.0,0.0,10.0,0.0448742643678,0.0187752856851,0.00386158358061,1.0,0.0,0.0,0.0,1.0,0.0,0.0,0.0,1.0,-0.140108642578,-0.0227526855469,10.0734521484,0.1,0.0,0.0,0.0,0.1,0.0,0.0,0.0,0.1
1446038010921563723,177,1446038010918117046,robocape,7.17106198005,7.51508138258,-16.5512091109,0.0,10.0,0.0,0.0,0.0,10.0,0.0,0.0,0.0,10.0,0.0318247750264,0.017710021249,0.00865527354276,1.0,0.0,0.0,0.0,1.0,0.0,0.0,0.0,1.0,-0.132923583984,0.0347277832031,10.0566870117,0.1,0.0,0.0,0.0,0.1,0.0,0.0,0.0,0.1
1446038010955141598,178,1446038010951596021,robocape,7.02933068259,7.50454348936,-16.3010989635,0.0,10.0,0.0,0.0,0.0,10.0,0.0,0.0,0.0,10.0,-0.085087996828,0.015579492377,0.116513297691,1.0,0.0,0.0,0.0,1.0,0.0,0.0,0.0,1.0,-0.123343505859,-0.0299377441406,10.0375268555,0.1,0.0,0.0,0.0,0.1,0.0,0.0,0.0,0.1
1446038010992382765,179,1446038010986638069,robocape,7.07370474304,7.51924629972,-16.2507885107,0.0,10.0,0.0,0.0,0.0,10.0,0.0,0.0,0.0,10.0,0.0276968753368,0.017177389031,0.00865527354276,1.0,0.0,0.0,0.0,1.0,0.0,0.0,0.0,1.0,-0.105380859375,-0.63228515625,10.0938098145,0.1,0.0,0.0,0.0,0.1,0.0,0.0,0.0,0.1
1446038011023412348,180,1446038011019248962,robocape,7.12390186461,7.53261987673,-16.1784533275,0.0,10.0,0.0,0.0,0.0,10.0,0.0,0.0,0.0,10.0,0.0291616139364,0.0178431793035,0.0203731823391,1.0,0.0,0.0,0.0,1.0,0.0,0.0,0.0,1.0,-0.0922082519531,-0.209564208984,10.0950073242,0.1,0.0,0.0,0.0,0.1,0.0,0.0,0.0,0.1
1446038011056305890,181,1446038011053018093,robocape,7.00228889685,7.51824558428,-15.8985331942,0.0,10.0,0.0,0.0,0.0,10.0,0.0,0.0,0.0,10.0,-0.0768321974488,0.015313176268,0.13275858034,1.0,0.0,0.0,0.0,1.0,0.0,0.0,0.0,1.0,-0.141306152344,0.370030517578,10.0231567383,0.1,0.0,0.0,0.0,0.1,0.0,0.0,0.0,0.1
1446038011089263015,182,1446038011086167097,robocape,6.77715889725,7.45754594355,-15.3045906543,0.0,10.0,0.0,0.0,0.0,10.0,0.0,0.0,0.0,10.0,-0.154596501279,0.00865527354276,0.302135625669,1.0,0.0,0.0,0.0,1.0,0.0,0.0,0.0,1.0,-0.184416503906,-0.422720947266,10.0495019531,0.1,0.0,0.0,0.0,0.1,0.0,0.0,0.0,0.1
1446038011123363515,183,1446038011119376897,robocape,6.629723913,7.39173329801,-14.5661245051,0.0,10.0,0.0,0.0,0.0,10.0,0.0,0.0,0.0,10.0,-0.123970148743,0.0133158054504,0.3784351909,1.0,0.0,0.0,0.0,1.0,0.0,0.0,0.0,1.0,-0.0167651367188,-1.91841064453,9.86029541016,0.1,0.0,0.0,0.0,0.1,0.0,0.0,0.0,0.1
1446038011156728306,184,1446038011153017044,robocape,7.23262608755,7.38818532457,-14.3496473482,0.0,10.0,0.0,0.0,0.0,10.0,0.0,0.0,0.0,10.0,0.309193002558,0.018242653467,0.0970722217334,1.0,0.0,0.0,0.0,1.0,0.0,0.0,0.0,1.0,-0.0047900390625,-2.22138061523,10.2794238281,0.1,0.0,0.0,0.0,0.1,0.0,0.0,0.0,0.1
1446038011188438348,185,1446038011185250043,robocape,8.36501491219,7.4573364763,-14.6033001099,0.0,10.0,0.0,0.0,0.0,10.0,0.0,0.0,0.0,10.0,0.623978643406,0.0276968753368,-0.157925452642,1.0,0.0,0.0,0.0,1.0,0.0,0.0,0.0,1.0,-0.0155676269531,-1.08973388672,10.0339343262,0.1,0.0,0.0,0.0,0.1,0.0,0.0,0.0,0.1
1446038011223175556,186,1446038011219686031,robocape,9.71058049987,7.51769590349,-14.9134589573,0.0,10.0,0.0,0.0,0.0,10.0,0.0,0.0,0.0,10.0,0.743687734405,0.016644756813,-0.190016543777,1.0,0.0,0.0,0.0,1.0,0.0,0.0,0.0,1.0,-0.534089355469,1.90763305664,10.100994873,0.1,0.0,0.0,0.0,0.1,0.0,0.0,0.0,0.1
1446038011259202056,187,1446038011255238056,robocape,10.2946905076,7.53644958509,-14.8369181982,0.0,10.0,0.0,0.0,0.0,10.0,0.0,0.0,0.0,10.0,0.314119850575,0.0241016078652,0.0187752856851,1.0,0.0,0.0,0.0,1.0,0.0,0.0,0.0,1.0,-0.866997070313,1.88368286133,10.0075891113,0.1,0.0,0.0,0.0,0.1,0.0,0.0,0.0,0.1
1446038011289799973,188,1446038011286546945,robocape,10.7112429509,7.55301860884,-14.8495979397,0.0,10.0,0.0,0.0,0.0,10.0,0.0,0.0,0.0,10.0,0.233026595382,0.0147805440499,-0.0267647689553,1.0,0.0,0.0,0.0,1.0,0.0,0.0,0.0,1.0,0.894539794922,1.12326416016,9.9668737793,0.1,0.0,0.0,0.0,0.1,0.0,0.0,0.0,0.1
1446038011326854473,189,1446038011322887897,robocape,10.7657880614,7.57959931897,-14.868140943,0.0,10.0,0.0,0.0,0.0,10.0,0.0,0.0,0.0,10.0,0.0422111032778,0.0183758115215,-0.0284958236638,1.0,0.0,0.0,0.0,1.0,0.0,0.0,0.0,1.0,-0.392783203125,2.02858154297,10.2423010254,0.1,0.0,0.0,0.0,0.1,0.0,0.0,0.0,0.1
1446038011355547931,190,1446038011352375984,robocape,10.3954079735,7.59182692347,-14.7911737886,0.0,10.0,0.0,0.0,0.0,10.0,0.0,0.0,0.0,10.0,-0.190282859886,0.0185089695761,0.0258326625738,1.0,0.0,0.0,0.0,1.0,0.0,0.0,0.0,1.0,0.0898132324219,1.50047973633,9.94771362305,0.1,0.0,0.0,0.0,0.1,0.0,0.0,0.0,0.1
1446038011392875765,191,1446038011389017105,robocape,9.93148252864,7.61939416584,-14.7489963238,0.0,10.0,0.0,0.0,0.0,10.0,0.0,0.0,0.0,10.0,-0.237420811181,0.0229031853747,0.00705737688871,1.0,0.0,0.0,0.0,1.0,0.0,0.0,0.0,1.0,0.076640625,0.522114257812,10.0566870117,0.1,0.0,0.0,0.0,0.1,0.0,0.0,0.0,0.1
1446038011424183556,192,1446038011418797016,robocape,9.58216958048,7.66731611254,-14.886162366,0.0,10.0,0.0,0.0,0.0,10.0,0.0,0.0,0.0,10.0,-0.163384932876,0.0186421276306,-0.0890827384632,1.0,0.0,0.0,0.0,1.0,0.0,0.0,0.0,1.0,-0.233514404297,0.360450439453,10.1189575195,0.1,0.0,0.0,0.0,0.1,0.0,0.0,0.0,0.1
1446038011459290098,193,1446038011455615043,robocape,8.9991150298,7.68815452634,-14.8362359886,0.0,10.0,0.0,0.0,0.0,10.0,0.0,0.0,0.0,10.0,-0.301602993451,0.0195742340121,0.0126500151779,1.0,0.0,0.0,0.0,1.0,0.0,0.0,0.0,1.0,-0.119750976563,0.0455053710938,9.99920654297,0.1,0.0,0.0,0.0,0.1,0.0,0.0,0.0,0.1
1446038011492791848,194,1446038011489233970,robocape,8.53641330277,7.69617471997,-14.8454929364,0.0,10.0,0.0,0.0,0.0,10.0,0.0,0.0,0.0,10.0,-0.233958701763,0.00865527354276,-0.0178431793035,1.0,0.0,0.0,0.0,1.0,0.0,0.0,0.0,1.0,-0.192799072266,-0.481398925781,10.080637207,0.1,0.0,0.0,0.0,0.1,0.0,0.0,0.0,0.1
1446038011525997890,195,1446038011522125959,robocape,8.36557994957,7.76689508454,-15.1452675755,0.0,10.0,0.0,0.0,0.0,10.0,0.0,0.0,0.0,10.0,-0.0577905956547,0.0211721306661,-0.176967054436,1.0,0.0,0.0,0.0,1.0,0.0,0.0,0.0,1.0,-0.3065625,-0.855021972656,10.177635498,0.1,0.0,0.0,0.0,0.1,0.0,0.0,0.0,0.1
1446038011558531015,196,1446038011555104970,robocape,8.56390615375,7.84699216945,-15.6117500482,0.0,10.0,0.0,0.0,0.0,10.0,0.0,0.0,0.0,10.0,0.150335443535,0.0150468601589,-0.267914005662,1.0,0.0,0.0,0.0,1.0,0.0,0.0,0.0,1.0,-0.122145996094,0.102985839844,10.1417102051,0.1,0.0,0.0,0.0,0.1,0.0,0.0,0.0,0.1
1446038011592797515,197,1446038011588162899,robocape,8.42441396135,7.91476932943,-15.9877285049,0.0,10.0,0.0,0.0,0.0,10.0,0.0,0.0,0.0,10.0,-0.0344879361165,0.0143810698864,-0.218246051332,1.0,0.0,0.0,0.0,1.0,0.0,0.0,0.0,1.0,-0.136516113281,1.23702758789,10.0016015625,0.1,0.0,0.0,0.0,0.1,0.0,0.0,0.0,0.1
1446038011625971015,198,1446038011621948957,robocape,7.98305257826,7.95019123636,-16.2876300822,0.0,10.0,0.0,0.0,0.0,10.0,0.0,0.0,0.0,10.0,-0.19987023981,0.0031957933081,-0.174303893346,1.0,0.0,0.0,0.0,1.0,0.0,0.0,0.0,1.0,-0.0658630371094,1.11847412109,9.97046630859,0.1,0.0,0.0,0.0,0.1,0.0,0.0,0.0,0.1
1446038011659125140,199,1446038011655978918,robocape,7.15100969757,7.91773130322,-16.2655053728,0.0,10.0,0.0,0.0,0.0,10.0,0.0,0.0,0.0,10.0,-0.431698412702,-0.0107858024148,0.00226368692657,1.0,0.0,0.0,0.0,1.0,0.0,0.0,0.0,1.0,-0.0610729980469,0.726888427734,10.1405126953,0.1,0.0,0.0,0.0,0.1,0.0,0.0,0.0,0.1
1446038011691515973,200,1446038011688040971,robocape,6.06801780894,7.87161270721,-16.1725561294,0.0,10.0,0.0,0.0,0.0,10.0,0.0,0.0,0.0,10.0,-0.569783315222,-0.0146473859954,0.0414121549507,1.0,0.0,0.0,0.0,1.0,0.0,0.0,0.0,1.0,-0.44068359375,-0.294587402344,10.0866247559,0.1,0.0,0.0,0.0,0.1,0.0,0.0,0.0,0.1
1446038011725277265,201,1446038011721728086,robocape,5.06225307435,7.82907395548,-16.1105268409,0.0,10.0,0.0,0.0,0.0,10.0,0.0,0.0,0.0,10.0,-0.527172737781,-0.0146473859954,0.0237021337017,1.0,0.0,0.0,0.0,1.0,0.0,0.0,0.0,1.0,-0.160466308594,-0.681383056641,10.0231567383,0.1,0.0,0.0,0.0,0.1,0.0,0.0,0.0,0.1
1446038011757394848,202,1446038011754034996,robocape,4.3595938632,7.78205858639,-16.0752233295,0.0,10.0,0.0,0.0,0.0,10.0,0.0,0.0,0.0,10.0,-0.36631780794,-0.017710021249,0.00785632521573,1.0,0.0,0.0,0.0,1.0,0.0,0.0,0.0,1.0,-0.150886230469,-1.68848876953,10.0746496582,0.1,0.0,0.0,0.0,0.1,0.0,0.0,0.0,0.1
1446038011790254890,203,1446038011787044048,robocape,4.05826049609,7.78205017337,-16.063321075,0.0,10.0,0.0,0.0,0.0,10.0,0.0,0.0,0.0,10.0,-0.154063869061,0.0067910607797,-0.00838895743375,1.0,0.0,0.0,0.0,1.0,0.0,0.0,0.0,1.0,0.349672851562,-2.28484863281,9.99681152344,0.1,0.0,0.0,0.0,0.1,0.0,0.0,0.0,0.1
1446038011824653348,204,1446038011821552991,robocape,4.18750210212,7.80640479487,-16.0320956534,0.0,10.0,0.0,0.0,0.0,10.0,0.0,0.0,0.0,10.0,0.0705737688871,0.0209058145571,-0.00066579027252,1.0,0.0,0.0,0.0,1.0,0.0,0.0,0.0,1.0,-0.086220703125,-2.1112097168,10.0159716797,0.1,0.0,0.0,0.0,0.1,0.0,0.0,0.0,0.1
1446038011857210015,205,1446038011853785037,robocape,4.6347452985,7.86393655003,-16.0096153206,0.0,10.0,0.0,0.0,0.0,10.0,0.0,0.0,0.0,10.0,0.238619233671,0.0386158358061,-0.00798948327024,1.0,0.0,0.0,0.0,1.0,0.0,0.0,0.0,1.0,0.161663818359,-1.31726074219,10.0423168945,0.1,0.0,0.0,0.0,0.1,0.0,0.0,0.0,0.1
1446038011890638265,206,1446038011887245893,robocape,5.20398009505,7.91715846845,-15.9696358047,0.0,10.0,0.0,0.0,0.0,10.0,0.0,0.0,0.0,10.0,0.302002467615,0.0374174133156,0.000532632218016,1.0,0.0,0.0,0.0,1.0,0.0,0.0,0.0,1.0,-0.126936035156,-0.508941650391,10.0530944824,0.1,0.0,0.0,0.0,0.1,0.0,0.0,0.0,0.1
1446038011924115223,207,1446038011921035051,robocape,5.69295646111,7.96335628383,-15.924396462,0.0,10.0,0.0,0.0,0.0,10.0,0.0,0.0,0.0,10.0,0.260057680446,0.034088461953,0.0034621094171,1.0,0.0,0.0,0.0,1.0,0.0,0.0,0.0,1.0,-0.461041259766,0.149688720703,9.96567626953,0.1,0.0,0.0,0.0,0.1,0.0,0.0,0.0,0.1
1446038011957659432,208,1446038011954199075,robocape,6.06259326477,8.00015313569,-15.8955803681,0.0,10.0,0.0,0.0,0.0,10.0,0.0,0.0,0.0,10.0,0.199071291483,0.0283626656093,-0.00452737385313,1.0,0.0,0.0,0.0,1.0,0.0,0.0,0.0,1.0,-0.149688720703,0.559237060547,10.1656604004,0.1,0.0,0.0,0.0,0.1,0.0,0.0,0.0,0.1
1446038011996562723,209,1446038011989473104,robocape,6.22163830967,8.02579298412,-15.8631834091,0.0,10.0,0.0,0.0,0.0,10.0,0.0,0.0,0.0,10.0,0.0882837901361,0.0223705531567,-0.00119842249054,1.0,0.0,0.0,0.0,1.0,0.0,0.0,0.0,1.0,-0.086220703125,0.518521728516,10.1824255371,0.1,0.0,0.0,0.0,0.1,0.0,0.0,0.0,0.1
1446038012024174307,210,1446038012021119117,robocape,6.14480473288,8.03620014152,-15.8036145031,0.0,10.0,0.0,0.0,0.0,10.0,0.0,0.0,0.0,10.0,-0.0379500455336,0.015313176268,0.0151800182135,1.0,0.0,0.0,0.0,1.0,0.0,0.0,0.0,1.0,-0.184416503906,0.528101806641,10.0818347168,0.1,0.0,0.0,0.0,0.1,0.0,0.0,0.0,0.1
1446038012057393890,211,1446038012054193973,robocape,5.84716411883,8.02919508978,-15.7287936593,0.0,10.0,0.0,0.0,0.0,10.0,0.0,0.0,0.0,10.0,-0.155528607661,0.00639158661619,0.0254331884103,1.0,0.0,0.0,0.0,1.0,0.0,0.0,0.0,1.0,-0.142503662109,0.203576660156,10.0387243652,0.1,0.0,0.0,0.0,0.1,0.0,0.0,0.0,0.1
1446038012088933640,212,1446038012085741043,robocape,5.42558514432,8.00264348698,-15.5403920313,0.0,10.0,0.0,0.0,0.0,10.0,0.0,0.0,0.0,10.0,-0.229830802074,0.000932106381528,0.0870853676456,1.0,0.0,0.0,0.0,1.0,0.0,0.0,0.0,1.0,-0.155676269531,0.277822265625,10.0746496582,0.1,0.0,0.0,0.0,0.1,0.0,0.0,0.0,0.1
1446038012121699890,213,1446038012118607044,robocape,4.97032038836,7.9770934137,-15.3867269967,0.0,10.0,0.0,0.0,0.0,10.0,0.0,0.0,0.0,10.0,-0.245143978342,-0.000798948327024,0.0689758722331,1.0,0.0,0.0,0.0,1.0,0.0,0.0,0.0,1.0,-0.346080322266,-1.09212890625,10.1896105957,0.1,0.0,0.0,0.0,0.1,0.0,0.0,0.0,0.1
1446038012155686223,214,1446038012152482986,robocape,4.81967074984,7.98233452965,-15.329067099,0.0,10.0,0.0,0.0,0.0,10.0,0.0,0.0,0.0,10.0,-0.0778974618848,0.0117179087963,0.0157126504315,1.0,0.0,0.0,0.0,1.0,0.0,0.0,0.0,1.0,0.0419128417969,-0.805924072266,10.1225500488,0.1,0.0,0.0,0.0,0.1,0.0,0.0,0.0,0.1
1446038012188737640,215,1446038012185554981,robocape,4.8487960619,8.00468664727,-15.3146419241,0.0,10.0,0.0,0.0,0.0,10.0,0.0,0.0,0.0,10.0,0.0198405501211,0.0193079179031,-0.00852211548825,1.0,0.0,0.0,0.0,1.0,0.0,0.0,0.0,1.0,0.0730480957031,-1.13164672852,10.039921875,0.1,0.0,0.0,0.0,0.1,0.0,0.0,0.0,0.1
1446038012222048515,216,1446038012218863010,robocape,4.98002859414,8.0281398695,-15.2698297252,0.0,10.0,0.0,0.0,0.0,10.0,0.0,0.0,0.0,10.0,0.0712395591596,0.0213052887206,0.00705737688871,1.0,0.0,0.0,0.0,1.0,0.0,0.0,0.0,1.0,-0.140108642578,-0.680185546875,10.0770446777,0.1,0.0,0.0,0.0,0.1,0.0,0.0,0.0,0.1
1446038012254950974,217,1446038012251733064,robocape,4.94643912378,8.02887157941,-15.0149461821,0.0,10.0,0.0,0.0,0.0,10.0,0.0,0.0,0.0,10.0,-0.0315584589174,0.0175768631945,0.119575932945,1.0,0.0,0.0,0.0,1.0,0.0,0.0,0.0,1.0,-0.154478759766,-0.270637207031,10.1488952637,0.1,0.0,0.0,0.0,0.1,0.0,0.0,0.0,0.1
1446038012287986140,218,1446038012284898996,robocape,4.80897622415,7.99404753025,-14.436661973,0.0,10.0,0.0,0.0,0.0,10.0,0.0,0.0,0.0,10.0,-0.111053817456,0.0113184346328,0.292281929636,1.0,0.0,0.0,0.0,1.0,0.0,0.0,0.0,1.0,0.136516113281,-0.908909912109,10.0219592285,0.1,0.0,0.0,0.0,0.1,0.0,0.0,0.0,0.1
1446038012321666724,219,1446038012318550109,robocape,4.96880351275,7.99127523689,-13.9946232616,0.0,10.0,0.0,0.0,0.0,10.0,0.0,0.0,0.0,10.0,0.0556600667827,0.0233026595382,0.218379209386,1.0,0.0,0.0,0.0,1.0,0.0,0.0,0.0,1.0,0.0311352539063,-2.47166015625,9.87107299805,0.1,0.0,0.0,0.0,0.1,0.0,0.0,0.0,0.1
1446038012354886224,220,1446038012351674079,robocape,5.73349336446,8.04727496878,-13.9885542182,0.0,10.0,0.0,0.0,0.0,10.0,0.0,0.0,0.0,10.0,0.407463646782,0.0378168874791,-0.0157126504315,1.0,0.0,0.0,0.0,1.0,0.0,0.0,0.0,1.0,0.0682580566406,-0.744851074219,10.1465002441,0.1,0.0,0.0,0.0,0.1,0.0,0.0,0.0,0.1
1446038012387819224,221,1446038012384665966,robocape,6.43639042589,8.09705588417,-14.0428458889,0.0,10.0,0.0,0.0,0.0,10.0,0.0,0.0,0.0,10.0,0.380698877827,0.0315584589174,-0.0476705835124,1.0,0.0,0.0,0.0,1.0,0.0,0.0,0.0,1.0,-0.437091064453,0.281414794922,10.0997973633,0.1,0.0,0.0,0.0,0.1,0.0,0.0,0.0,0.1
1446038012421163224,222,1446038012418122053,robocape,6.74502437419,8.10688236818,-13.8482427533,0.0,10.0,0.0,0.0,0.0,10.0,0.0,0.0,0.0,10.0,0.15433018517,0.0234358175927,0.0864195773731,1.0,0.0,0.0,0.0,1.0,0.0,0.0,0.0,1.0,0.0215551757813,1.05021606445,10.0159716797,0.1,0.0,0.0,0.0,0.1,0.0,0.0,0.0,0.1
1446038012454325140,223,1446038012451301097,robocape,6.75781677683,8.07492843651,-13.4614267619,0.0,10.0,0.0,0.0,0.0,10.0,0.0,0.0,0.0,10.0,-0.016378440704,0.0121173829599,0.191214966268,1.0,0.0,0.0,0.0,1.0,0.0,0.0,0.0,1.0,-0.219144287109,-0.258662109375,10.0985998535,0.1,0.0,0.0,0.0,0.1,0.0,0.0,0.0,0.1
1446038012487969057,224,1446038012484735965,robocape,6.80195293176,8.04361470437,-13.0598569823,0.0,10.0,0.0,0.0,0.0,10.0,0.0,0.0,0.0,10.0,-0.000932106381528,0.0134489635049,0.199071291483,1.0,0.0,0.0,0.0,1.0,0.0,0.0,0.0,1.0,-0.183218994141,-0.414338378906,10.0614770508,0.1,0.0,0.0,0.0,0.1,0.0,0.0,0.0,0.1
1446038012521217140,225,1446038012518102884,robocape,7.06466943794,8.07558736395,-13.0584379939,0.0,10.0,0.0,0.0,0.0,10.0,0.0,0.0,0.0,10.0,0.145541753573,0.0241016078652,-0.0150468601589,1.0,0.0,0.0,0.0,1.0,0.0,0.0,0.0,1.0,0.00718505859375,-1.40707397461,10.136920166,0.1,0.0,0.0,0.0,0.1,0.0,0.0,0.0,0.1
1446038012554779307,226,1446038012551614999,robocape,7.65622790602,8.1395191071,-13.3370092707,0.0,10.0,0.0,0.0,0.0,10.0,0.0,0.0,0.0,10.0,0.341417251748,0.0241016078652,-0.165382303694,1.0,0.0,0.0,0.0,1.0,0.0,0.0,0.0,1.0,0.0754431152344,0.589174804688,10.0626745605,0.1,0.0,0.0,0.0,0.1,0.0,0.0,0.0,0.1
1446038012588114890,227,1446038012584892988,robocape,7.92905360103,8.14956480111,-13.229765401,0.0,10.0,0.0,0.0,0.0,10.0,0.0,0.0,0.0,10.0,0.143544382755,0.0198405501211,0.0408795227327,1.0,0.0,0.0,0.0,1.0,0.0,0.0,0.0,1.0,-0.263452148438,-0.462238769531,10.3512744141,0.1,0.0,0.0,0.0,0.1,0.0,0.0,0.0,0.1
1446038012621507307,228,1446038012618482112,robocape,8.24265996244,8.17371660482,-13.2929294176,0.0,10.0,0.0,0.0,0.0,10.0,0.0,0.0,0.0,10.0,0.178964425253,0.015845808486,-0.049401638221,1.0,0.0,0.0,0.0,1.0,0.0,0.0,0.0,1.0,-0.0946032714844,1.35797607422,10.0315393066,0.1,0.0,0.0,0.0,0.1,0.0,0.0,0.0,0.1
1446038012654895807,229,1446038012651725053,robocape,8.00744566858,8.15023938079,-12.9807491657,0.0,10.0,0.0,0.0,0.0,10.0,0.0,0.0,0.0,10.0,-0.140348589447,0.015579492377,0.152732288516,1.0,0.0,0.0,0.0,1.0,0.0,0.0,0.0,1.0,-0.193996582031,0.445473632813,10.0698596191,0.1,0.0,0.0,0.0,0.1,0.0,0.0,0.0,0.1
1446038012688082557,230,1446038012684983968,robocape,7.81791222344,8.12966603874,-12.7411027644,0.0,10.0,0.0,0.0,0.0,10.0,0.0,0.0,0.0,10.0,-0.110654343293,0.0117179087963,0.114782242982,1.0,0.0,0.0,0.0,1.0,0.0,0.0,0.0,1.0,-0.0299377441406,-0.581989746094,10.080637207,0.1,0.0,0.0,0.0,0.1,0.0,0.0,0.0,0.1
1446038012721318765,231,1446038012718322038,robocape,7.88858302058,8.16108086887,-12.7552925028,0.0,10.0,0.0,0.0,0.0,10.0,0.0,0.0,0.0,10.0,0.0466053190764,0.0223705531567,-0.0225037112112,1.0,0.0,0.0,0.0,1.0,0.0,0.0,0.0,1.0,-0.0694555664063,-1.55436767578,10.1417102051,0.1,0.0,0.0,0.0,0.1,0.0,0.0,0.0,0.1
1446038012754576640,232,1446038012751378059,robocape,8.51670425061,8.23872616643,-13.1827580953,0.0,10.0,0.0,0.0,0.0,10.0,0.0,0.0,0.0,10.0,0.374174133156,0.0189084437396,-0.244478188069,1.0,0.0,0.0,0.0,1.0,0.0,0.0,0.0,1.0,-0.204774169922,0.67060546875,10.1668579102,0.1,0.0,0.0,0.0,0.1,0.0,0.0,0.0,0.1
1446038012787656890,233,1446038012784677982,robocape,8.74454922358,8.30048189876,-13.4118967656,0.0,10.0,0.0,0.0,0.0,10.0,0.0,0.0,0.0,10.0,0.148071756608,0.0227700273202,-0.138883850848,1.0,0.0,0.0,0.0,1.0,0.0,0.0,0.0,1.0,-0.152083740234,1.43222167969,10.1536853027,0.1,0.0,0.0,0.0,0.1,0.0,0.0,0.0,0.1
1446038012821233974,234,1446038012818231105,robocape,8.63835063842,8.36119806615,-13.6423188354,0.0,10.0,0.0,0.0,0.0,10.0,0.0,0.0,0.0,10.0,-0.0278300333913,0.0211721306661,-0.138084902521,1.0,0.0,0.0,0.0,1.0,0.0,0.0,0.0,1.0,0.150886230469,0.949625244141,10.024354248,0.1,0.0,0.0,0.0,0.1,0.0,0.0,0.0,0.1
1446038012855260307,235,1446038012851671934,robocape,8.44579175971,8.43469975611,-14.0453968559,0.0,10.0,0.0,0.0,0.0,10.0,0.0,0.0,0.0,10.0,-0.0591221761998,0.0154463343225,-0.229031853747,1.0,0.0,0.0,0.0,1.0,0.0,0.0,0.0,1.0,0.0323327636719,0.870589599609,9.96328125,0.1,0.0,0.0,0.0,0.1,0.0,0.0,0.0,0.1
1446038012888139515,236,1446038012885050058,robocape,7.97125438663,8.51074311968,-14.6332190444,0.0,10.0,0.0,0.0,0.0,10.0,0.0,0.0,0.0,10.0,-0.192546546813,0.00452737385313,-0.324772494935,1.0,0.0,0.0,0.0,1.0,0.0,0.0,0.0,1.0,-0.0143701171875,1.30169311523,9.99441650391,0.1,0.0,0.0,0.0,0.1,0.0,0.0,0.0,0.1
1446038012920885557,237,1446038012917867898,robocape,7.13074371053,8.53810072662,-15.0500098329,0.0,10.0,0.0,0.0,0.0,10.0,0.0,0.0,0.0,10.0,-0.40000679573,-0.00719053494321,-0.230496592346,1.0,0.0,0.0,0.0,1.0,0.0,0.0,0.0,1.0,-0.553249511719,0.90052734375,10.096204834,0.1,0.0,0.0,0.0,0.1,0.0,0.0,0.0,0.1
1446038012954500266,238,1446038012951282978,robocape,5.6772638836,8.50214937271,-15.0113787314,0.0,10.0,0.0,0.0,0.0,10.0,0.0,0.0,0.0,10.0,-0.76099828149,-0.0130494893414,0.0149137021044,1.0,0.0,0.0,0.0,1.0,0.0,0.0,0.0,1.0,-0.240699462891,0.913699951172,10.1189575195,0.1,0.0,0.0,0.0,0.1,0.0,0.0,0.0,0.1
1446038012995829307,239,1446038012984710931,robocape,4.30058733236,8.42422443927,-15.0231325679,0.0,10.0,0.0,0.0,0.0,10.0,0.0,0.0,0.0,10.0,-0.716922965449,-0.0368847810976,-0.0111852765783,1.0,0.0,0.0,0.0,1.0,0.0,0.0,0.0,1.0,-0.215551757813,-1.36995117188,10.0063916016,0.1,0.0,0.0,0.0,0.1,0.0,0.0,0.0,0.1
1446038013022118891,240,1446038013018923997,robocape,3.28110398017,8.34142562682,-15.0030442212,0.0,10.0,0.0,0.0,0.0,10.0,0.0,0.0,0.0,10.0,-0.532365901907,-0.0372842552611,0.00279631914458,1.0,0.0,0.0,0.0,1.0,0.0,0.0,0.0,1.0,0.130528564453,-2.60817626953,10.0147741699,0.1,0.0,0.0,0.0,0.1,0.0,0.0,0.0,0.1
1446038013055002599,241,1446038013051645994,robocape,2.77066008397,8.31223823691,-14.960429309,0.0,10.0,0.0,0.0,0.0,10.0,0.0,0.0,0.0,10.0,-0.267381373444,-0.00772316716123,0.0105194863058,1.0,0.0,0.0,0.0,1.0,0.0,0.0,0.0,1.0,0.524509277344,-3.05963745117,10.0123791504,0.1,0.0,0.0,0.0,0.1,0.0,0.0,0.0,0.1
1446038013087808599,242,1446038013084577083,robocape,2.86217674162,8.34191290869,-14.9329580368,0.0,10.0,0.0,0.0,0.0,10.0,0.0,0.0,0.0,10.0,0.0495347962755,0.0237021337017,-0.000798948327024,1.0,0.0,0.0,0.0,1.0,0.0,0.0,0.0,1.0,0.0359252929688,-3.00095947266,10.0339343262,0.1,0.0,0.0,0.0,0.1,0.0,0.0,0.0,0.1
1446038013121602224,243,1446038013118499994,robocape,3.45618685297,8.42618027547,-14.8913954683,0.0,10.0,0.0,0.0,0.0,10.0,0.0,0.0,0.0,10.0,0.312521953921,0.0535295379106,0.0034621094171,1.0,0.0,0.0,0.0,1.0,0.0,0.0,0.0,1.0,0.276624755859,-2.12318481445,9.98723144531,0.1,0.0,0.0,0.0,0.1,0.0,0.0,0.0,0.1
1446038013154724849,244,1446038013151499986,robocape,4.34865871626,8.522302962,-14.8638541311,0.0,10.0,0.0,0.0,0.0,10.0,0.0,0.0,0.0,10.0,0.47124635489,0.0601874406358,-0.00612527050718,1.0,0.0,0.0,0.0,1.0,0.0,0.0,0.0,1.0,-0.0047900390625,-1.05141357422,10.0423168945,0.1,0.0,0.0,0.0,0.1,0.0,0.0,0.0,0.1
1446038013188037099,245,1446038013184720039,robocape,5.19628670793,8.57538546341,-14.8080429245,0.0,10.0,0.0,0.0,0.0,10.0,0.0,0.0,0.0,10.0,0.446478956752,0.0390153099697,0.00958737992429,1.0,0.0,0.0,0.0,1.0,0.0,0.0,0.0,1.0,-0.465831298828,0.0263452148438,10.0483044434,0.1,0.0,0.0,0.0,0.1,0.0,0.0,0.0,0.1
1446038013221419182,246,1446038013218400001,robocape,5.89755358614,8.63408865056,-14.7825227806,0.0,10.0,0.0,0.0,0.0,10.0,0.0,0.0,0.0,10.0,0.37310886872,0.0408795227327,-0.00705737688871,1.0,0.0,0.0,0.0,1.0,0.0,0.0,0.0,1.0,-0.190404052734,0.562829589844,10.1261425781,0.1,0.0,0.0,0.0,0.1,0.0,0.0,0.0,0.1
1446038013254744057,247,1446038013251507043,robocape,6.39164903927,8.67935486309,-14.8008917135,0.0,10.0,0.0,0.0,0.0,10.0,0.0,0.0,0.0,10.0,0.268579795934,0.0314253008629,-0.0291616139364,1.0,0.0,0.0,0.0,1.0,0.0,0.0,0.0,1.0,-0.0634680175781,0.483793945313,10.0542919922,0.1,0.0,0.0,0.0,0.1,0.0,0.0,0.0,0.1
1446038013291083224,248,1446038013287707090,robocape,6.66844821946,8.70590401573,-14.7690839033,0.0,10.0,0.0,0.0,0.0,10.0,0.0,0.0,0.0,10.0,0.150468601589,0.0238352917562,-0.00106526443603,1.0,0.0,0.0,0.0,1.0,0.0,0.0,0.0,1.0,-0.126936035156,0.445473632813,10.0447119141,0.1,0.0,0.0,0.0,0.1,0.0,0.0,0.0,0.1
1446038013321459891,249,1446038013318280935,robocape,6.75230836806,8.71756680627,-14.7145434967,0.0,10.0,0.0,0.0,0.0,10.0,0.0,0.0,0.0,10.0,0.0471379512944,0.016911072922,0.0126500151779,1.0,0.0,0.0,0.0,1.0,0.0,0.0,0.0,1.0,-0.233514404297,0.675395507813,10.0662670898,0.1,0.0,0.0,0.0,0.1,0.0,0.0,0.0,0.1
1446038013356484641,250,1446038013352674007,robocape,6.49496724732,8.70395720832,-14.5653469198,0.0,10.0,0.0,0.0,0.0,10.0,0.0,0.0,0.0,10.0,-0.140614905556,0.00798948327024,0.0656469208705,1.0,0.0,0.0,0.0,1.0,0.0,0.0,0.0,1.0,-0.156873779297,0.678988037109,10.0506994629,0.1,0.0,0.0,0.0,0.1,0.0,0.0,0.0,0.1
1446038013389084724,251,1446038013385987043,robocape,5.97689557475,8.67530467693,-14.3105893473,0.0,10.0,0.0,0.0,0.0,10.0,0.0,0.0,0.0,10.0,-0.286955607456,0.00439421579863,0.123304358471,1.0,0.0,0.0,0.0,1.0,0.0,0.0,0.0,1.0,-0.128133544922,0.429906005859,10.0698596191,0.1,0.0,0.0,0.0,0.1,0.0,0.0,0.0,0.1
1446038013422646724,252,1446038013419411897,robocape,5.35173371905,8.64211133915,-14.08968208,0.0,10.0,0.0,0.0,0.0,10.0,0.0,0.0,0.0,10.0,-0.340751461476,-0.00106526443603,0.106393285549,1.0,0.0,0.0,0.0,1.0,0.0,0.0,0.0,1.0,-0.116158447266,-0.682580566406,10.0734521484,0.1,0.0,0.0,0.0,0.1,0.0,0.0,0.0,0.1
1446038013457002432,253,1446038013453382968,robocape,4.8205980859,8.61951905099,-14.0436737486,0.0,10.0,0.0,0.0,0.0,10.0,0.0,0.0,0.0,10.0,-0.277235069477,-0.00359526747161,0.0137152796139,1.0,0.0,0.0,0.0,1.0,0.0,0.0,0.0,1.0,-0.0981958007813,-0.890947265625,10.024354248,0.1,0.0,0.0,0.0,0.1,0.0,0.0,0.0,0.1
1446038013489325307,254,1446038013486255884,robocape,4.48911208704,8.61754661264,-14.063285313,0.0,10.0,0.0,0.0,0.0,10.0,0.0,0.0,0.0,10.0,-0.167246516457,0.00506000607115,-0.0225037112112,1.0,0.0,0.0,0.0,1.0,0.0,0.0,0.0,1.0,-0.148491210938,-1.2681628418,10.0471069336,0.1,0.0,0.0,0.0,0.1,0.0,0.0,0.0,0.1
1446038013522596266,255,1446038013519541978,robocape,4.34093419812,8.62571652994,-14.0572592976,0.0,10.0,0.0,0.0,0.0,10.0,0.0,0.0,0.0,10.0,-0.0732369299772,0.0117179087963,-0.0101200121423,1.0,0.0,0.0,0.0,1.0,0.0,0.0,0.0,1.0,-0.047900390625,-1.26936035156,10.0686621094,0.1,0.0,0.0,0.0,0.1,0.0,0.0,0.0,0.1
1446038013556712682,256,1446038013553633928,robocape,4.37172750619,8.64328809011,-14.0306524037,0.0,10.0,0.0,0.0,0.0,10.0,0.0,0.0,0.0,10.0,0.0190416017941,0.017710021249,-0.000266316109008,1.0,0.0,0.0,0.0,1.0,0.0,0.0,0.0,1.0,0.137713623047,-1.1879296875,10.100994873,0.1,0.0,0.0,0.0,0.1,0.0,0.0,0.0,0.1
1446038013589536557,257,1446038013586438894,robocape,4.56264245172,8.67055786954,-13.9918473177,0.0,10.0,0.0,0.0,0.0,10.0,0.0,0.0,0.0,10.0,0.102265385859,0.0235689756472,0.00519316412565,1.0,0.0,0.0,0.0,1.0,0.0,0.0,0.0,1.0,-0.107775878906,-1.18912719727,10.0794396973,0.1,0.0,0.0,0.0,0.1,0.0,0.0,0.0,0.1
1446038013625215766,258,1446038013621176004,robocape,4.88632912296,8.70789070064,-13.9579729831,0.0,10.0,0.0,0.0,0.0,10.0,0.0,0.0,0.0,10.0,0.172705996692,0.0290284558819,0.00159789665405,1.0,0.0,0.0,0.0,1.0,0.0,0.0,0.0,1.0,0.141306152344,-0.814306640625,10.0662670898,0.1,0.0,0.0,0.0,0.1,0.0,0.0,0.0,0.1
1446038013658852099,259,1446038013654426097,robocape,5.17226564199,8.73117379103,-13.8098694597,0.0,10.0,0.0,0.0,0.0,10.0,0.0,0.0,0.0,10.0,0.14367754081,0.0263652947918,0.0621848114534,1.0,0.0,0.0,0.0,1.0,0.0,0.0,0.0,1.0,-0.355660400391,-0.320932617188,9.93813354492,0.1,0.0,0.0,0.0,0.1,0.0,0.0,0.0,0.1
1446038013688555558,260,1446038013685528039,robocape,5.54664107384,8.77126906794,-13.8233893827,0.0,10.0,0.0,0.0,0.0,10.0,0.0,0.0,0.0,10.0,0.2039981395,0.0287621397729,-0.0238352917562,1.0,0.0,0.0,0.0,1.0,0.0,0.0,0.0,1.0,0.0275427246094,-0.531694335938,10.1117724609,0.1,0.0,0.0,0.0,0.1,0.0,0.0,0.0,0.1
1446038013724774058,261,1446038013721421003,robocape,5.79529753374,8.77868880068,-13.5976222842,0.0,10.0,0.0,0.0,0.0,10.0,0.0,0.0,0.0,10.0,0.118111194345,0.0225037112112,0.103596966404,1.0,0.0,0.0,0.0,1.0,0.0,0.0,0.0,1.0,-0.226329345703,0.370030517578,10.0878222656,0.1,0.0,0.0,0.0,0.1,0.0,0.0,0.0,0.1
1446038013757733474,262,1446038013754365921,robocape,6.1105799031,8.80592878906,-13.5818979189,0.0,10.0,0.0,0.0,0.0,10.0,0.0,0.0,0.0,10.0,0.171108100038,0.0233026595382,-0.00772316716123,1.0,0.0,0.0,0.0,1.0,0.0,0.0,0.0,1.0,-0.0898132324219,-0.820294189453,10.1285375977,0.1,0.0,0.0,0.0,0.1,0.0,0.0,0.0,0.1
1446038013792436724,263,1446038013787889957,robocape,6.48544185978,8.84238435479,-13.6247778859,0.0,10.0,0.0,0.0,0.0,10.0,0.0,0.0,0.0,10.0,0.207859723081,0.0253000303558,-0.0394147841332,1.0,0.0,0.0,0.0,1.0,0.0,0.0,0.0,1.0,-0.0922082519531,-0.536484375,10.1081799316,0.1,0.0,0.0,0.0,0.1,0.0,0.0,0.0,0.1
1446038013825211558,264,1446038013821860074,robocape,6.7960971873,8.86507167125,-13.5404381378,0.0,10.0,0.0,0.0,0.0,10.0,0.0,0.0,0.0,10.0,0.163651248985,0.0249005561922,0.0279631914458,1.0,0.0,0.0,0.0,1.0,0.0,0.0,0.0,1.0,-0.0981958007813,-0.342487792969,10.0506994629,0.1,0.0,0.0,0.0,0.1,0.0,0.0,0.0,0.1
1446038013857543516,265,1446038013853701114,robocape,7.26378124477,8.90134139601,-13.5531016009,0.0,10.0,0.0,0.0,0.0,10.0,0.0,0.0,0.0,10.0,0.25513083243,0.0270310850643,-0.0245010820287,1.0,0.0,0.0,0.0,1.0,0.0,0.0,0.0,1.0,-0.0754431152344,-0.579594726562,10.0854272461,0.1,0.0,0.0,0.0,0.1,0.0,0.0,0.0,0.1
1446038013890936391,266,1446038013887798070,robocape,7.79694219475,8.92921529056,-13.5499843496,0.0,10.0,0.0,0.0,0.0,10.0,0.0,0.0,0.0,10.0,0.288952978274,0.0238352917562,-0.016378440704,1.0,0.0,0.0,0.0,1.0,0.0,0.0,0.0,1.0,-0.148491210938,0.113763427734,10.1189575195,0.1,0.0,0.0,0.0,0.1,0.0,0.0,0.0,0.1
1446038013925325516,267,1446038013921610116,robocape,8.15742482974,8.93772235613,-13.4599732615,0.0,10.0,0.0,0.0,0.0,10.0,0.0,0.0,0.0,10.0,0.190948650159,0.0191747598486,0.0308926686449,1.0,0.0,0.0,0.0,1.0,0.0,0.0,0.0,1.0,-0.280217285156,1.00950073242,10.0255517578,0.1,0.0,0.0,0.0,0.1,0.0,0.0,0.0,0.1
1446038013958707641,268,1446038013955127954,robocape,8.11250775096,8.93743585273,-13.2938967761,0.0,10.0,0.0,0.0,0.0,10.0,0.0,0.0,0.0,10.0,-0.0292947719909,0.0187752856851,0.0732369299772,1.0,0.0,0.0,0.0,1.0,0.0,0.0,0.0,1.0,-0.0526904296875,0.640667724609,10.0866247559,0.1,0.0,0.0,0.0,0.1,0.0,0.0,0.0,0.1
1446038013999251558,269,1446038013990168094,robocape,7.98410137059,8.95192342015,-13.2571847972,0.0,10.0,0.0,0.0,0.0,10.0,0.0,0.0,0.0,10.0,-0.0621848114534,0.0173105470855,0.00532632218016,1.0,0.0,0.0,0.0,1.0,0.0,0.0,0.0,1.0,-0.0610729980469,0.526904296875,9.95729370117,0.1,0.0,0.0,0.0,0.1,0.0,0.0,0.0,0.1
1446038014024660641,270,1446038014021454095,robocape,7.78564790208,8.96685425575,-13.2843869993,0.0,10.0,0.0,0.0,0.0,10.0,0.0,0.0,0.0,10.0,-0.0937432703708,0.0130494893414,-0.0275637172823,1.0,0.0,0.0,0.0,1.0,0.0,0.0,0.0,1.0,-0.161663818359,-0.0047900390625,10.0375268555,0.1,0.0,0.0,0.0,0.1,0.0,0.0,0.0,0.1
1446038014058803391,271,1446038014055689096,robocape,7.57367422214,8.97296873774,-13.2287095933,0.0,10.0,0.0,0.0,0.0,10.0,0.0,0.0,0.0,10.0,-0.108257498312,0.0138484376684,0.016378440704,1.0,0.0,0.0,0.0,1.0,0.0,0.0,0.0,1.0,-0.067060546875,-0.341290283203,10.0902172852,0.1,0.0,0.0,0.0,0.1,0.0,0.0,0.0,0.1
1446038014091013183,272,1446038014087832927,robocape,7.42251812902,8.95956936404,-13.0190920255,0.0,10.0,0.0,0.0,0.0,10.0,0.0,0.0,0.0,10.0,-0.0897485287357,0.0134489635049,0.0978711700604,1.0,0.0,0.0,0.0,1.0,0.0,0.0,0.0,1.0,-0.0969982910156,-0.531694335938,10.177635498,0.1,0.0,0.0,0.0,0.1,0.0,0.0,0.0,0.1
1446038014124050016,273,1446038014120918989,robocape,7.44911029053,8.94231500095,-12.6724029295,0.0,10.0,0.0,0.0,0.0,10.0,0.0,0.0,0.0,10.0,-0.00798948327024,0.0203731823391,0.168977571166,1.0,0.0,0.0,0.0,1.0,0.0,0.0,0.0,1.0,-0.0514929199219,-1.65974853516,10.0471069336,0.1,0.0,0.0,0.0,0.1,0.0,0.0,0.0,0.1
1446038014157578141,274,1446038014154311895,robocape,8.00124710182,8.96454783301,-12.6472347594,0.0,10.0,0.0,0.0,0.0,10.0,0.0,0.0,0.0,10.0,0.297075619598,0.0223705531567,-0.0034621094171,1.0,0.0,0.0,0.0,1.0,0.0,0.0,0.0,1.0,-0.185614013672,-0.683778076172,10.0255517578,0.1,0.0,0.0,0.0,0.1,0.0,0.0,0.0,0.1
1446038014190073933,275,1446038014186979055,robocape,8.63339735521,8.99362807841,-12.6717062541,0.0,10.0,0.0,0.0,0.0,10.0,0.0,0.0,0.0,10.0,0.344479887002,0.0229031853747,-0.0306263525359,1.0,0.0,0.0,0.0,1.0,0.0,0.0,0.0,1.0,-0.223934326172,0.0467028808594,10.1596728516,0.1,0.0,0.0,0.0,0.1,0.0,0.0,0.0,0.1
1446038014224143349,276,1446038014220833063,robocape,8.9868657047,9.01234236412,-12.7175697773,0.0,10.0,0.0,0.0,0.0,10.0,0.0,0.0,0.0,10.0,0.200003397865,0.0150468601589,-0.0399474163512,1.0,0.0,0.0,0.0,1.0,0.0,0.0,0.0,1.0,-0.559237060547,1.19391723633,10.0291442871,0.1,0.0,0.0,0.0,0.1,0.0,0.0,0.0,0.1
1446038014257683599,277,1446038014254414081,robocape,9.13679195313,9.03629392909,-12.7500530428,0.0,10.0,0.0,0.0,0.0,10.0,0.0,0.0,0.0,10.0,0.0917458995532,0.0181094954125,-0.0326237233535,1.0,0.0,0.0,0.0,1.0,0.0,0.0,0.0,1.0,0.404758300781,0.974772949219,9.99202148437,0.1,0.0,0.0,0.0,0.1,0.0,0.0,0.0,0.1
1446038014290601183,278,1446038014287497997,robocape,8.9498096215,9.05252853095,-12.7148605779,0.0,10.0,0.0,0.0,0.0,10.0,0.0,0.0,0.0,10.0,-0.0921453737167,0.018242653467,0.00492684801665,1.0,0.0,0.0,0.0,1.0,0.0,0.0,0.0,1.0,-0.304167480469,1.28253295898,10.0159716797,0.1,0.0,0.0,0.0,0.1,0.0,0.0,0.0,0.1
1446038014323505808,279,1446038014320278882,robocape,8.49987585248,9.06687171019,-12.6988420393,0.0,10.0,0.0,0.0,0.0,10.0,0.0,0.0,0.0,10.0,-0.229564485965,0.0149137021044,-0.0033289513626,1.0,0.0,0.0,0.0,1.0,0.0,0.0,0.0,1.0,0.0742456054688,0.692160644531,10.0387243652,0.1,0.0,0.0,0.0,0.1,0.0,0.0,0.0,0.1
1446038014357574558,280,1446038014354074954,robocape,7.95098409089,9.07436271754,-12.6309583004,0.0,10.0,0.0,0.0,0.0,10.0,0.0,0.0,0.0,10.0,-0.286689291347,0.0146473859954,0.0247673981377,1.0,0.0,0.0,0.0,1.0,0.0,0.0,0.0,1.0,0.0886157226563,0.119750976563,10.3189416504,0.1,0.0,0.0,0.0,0.1,0.0,0.0,0.0,0.1
1446038014389267350,281,1446038014386255979,robocape,7.56412409527,9.08079881712,-12.6484504289,0.0,10.0,0.0,0.0,0.0,10.0,0.0,0.0,0.0,10.0,-0.194144443467,0.00878843159726,-0.0202400242846,1.0,0.0,0.0,0.0,1.0,0.0,0.0,0.0,1.0,-0.463436279297,-0.5748046875,10.0171691895,0.1,0.0,0.0,0.0,0.1,0.0,0.0,0.0,0.1
1446038014422202725,282,1446038014418802976,robocape,7.27210051109,9.08173522501,-12.5832652909,0.0,10.0,0.0,0.0,0.0,10.0,0.0,0.0,0.0,10.0,-0.15166702408,0.0114515926873,0.0227700273202,1.0,0.0,0.0,0.0,1.0,0.0,0.0,0.0,1.0,0.0706530761719,-0.887354736328,9.98962646484,0.1,0.0,0.0,0.0,0.1,0.0,0.0,0.0,0.1
1446038014455592350,283,1446038014452167034,robocape,7.16082477287,9.08745642054,-12.5352840141,0.0,10.0,0.0,0.0,0.0,10.0,0.0,0.0,0.0,10.0,-0.0551274345646,0.0133158054504,0.0127831732324,1.0,0.0,0.0,0.0,1.0,0.0,0.0,0.0,1.0,-0.0886157226563,-0.898132324219,10.0566870117,0.1,0.0,0.0,0.0,0.1,0.0,0.0,0.0,0.1
1446038014489042891,284,1446038014485975027,robocape,7.25206862768,9.10765233684,-12.5006718367,0.0,10.0,0.0,0.0,0.0,10.0,0.0,0.0,0.0,10.0,0.0527305895836,0.0206394984481,0.00399474163512,1.0,0.0,0.0,0.0,1.0,0.0,0.0,0.0,1.0,-0.162861328125,-0.826281738281,10.0830322266,0.1,0.0,0.0,0.0,0.1,0.0,0.0,0.0,0.1
1446038014521645600,285,1446038014518521070,robocape,7.52465061944,9.13505099359,-12.4888104214,0.0,10.0,0.0,0.0,0.0,10.0,0.0,0.0,0.0,10.0,0.150468601589,0.0235689756472,-0.00918790576077,1.0,0.0,0.0,0.0,1.0,0.0,0.0,0.0,1.0,-0.0311352539063,-0.737666015625,10.1129699707,0.1,0.0,0.0,0.0,0.1,0.0,0.0,0.0,0.1
1446038014555799850,286,1446038014552395105,robocape,7.97217631133,9.16014725629,-12.4531368194,0.0,10.0,0.0,0.0,0.0,10.0,0.0,0.0,0.0,10.0,0.241016078652,0.0245010820287,0.00239684498107,1.0,0.0,0.0,0.0,1.0,0.0,0.0,0.0,1.0,-0.17244140625,-0.416733398438,10.0734521484,0.1,0.0,0.0,0.0,0.1,0.0,0.0,0.0,0.1
1446038014588194891,287,1446038014585136890,robocape,8.40446476324,9.18282469382,-12.4189401243,0.0,10.0,0.0,0.0,0.0,10.0,0.0,0.0,0.0,10.0,0.233692385654,0.0233026595382,0.00159789665405,1.0,0.0,0.0,0.0,1.0,0.0,0.0,0.0,1.0,-0.112565917969,0.346080322266,10.1141674805,0.1,0.0,0.0,0.0,0.1,0.0,0.0,0.0,0.1
1446038014621283766,288,1446038014618244886,robocape,8.60988939848,9.20155942003,-12.4114216963,0.0,10.0,0.0,0.0,0.0,10.0,0.0,0.0,0.0,10.0,0.1167796138,0.0187752856851,-0.0110521185238,1.0,0.0,0.0,0.0,1.0,0.0,0.0,0.0,1.0,-0.274229736328,1.09931396484,10.0363293457,0.1,0.0,0.0,0.0,0.1,0.0,0.0,0.0,0.1
1446038014655380766,289,1446038014651927947,robocape,8.56195930756,9.21786148557,-12.4178959286,0.0,10.0,0.0,0.0,0.0,10.0,0.0,0.0,0.0,10.0,-0.015579492377,0.0157126504315,-0.016911072922,1.0,0.0,0.0,0.0,1.0,0.0,0.0,0.0,1.0,0.0443078613281,0.753233642578,10.039921875,0.1,0.0,0.0,0.0,0.1,0.0,0.0,0.0,0.1
1446038014687965558,290,1446038014684916973,robocape,8.3387294413,9.23399891777,-12.3953467123,0.0,10.0,0.0,0.0,0.0,10.0,0.0,0.0,0.0,10.0,-0.110787501347,0.017177389031,-0.000932106381528,1.0,0.0,0.0,0.0,1.0,0.0,0.0,0.0,1.0,0.0431103515625,0.417930908203,10.0267492676,0.1,0.0,0.0,0.0,0.1,0.0,0.0,0.0,0.1
1446038014721114266,291,1446038014718116044,robocape,8.03550938958,9.25422819362,-12.4708035564,0.0,10.0,0.0,0.0,0.0,10.0,0.0,0.0,0.0,10.0,-0.144476489137,0.0122505410144,-0.0516653251475,1.0,0.0,0.0,0.0,1.0,0.0,0.0,0.0,1.0,-0.548459472656,-0.0275427246094,10.0435144043,0.1,0.0,0.0,0.0,0.1,0.0,0.0,0.0,0.1
1446038014755460308,292,1446038014751857042,robocape,7.74735238802,9.27115461576,-12.5629355343,0.0,10.0,0.0,0.0,0.0,10.0,0.0,0.0,0.0,10.0,-0.135288583376,0.00972053797879,-0.0601874406358,1.0,0.0,0.0,0.0,1.0,0.0,0.0,0.0,1.0,-0.0407153320313,-0.182021484375,10.2506835938,0.1,0.0,0.0,0.0,0.1,0.0,0.0,0.0,0.1
1446038014787872266,293,1446038014784863948,robocape,7.56062782248,9.29254976962,-12.6710283241,0.0,10.0,0.0,0.0,0.0,10.0,0.0,0.0,0.0,10.0,-0.0805606229749,0.0115847507418,-0.0693753463966,1.0,0.0,0.0,0.0,1.0,0.0,0.0,0.0,1.0,-0.199984130859,-0.259859619141,10.1213525391,0.1,0.0,0.0,0.0,0.1,0.0,0.0,0.0,0.1
1446038014820968350,294,1446038014817980051,robocape,7.43264702588,9.3092650223,-12.733524412,0.0,10.0,0.0,0.0,0.0,10.0,0.0,0.0,0.0,10.0,-0.0537958540196,0.0123836990689,-0.0456732126949,1.0,0.0,0.0,0.0,1.0,0.0,0.0,0.0,1.0,-0.123343505859,-0.544866943359,10.1045874023,0.1,0.0,0.0,0.0,0.1,0.0,0.0,0.0,0.1
1446038014855146683,295,1446038014851502895,robocape,7.373202168,9.32607005906,-12.7756131099,0.0,10.0,0.0,0.0,0.0,10.0,0.0,0.0,0.0,10.0,-0.0195742340121,0.0139815957229,-0.0354200424981,1.0,0.0,0.0,0.0,1.0,0.0,0.0,0.0,1.0,-0.176033935547,-0.221539306641,10.0590820312,0.1,0.0,0.0,0.0,0.1,0.0,0.0,0.0,0.1
1446038014887906058,296,1446038014884907960,robocape,7.30430864033,9.33767975496,-12.7565356587,0.0,10.0,0.0,0.0,0.0,10.0,0.0,0.0,0.0,10.0,-0.0300937203179,0.0150468601589,-0.0031957933081,1.0,0.0,0.0,0.0,1.0,0.0,0.0,0.0,1.0,-0.102985839844,-0.401165771484,10.0914147949,0.1,0.0,0.0,0.0,0.1,0.0,0.0,0.0,0.1
1446038014921393433,297,1446038014918322086,robocape,7.25639863543,9.34939792346,-12.7306881511,0.0,10.0,0.0,0.0,0.0,10.0,0.0,0.0,0.0,10.0,-0.0197073920666,0.015579492377,0.000266316109008,1.0,0.0,0.0,0.0,1.0,0.0,0.0,0.0,1.0,-0.102985839844,-0.176033935547,10.0902172852,0.1,0.0,0.0,0.0,0.1,0.0,0.0,0.0,0.1
1446038014955411558,298,1446038014952022075,robocape,7.18573225006,9.36106546407,-12.6966855639,0.0,10.0,0.0,0.0,0.0,10.0,0.0,0.0,0.0,10.0,-0.032490565299,0.0159789665405,0.00466053190764,1.0,0.0,0.0,0.0,1.0,0.0,0.0,0.0,1.0,-0.131726074219,-0.140108642578,10.0830322266,0.1,0.0,0.0,0.0,0.1,0.0,0.0,0.0,0.1
1446038014996075391,299,1446038014987737894,robocape,7.07809483224,9.36772401775,-12.6479324273,0.0,10.0,0.0,0.0,0.0,10.0,0.0,0.0,0.0,10.0,-0.0533963798561,0.0141147537774,0.0129163312869,1.0,0.0,0.0,0.0,1.0,0.0,0.0,0.0,1.0,-0.0910107421875,-0.0898132324219,10.0985998535,0.1,0.0,0.0,0.0,0.1,0.0,0.0,0.0,0.1
1446038015024650100,300,1446038015021343946,robocape,6.95092688642,9.3728224477,-12.5994519857,0.0,10.0,0.0,0.0,0.0,10.0,0.0,0.0,0.0,10.0,-0.0637827081074,0.0131826473959,0.0130494893414,1.0,0.0,0.0,0.0,1.0,0.0,0.0,0.0,1.0,-0.128133544922,-0.135318603516,10.0890197754,0.1,0.0,0.0,0.0,0.1,0.0,0.0,0.0,0.1
1446038015055014142,301,1446038015051584959,robocape,6.82347282808,9.37869693529,-12.5525659476,0.0,10.0,0.0,0.0,0.0,10.0,0.0,0.0,0.0,10.0,-0.0639158661619,0.0134489635049,0.0122505410144,1.0,0.0,0.0,0.0,1.0,0.0,0.0,0.0,1.0,-0.112565917969,-0.264649658203,10.0734521484,0.1,0.0,0.0,0.0,0.1,0.0,0.0,0.0,0.1
1446038015087822767,302,1446038015084775924,robocape,6.71889049383,9.385773719,-12.5077985911,0.0,10.0,0.0,0.0,0.0,10.0,0.0,0.0,0.0,10.0,-0.051798483202,0.0139815957229,0.0110521185238,1.0,0.0,0.0,0.0,1.0,0.0,0.0,0.0,1.0,-0.09580078125,-0.427510986328,10.0854272461,0.1,0.0,0.0,0.0,0.1,0.0,0.0,0.0,0.1
1446038015121024225,303,1446038015117986917,robocape,6.65705291399,9.39632969246,-12.4639285254,0.0,10.0,0.0,0.0,0.0,10.0,0.0,0.0,0.0,10.0,-0.0292947719909,0.015845808486,0.0102531701968,1.0,0.0,0.0,0.0,1.0,0.0,0.0,0.0,1.0,-0.112565917969,-0.519719238281,10.1129699707,0.1,0.0,0.0,0.0,0.1,0.0,0.0,0.0,0.1
1446038015154581725,304,1446038015151428937,robocape,6.7015166313,9.41140801418,-12.4272137422,0.0,10.0,0.0,0.0,0.0,10.0,0.0,0.0,0.0,10.0,0.0272974011733,0.0181094954125,0.00585895439817,1.0,0.0,0.0,0.0,1.0,0.0,0.0,0.0,1.0,-0.0790356445313,-0.681383056641,10.1033898926,0.1,0.0,0.0,0.0,0.1,0.0,0.0,0.0,0.1
1446038015187853433,305,1446038015184746026,robocape,6.8693391677,9.43379590534,-12.4014056505,0.0,10.0,0.0,0.0,0.0,10.0,0.0,0.0,0.0,10.0,0.0933437962073,0.0217047628841,-0.000798948327024,1.0,0.0,0.0,0.0,1.0,0.0,0.0,0.0,1.0,-0.0826281738281,-0.755628662109,10.100994873,0.1,0.0,0.0,0.0,0.1,0.0,0.0,0.0,0.1
1446038015221132392,306,1446038015218126058,robocape,7.17022778168,9.46270573178,-12.382474868,0.0,10.0,0.0,0.0,0.0,10.0,0.0,0.0,0.0,10.0,0.164317039258,0.0251668723012,-0.00545948023466,1.0,0.0,0.0,0.0,1.0,0.0,0.0,0.0,1.0,-0.0730480957031,-0.76640625,10.0890197754,0.1,0.0,0.0,0.0,0.1,0.0,0.0,0.0,0.1
1446038015256542892,307,1446038015252778053,robocape,7.57877710078,9.49192941072,-12.3148483531,0.0,10.0,0.0,0.0,0.0,10.0,0.0,0.0,0.0,10.0,0.217047628841,0.0287621397729,0.0191747598486,1.0,0.0,0.0,0.0,1.0,0.0,0.0,0.0,1.0,-0.102985839844,-0.653840332031,10.0674645996,0.1,0.0,0.0,0.0,0.1,0.0,0.0,0.0,0.1
1446038015287886767,308,1446038015284782886,robocape,7.98701461153,9.50210276082,-12.0836467248,0.0,10.0,0.0,0.0,0.0,10.0,0.0,0.0,0.0,10.0,0.202400242846,0.0298274042089,0.105328021113,1.0,0.0,0.0,0.0,1.0,0.0,0.0,0.0,1.0,-0.158071289063,-0.198786621094,10.0650695801,0.1,0.0,0.0,0.0,0.1,0.0,0.0,0.0,0.1
1446038015321172267,309,1446038015317986011,robocape,8.45855942282,9.506663775,-11.8710645186,0.0,10.0,0.0,0.0,0.0,10.0,0.0,0.0,0.0,10.0,0.237953443399,0.0267647689553,0.0957406411883,1.0,0.0,0.0,0.0,1.0,0.0,0.0,0.0,1.0,-0.101788330078,0.152083740234,10.1033898926,0.1,0.0,0.0,0.0,0.1,0.0,0.0,0.0,0.1
1446038015354750767,310,1446038015351409912,robocape,8.59869791066,9.4801442626,-11.4428213603,0.0,10.0,0.0,0.0,0.0,10.0,0.0,0.0,0.0,10.0,0.0436758418773,0.0256995045193,0.211454990552,1.0,0.0,0.0,0.0,1.0,0.0,0.0,0.0,1.0,-0.240699462891,0.525706787109,9.98124389648,0.1,0.0,0.0,0.0,0.1,0.0,0.0,0.0,0.1
1446038015388282267,311,1446038015384860992,robocape,8.60840393747,9.44580731708,-10.9879322265,0.0,10.0,0.0,0.0,0.0,10.0,0.0,0.0,0.0,10.0,-0.0274305592278,0.0234358175927,0.22676816682,1.0,0.0,0.0,0.0,1.0,0.0,0.0,0.0,1.0,-0.111368408203,0.390388183594,9.94531860352,0.1,0.0,0.0,0.0,0.1,0.0,0.0,0.0,0.1
1446038015421304100,312,1446038015417869091,robocape,8.41914075091,9.35852013955,-10.2332966419,0.0,10.0,0.0,0.0,0.0,10.0,0.0,0.0,0.0,10.0,-0.159390191241,0.0165115987585,0.387223622498,1.0,0.0,0.0,0.0,1.0,0.0,0.0,0.0,1.0,0.123343505859,-0.665815429688,9.98004638672,0.1,0.0,0.0,0.0,0.1,0.0,0.0,0.0,0.1
1446038015454755892,313,1446038015451513051,robocape,8.7777337989,9.30732614878,-9.81129029228,0.0,10.0,0.0,0.0,0.0,10.0,0.0,0.0,0.0,10.0,0.159922823459,0.0133158054504,0.21078920028,1.0,0.0,0.0,0.0,1.0,0.0,0.0,0.0,1.0,-0.0502954101563,-2.37106933594,10.2315234375,0.1,0.0,0.0,0.0,0.1,0.0,0.0,0.0,0.1
1446038015487955100,314,1446038015484744071,robocape,9.45098975562,9.27502564658,-9.55227028366,0.0,10.0,0.0,0.0,0.0,10.0,0.0,0.0,0.0,10.0,0.341284093694,0.0134489635049,0.124103306798,1.0,0.0,0.0,0.0,1.0,0.0,0.0,0.0,1.0,-0.433498535156,0.859812011719,9.98723144531,0.1,0.0,0.0,0.0,0.1,0.0,0.0,0.0,0.1
1446038015521130392,315,1446038015517961025,robocape,9.84001350926,9.18760819726,-9.04619170054,0.0,10.0,0.0,0.0,0.0,10.0,0.0,0.0,0.0,10.0,0.169909677547,0.00572579634367,0.257394519356,1.0,0.0,0.0,0.0,1.0,0.0,0.0,0.0,1.0,-0.147293701172,0.0802331542969,10.0626745605,0.1,0.0,0.0,0.0,0.1,0.0,0.0,0.0,0.1
1446038015554811600,316,1446038015551704883,robocape,10.626698165,9.17667198117,-9.0550199546,0.0,10.0,0.0,0.0,0.0,10.0,0.0,0.0,0.0,10.0,0.426771564685,0.00399474163512,-0.0157126504315,1.0,0.0,0.0,0.0,1.0,0.0,0.0,0.0,1.0,-0.382005615234,-0.318537597656,10.3189416504,0.1,0.0,0.0,0.0,0.1,0.0,0.0,0.0,0.1
1446038015587736683,317,1446038015584656000,robocape,11.2042292784,9.13831254232,-8.86655297672,0.0,10.0,0.0,0.0,0.0,10.0,0.0,0.0,0.0,10.0,0.299738780688,0.00785632521573,0.0888164223541,1.0,0.0,0.0,0.0,1.0,0.0,0.0,0.0,1.0,0.1916015625,0.949625244141,9.92615844727,0.1,0.0,0.0,0.0,0.1,0.0,0.0,0.0,0.1
1446038015621184808,318,1446038015618103027,robocape,12.0026381726,9.12999442303,-8.91412148112,0.0,10.0,0.0,0.0,0.0,10.0,0.0,0.0,0.0,10.0,0.438888947645,0.00173105470855,-0.0362189908251,1.0,0.0,0.0,0.0,1.0,0.0,0.0,0.0,1.0,0.148491210938,0.986748046875,10.1117724609,0.1,0.0,0.0,0.0,0.1,0.0,0.0,0.0,0.1
1446038015656194517,319,1446038015652755022,robocape,12.5677963787,9.13131299589,-8.90903482793,0.0,10.0,0.0,0.0,0.0,10.0,0.0,0.0,0.0,10.0,0.311856163648,0.0113184346328,-0.00972053797879,1.0,0.0,0.0,0.0,1.0,0.0,0.0,0.0,1.0,-0.253872070313,2.08725952148,10.1692529297,0.1,0.0,0.0,0.0,0.1,0.0,0.0,0.0,0.1
1446038015689347225,320,1446038015686197042,robocape,12.6826337464,9.12927883363,-8.85238342482,0.0,10.0,0.0,0.0,0.0,10.0,0.0,0.0,0.0,10.0,0.068709556124,0.0134489635049,0.0190416017941,1.0,0.0,0.0,0.0,1.0,0.0,0.0,0.0,1.0,0.386795654297,2.38304443359,9.79083984375,0.1,0.0,0.0,0.0,0.1,0.0,0.0,0.0,0.1
1446038015722427725,321,1446038015719305992,robocape,12.4880214981,9.15147493703,-8.84489178546,0.0,10.0,0.0,0.0,0.0,10.0,0.0,0.0,0.0,10.0,-0.0912132673352,0.0191747598486,-0.00719053494321,1.0,0.0,0.0,0.0,1.0,0.0,0.0,0.0,1.0,-0.138911132813,1.50167724609,10.1680554199,0.1,0.0,0.0,0.0,0.1,0.0,0.0,0.0,0.1
1446038015756217517,322,1446038015752882957,robocape,11.9372251796,9.16787763724,-8.71327143043,0.0,10.0,0.0,0.0,0.0,10.0,0.0,0.0,0.0,10.0,-0.291616139364,0.0278300333913,0.0587227020362,1.0,0.0,0.0,0.0,1.0,0.0,0.0,0.0,1.0,-0.15328125,1.35917358398,9.98004638672,0.1,0.0,0.0,0.0,0.1,0.0,0.0,0.0,0.1
1446038015788912517,323,1446038015785811901,robocape,11.5072961661,9.19863011839,-8.70157212042,0.0,10.0,0.0,0.0,0.0,10.0,0.0,0.0,0.0,10.0,-0.217180786896,0.0230363434292,-0.00439421579863,1.0,0.0,0.0,0.0,1.0,0.0,0.0,0.0,1.0,0.0143701171875,-0.0682580566406,10.1704504395,0.1,0.0,0.0,0.0,0.1,0.0,0.0,0.0,0.1
1446038015821814225,324,1446038015818705081,robocape,11.1478386257,9.21378020636,-8.61514832152,0.0,10.0,0.0,0.0,0.0,10.0,0.0,0.0,0.0,10.0,-0.186820750469,0.0226368692657,0.0352868844435,1.0,0.0,0.0,0.0,1.0,0.0,0.0,0.0,1.0,-0.24908203125,-0.365240478516,10.1141674805,0.1,0.0,0.0,0.0,0.1,0.0,0.0,0.0,0.1
1446038015856594184,325,1446038015852996110,robocape,10.9997289807,9.183369701,-8.38189572907,0.0,10.0,0.0,0.0,0.0,10.0,0.0,0.0,0.0,10.0,-0.0882837901361,0.0138484376684,0.114382768819,1.0,0.0,0.0,0.0,1.0,0.0,0.0,0.0,1.0,-0.0107775878906,-1.39030883789,9.97286132813,0.1,0.0,0.0,0.0,0.1,0.0,0.0,0.0,0.1
1446038015889997767,326,1446038015886702060,robocape,11.4444193947,9.18306783898,-8.3693401857,0.0,10.0,0.0,0.0,0.0,10.0,0.0,0.0,0.0,10.0,0.245410294451,0.0105194863058,-0.00399474163512,1.0,0.0,0.0,0.0,1.0,0.0,0.0,0.0,1.0,-0.257464599609,-0.999920654297,10.1680554199,0.1,0.0,0.0,0.0,0.1,0.0,0.0,0.0,0.1
1446038015923440434,327,1446038015919884920,robocape,12.183469273,9.20881718538,-8.50981655934,0.0,10.0,0.0,0.0,0.0,10.0,0.0,0.0,0.0,10.0,0.416118920325,0.00958737992429,-0.0865527354276,1.0,0.0,0.0,0.0,1.0,0.0,0.0,0.0,1.0,-0.451461181641,0.513731689453,10.1692529297,0.1,0.0,0.0,0.0,0.1,0.0,0.0,0.0,0.1
1446038015959196684,328,1446038015954690933,robocape,12.8471196093,9.23111744916,-8.68981387911,0.0,10.0,0.0,0.0,0.0,10.0,0.0,0.0,0.0,10.0,0.38109835199,0.00253000303558,-0.106526443603,1.0,0.0,0.0,0.0,1.0,0.0,0.0,0.0,1.0,0.152083740234,1.59867553711,9.95130615234,0.1,0.0,0.0,0.0,0.1,0.0,0.0,0.0,0.1
1446038015995868225,329,1446038015987740993,robocape,13.1988827465,9.306278684,-8.96871578283,0.0,10.0,0.0,0.0,0.0,10.0,0.0,0.0,0.0,10.0,0.225702902384,0.0165115987585,-0.162186510386,1.0,0.0,0.0,0.0,1.0,0.0,0.0,0.0,1.0,-0.0526904296875,2.25491088867,10.0914147949,0.1,0.0,0.0,0.0,0.1,0.0,0.0,0.0,0.1
1446038016024652100,330,1446038016021315097,robocape,13.2028254215,9.4368567162,-9.40871109222,0.0,10.0,0.0,0.0,0.0,10.0,0.0,0.0,0.0,10.0,0.0564590151097,0.0246342400832,-0.24953819414,1.0,0.0,0.0,0.0,1.0,0.0,0.0,0.0,1.0,0.126936035156,2.55189331055,9.89502319336,0.1,0.0,0.0,0.0,0.1,0.0,0.0,0.0,0.1
1446038016058771309,331,1446038016054941892,robocape,12.6768878559,9.60107102662,-9.94168008029,0.0,10.0,0.0,0.0,0.0,10.0,0.0,0.0,0.0,10.0,-0.215982364405,0.0303600364269,-0.298274042089,1.0,0.0,0.0,0.0,1.0,0.0,0.0,0.0,1.0,0.0467028808594,3.03568725586,9.86388793945,0.1,0.0,0.0,0.0,0.1,0.0,0.0,0.0,0.1
1446038016092133559,332,1446038016088836908,robocape,11.448697496,9.71491129324,-10.2331427186,0.0,10.0,0.0,0.0,0.0,10.0,0.0,0.0,0.0,10.0,-0.611461786282,0.0310258266994,-0.165115987585,1.0,0.0,0.0,0.0,1.0,0.0,0.0,0.0,1.0,0.159268798828,1.66932861328,9.8135925293,0.1,0.0,0.0,0.0,0.1,0.0,0.0,0.0,0.1
1446038016123838142,333,1446038016120680093,robocape,9.90812667034,9.73150627001,-10.2223791093,0.0,10.0,0.0,0.0,0.0,10.0,0.0,0.0,0.0,10.0,-0.805473071694,0.0113184346328,0.00159789665405,1.0,0.0,0.0,0.0,1.0,0.0,0.0,0.0,1.0,-0.111368408203,0.486188964844,9.91298583984,0.1,0.0,0.0,0.0,0.1,0.0,0.0,0.0,0.1
1446038016187615100,334,1446038016155405044,robocape,8.54578657717,9.69260515879,-10.2508528339,0.0,10.0,0.0,0.0,0.0,10.0,0.0,0.0,0.0,10.0,-0.707601901634,-0.0194410759576,-0.0150468601589,1.0,0.0,0.0,0.0,1.0,0.0,0.0,0.0,1.0,-0.981958007813,-1.69327880859,10.2985839844,0.1,0.0,0.0,0.0,0.1,0.0,0.0,0.0,0.1
1446038016209860309,335,1446038016206402063,robocape,7.72389985173,9.68178667684,-10.1973188652,0.0,10.0,0.0,0.0,0.0,10.0,0.0,0.0,0.0,10.0,-0.430100516048,0.0034621094171,0.0218379209386,1.0,0.0,0.0,0.0,1.0,0.0,0.0,0.0,1.0,0.373623046875,-2.00343383789,10.1429077148,0.1,0.0,0.0,0.0,0.1,0.0,0.0,0.0,0.1
1446038016232922892,336,1446038016229863882,robocape,7.26043611397,9.68993004781,-10.2317481269,0.0,10.0,0.0,0.0,0.0,10.0,0.0,0.0,0.0,10.0,-0.233426069545,0.00878843159726,-0.0264984528463,1.0,0.0,0.0,0.0,1.0,0.0,0.0,0.0,1.0,0.130528564453,-2.53872070313,10.0974023437,0.1,0.0,0.0,0.0,0.1,0.0,0.0,0.0,0.1
1446038016258235434,337,1446038016254128932,robocape,7.22637720696,9.70312988045,-10.2151526154,0.0,10.0,0.0,0.0,0.0,10.0,0.0,0.0,0.0,10.0,-0.0121173829599,0.0159789665405,-0.00199737081756,1.0,0.0,0.0,0.0,1.0,0.0,0.0,0.0,1.0,0.0682580566406,-2.38424194336,10.0135766602,0.1,0.0,0.0,0.0,0.1,0.0,0.0,0.0,0.1
1446038016292113267,338,1446038016288676023,robocape,7.61490890954,9.73833391631,-10.1905459335,0.0,10.0,0.0,0.0,0.0,10.0,0.0,0.0,0.0,10.0,0.209990251953,0.0292947719909,-0.000932106381528,1.0,0.0,0.0,0.0,1.0,0.0,0.0,0.0,1.0,-0.106578369141,-1.45377685547,10.0375268555,0.1,0.0,0.0,0.0,0.1,0.0,0.0,0.0,0.1
1446038016326091642,339,1446038016322948932,robocape,8.32529003112,9.78052384045,-10.1923739913,0.0,10.0,0.0,0.0,0.0,10.0,0.0,0.0,0.0,10.0,0.382829406699,0.0323574072445,-0.016644756813,1.0,0.0,0.0,0.0,1.0,0.0,0.0,0.0,1.0,0.0502954101563,-0.783171386719,10.0698596191,0.1,0.0,0.0,0.0,0.1,0.0,0.0,0.0,0.1
1446038016358029850,340,1446038016354753017,robocape,9.25222830695,9.82970695859,-10.2320390593,0.0,10.0,0.0,0.0,0.0,10.0,0.0,0.0,0.0,10.0,0.50200586548,0.034088461953,-0.0383495196971,1.0,0.0,0.0,0.0,1.0,0.0,0.0,0.0,1.0,-0.170046386719,-0.825084228516,10.039921875,0.1,0.0,0.0,0.0,0.1,0.0,0.0,0.0,0.1
1446038016390795642,341,1446038016387526988,robocape,10.2546153658,9.85850935073,-10.2131471238,0.0,10.0,0.0,0.0,0.0,10.0,0.0,0.0,0.0,10.0,0.538091698251,0.0286289817184,-0.00772316716123,1.0,0.0,0.0,0.0,1.0,0.0,0.0,0.0,1.0,-0.102985839844,0.0383203125,10.1153649902,0.1,0.0,0.0,0.0,0.1,0.0,0.0,0.0,0.1
1446038016425367309,342,1446038016422249078,robocape,11.0195631504,9.86772018691,-10.1918018234,0.0,10.0,0.0,0.0,0.0,10.0,0.0,0.0,0.0,10.0,0.413855233398,0.018242653467,-0.00426105774413,1.0,0.0,0.0,0.0,1.0,0.0,0.0,0.0,1.0,-0.678988037109,1.54478759766,10.1117724609,0.1,0.0,0.0,0.0,0.1,0.0,0.0,0.0,0.1
1446038016458001601,343,1446038016454765081,robocape,11.4610183648,9.881697215,-10.1894766146,0.0,10.0,0.0,0.0,0.0,10.0,0.0,0.0,0.0,10.0,0.245410294451,0.0178431793035,-0.0133158054504,1.0,0.0,0.0,0.0,1.0,0.0,0.0,0.0,1.0,0.415535888672,1.4980847168,9.8902331543,0.1,0.0,0.0,0.0,0.1,0.0,0.0,0.0,0.1
1446038016490963934,344,1446038016487695932,robocape,11.6252179321,9.8975262614,-10.1400506366,0.0,10.0,0.0,0.0,0.0,10.0,0.0,0.0,0.0,10.0,0.0944090606433,0.0223705531567,0.0118510668509,1.0,0.0,0.0,0.0,1.0,0.0,0.0,0.0,1.0,-0.0694555664063,1.83817749023,9.94651611328,0.1,0.0,0.0,0.0,0.1,0.0,0.0,0.0,0.1
1446038016523442226,345,1446038016520106077,robocape,11.3798274727,9.90634843839,-10.1177096588,0.0,10.0,0.0,0.0,0.0,10.0,0.0,0.0,0.0,10.0,-0.120241723217,0.0142479118319,0.00106526443603,1.0,0.0,0.0,0.0,1.0,0.0,0.0,0.0,1.0,-0.198786621094,1.52802246094,10.0171691895,0.1,0.0,0.0,0.0,0.1,0.0,0.0,0.0,0.1
1446038016557061392,346,1446038016553973913,robocape,10.90400211,9.92263055257,-10.0634300701,0.0,10.0,0.0,0.0,0.0,10.0,0.0,0.0,0.0,10.0,-0.24567661056,0.0201068662301,0.017976337358,1.0,0.0,0.0,0.0,1.0,0.0,0.0,0.0,1.0,0.0730480957031,0.684975585938,9.99681152344,0.1,0.0,0.0,0.0,0.1,0.0,0.0,0.0,0.1
1446038016590311184,347,1446038016587296962,robocape,10.4283910774,9.93407422374,-10.0075837175,0.0,10.0,0.0,0.0,0.0,10.0,0.0,0.0,0.0,10.0,-0.246076084723,0.0175768631945,0.0194410759576,1.0,0.0,0.0,0.0,1.0,0.0,0.0,0.0,1.0,-0.047900390625,0.245489501953,10.1153649902,0.1,0.0,0.0,0.0,0.1,0.0,0.0,0.0,0.1
1446038016623838267,348,1446038016620596885,robocape,10.0375322186,9.94180679872,-10.0017339074,0.0,10.0,0.0,0.0,0.0,10.0,0.0,0.0,0.0,10.0,-0.196807604557,0.0114515926873,-0.00612527050718,1.0,0.0,0.0,0.0,1.0,0.0,0.0,0.0,1.0,-0.353265380859,-0.457448730469,10.1045874023,0.1,0.0,0.0,0.0,0.1,0.0,0.0,0.0,0.1
1446038016657116351,349,1446038016654036045,robocape,9.81322508668,9.94247043136,-9.97319409019,0.0,10.0,0.0,0.0,0.0,10.0,0.0,0.0,0.0,10.0,-0.111186975511,0.0103863282513,0.00545948023466,1.0,0.0,0.0,0.0,1.0,0.0,0.0,0.0,1.0,-0.086220703125,-0.798739013672,10.0818347168,0.1,0.0,0.0,0.0,0.1,0.0,0.0,0.0,0.1
1446038016689710767,350,1446038016686675071,robocape,9.8482479598,9.95676280089,-9.93319680824,0.0,10.0,0.0,0.0,0.0,10.0,0.0,0.0,0.0,10.0,0.0247673981377,0.0194410759576,0.00892158965177,1.0,0.0,0.0,0.0,1.0,0.0,0.0,0.0,1.0,-0.106578369141,-0.918489990234,10.0662670898,0.1,0.0,0.0,0.0,0.1,0.0,0.0,0.0,0.1
1446038016722482142,351,1446038016719193935,robocape,10.1004389672,9.97155685924,-9.88985529958,0.0,10.0,0.0,0.0,0.0,10.0,0.0,0.0,0.0,10.0,0.139416483066,0.0209058145571,0.00958737992429,1.0,0.0,0.0,0.0,1.0,0.0,0.0,0.0,1.0,-0.086220703125,-0.289797363281,10.0674645996,0.1,0.0,0.0,0.0,0.1,0.0,0.0,0.0,0.1
1446038016756475684,352,1446038016753042936,robocape,10.3991308783,9.98275149547,-9.85176771959,0.0,10.0,0.0,0.0,0.0,10.0,0.0,0.0,0.0,10.0,0.164849671476,0.0189084437396,0.00692421883421,1.0,0.0,0.0,0.0,1.0,0.0,0.0,0.0,1.0,-0.208366699219,0.285007324219,10.0866247559,0.1,0.0,0.0,0.0,0.1,0.0,0.0,0.0,0.1
1446038016788489059,353,1446038016785377979,robocape,10.5834649302,9.99424372317,-9.82201885995,0.0,10.0,0.0,0.0,0.0,10.0,0.0,0.0,0.0,10.0,0.105461179167,0.017976337358,0.00306263525359,1.0,0.0,0.0,0.0,1.0,0.0,0.0,0.0,1.0,-0.255069580078,0.752036132813,10.0566870117,0.1,0.0,0.0,0.0,0.1,0.0,0.0,0.0,0.1
1446038016822311226,354,1446038016819216012,robocape,10.6415097841,10.0059989148,-9.80035445677,0.0,10.0,0.0,0.0,0.0,10.0,0.0,0.0,0.0,10.0,0.0395479421877,0.016911072922,-0.000532632218016,1.0,0.0,0.0,0.0,1.0,0.0,0.0,0.0,1.0,0.0275427246094,0.744851074219,10.0147741699,0.1,0.0,0.0,0.0,0.1,0.0,0.0,0.0,0.1
1446038016854908184,355,1446038016851681947,robocape,10.5810506496,10.0160910791,-9.75808133271,0.0,10.0,0.0,0.0,0.0,10.0,0.0,0.0,0.0,10.0,-0.0251668723012,0.01744370514,0.0107858024148,1.0,0.0,0.0,0.0,1.0,0.0,0.0,0.0,1.0,0.00119750976563,0.712518310547,10.0231567383,0.1,0.0,0.0,0.0,0.1,0.0,0.0,0.0,0.1
1446038016888043392,356,1446038016884933948,robocape,10.4157685505,10.0265977871,-9.72622649788,0.0,10.0,0.0,0.0,0.0,10.0,0.0,0.0,0.0,10.0,-0.0797616746479,0.0162452826495,0.00599211245268,1.0,0.0,0.0,0.0,1.0,0.0,0.0,0.0,1.0,-0.313747558594,0.477806396484,10.0051940918,0.1,0.0,0.0,0.0,0.1,0.0,0.0,0.0,0.1
1446038016921571934,357,1446038016918445110,robocape,10.2207978829,10.0378362956,-9.70584243541,0.0,10.0,0.0,0.0,0.0,10.0,0.0,0.0,0.0,10.0,-0.0945422186978,0.0154463343225,0.000266316109008,1.0,0.0,0.0,0.0,1.0,0.0,0.0,0.0,1.0,-0.105380859375,-0.00359252929688,10.0974023437,0.1,0.0,0.0,0.0,0.1,0.0,0.0,0.0,0.1
1446038016955110642,358,1446038016952030897,robocape,10.121879641,10.0467103904,-9.67113481708,0.0,10.0,0.0,0.0,0.0,10.0,0.0,0.0,0.0,10.0,-0.0452737385313,0.015845808486,0.00745685105222,1.0,0.0,0.0,0.0,1.0,0.0,0.0,0.0,1.0,-0.106578369141,-0.269439697266,10.1045874023,0.1,0.0,0.0,0.0,0.1,0.0,0.0,0.0,0.1
1446038016991701017,359,1446038016985197067,robocape,10.1566120185,10.0567579968,-9.63432677976,0.0,10.0,0.0,0.0,0.0,10.0,0.0,0.0,0.0,10.0,0.0251668723012,0.017177389031,0.00785632521573,1.0,0.0,0.0,0.0,1.0,0.0,0.0,0.0,1.0,-0.149688720703,-0.329315185547,10.0674645996,0.1,0.0,0.0,0.0,0.1,0.0,0.0,0.0,0.1
1446038017024286559,360,1446038017021121978,robocape,10.2402173945,10.0620652362,-9.5582818579,0.0,10.0,0.0,0.0,0.0,10.0,0.0,0.0,0.0,10.0,0.0472711093489,0.0183758115215,0.0282295075548,1.0,0.0,0.0,0.0,1.0,0.0,0.0,0.0,1.0,-0.138911132813,0.350870361328,10.0566870117,0.1,0.0,0.0,0.0,0.1,0.0,0.0,0.0,0.1
1446038017054883559,361,1446038017051739931,robocape,10.2638606377,10.0498924816,-9.37215582389,0.0,10.0,0.0,0.0,0.0,10.0,0.0,0.0,0.0,10.0,0.00492684801665,0.0187752856851,0.0866858934821,1.0,0.0,0.0,0.0,1.0,0.0,0.0,0.0,1.0,-0.0910107421875,0.0718505859375,10.0914147949,0.1,0.0,0.0,0.0,0.1,0.0,0.0,0.0,0.1
1446038017087865017,362,1446038017084805965,robocape,10.3155018719,10.0295470076,-9.14141103244,0.0,10.0,0.0,0.0,0.0,10.0,0.0,0.0,0.0,10.0,0.0154463343225,0.0186421276306,0.110388027184,1.0,0.0,0.0,0.0,1.0,0.0,0.0,0.0,1.0,0.0490979003906,0.168848876953,10.0530944824,0.1,0.0,0.0,0.0,0.1,0.0,0.0,0.0,0.1
1446038017121347851,363,1446038017118184089,robocape,10.368200961,10.0133336185,-8.93599469083,0.0,10.0,0.0,0.0,0.0,10.0,0.0,0.0,0.0,10.0,0.0185089695761,0.0186421276306,0.0972053797879,1.0,0.0,0.0,0.0,1.0,0.0,0.0,0.0,1.0,-0.434696044922,-0.0682580566406,10.0387243652,0.1,0.0,0.0,0.0,0.1,0.0,0.0,0.0,0.1
1446038017154515018,364,1446038017151457071,robocape,10.4714404092,9.99114763844,-8.71915462379,0.0,10.0,0.0,0.0,0.0,10.0,0.0,0.0,0.0,10.0,0.0442084740953,0.016911072922,0.103596966404,1.0,0.0,0.0,0.0,1.0,0.0,0.0,0.0,1.0,0.0131726074219,0.0431103515625,10.1261425781,0.1,0.0,0.0,0.0,0.1,0.0,0.0,0.0,0.1
1446038017188115143,365,1446038017185079097,robocape,10.6928707481,9.98719267274,-8.63968396496,0.0,10.0,0.0,0.0,0.0,10.0,0.0,0.0,0.0,10.0,0.120108565163,0.0146473859954,0.0311589847539,1.0,0.0,0.0,0.0,1.0,0.0,0.0,0.0,1.0,-0.220341796875,0.426313476563,10.0686621094,0.1,0.0,0.0,0.0,0.1,0.0,0.0,0.0,0.1
1446038017221431643,366,1446038017218282938,robocape,10.7549902515,9.94162399227,-8.28928581534,0.0,10.0,0.0,0.0,0.0,10.0,0.0,0.0,0.0,10.0,0.0099868540878,0.0175768631945,0.174570209455,1.0,0.0,0.0,0.0,1.0,0.0,0.0,0.0,1.0,-0.0263452148438,-0.583187255859,10.132130127,0.1,0.0,0.0,0.0,0.1,0.0,0.0,0.0,0.1
1446038017254484268,367,1446038017251475095,robocape,11.1045722518,9.94621188148,-8.28881463899,0.0,10.0,0.0,0.0,0.0,10.0,0.0,0.0,0.0,10.0,0.195875498175,0.0123836990689,-0.0102531701968,1.0,0.0,0.0,0.0,1.0,0.0,0.0,0.0,1.0,-0.250279541016,0.832269287109,9.96328125,0.1,0.0,0.0,0.0,0.1,0.0,0.0,0.0,0.1
1446038017287730434,368,1446038017284733057,robocape,11.0838498637,9.89643677039,-7.94678499036,0.0,10.0,0.0,0.0,0.0,10.0,0.0,0.0,0.0,10.0,-0.0326237233535,0.0154463343225,0.171241258092,1.0,0.0,0.0,0.0,1.0,0.0,0.0,0.0,1.0,-0.0598754882813,0.70892578125,10.0471069336,0.1,0.0,0.0,0.0,0.1,0.0,0.0,0.0,0.1
1446038017321554976,369,1446038017318288087,robocape,10.9936381955,9.80302681774,-7.42999452003,0.0,10.0,0.0,0.0,0.0,10.0,0.0,0.0,0.0,10.0,-0.0858869451551,0.00905474770627,0.265517160681,1.0,0.0,0.0,0.0,1.0,0.0,0.0,0.0,1.0,0.203576660156,-0.380808105469,10.0231567383,0.1,0.0,0.0,0.0,0.1,0.0,0.0,0.0,0.1
1446038017355256643,370,1446038017352169990,robocape,11.2036423457,9.72386048242,-7.05724518461,0.0,10.0,0.0,0.0,0.0,10.0,0.0,0.0,0.0,10.0,0.0869522095911,0.00412789968962,0.189883385723,1.0,0.0,0.0,0.0,1.0,0.0,0.0,0.0,1.0,-0.5748046875,-0.547261962891,9.99681152344,0.1,0.0,0.0,0.0,0.1,0.0,0.0,0.0,0.1
1446038017388067809,371,1446038017384948968,robocape,11.8755314741,9.7195280087,-7.06231146261,0.0,10.0,0.0,0.0,0.0,10.0,0.0,0.0,0.0,10.0,0.367649388485,0.00838895743375,-0.0119842249054,1.0,0.0,0.0,0.0,1.0,0.0,0.0,0.0,1.0,-0.250279541016,-0.576002197266,10.2973864746,0.1,0.0,0.0,0.0,0.1,0.0,0.0,0.0,0.1
1446038017421626268,372,1446038017418359994,robocape,12.5949401879,9.76306658408,-7.25920958691,0.0,10.0,0.0,0.0,0.0,10.0,0.0,0.0,0.0,10.0,0.412257336744,0.0130494893414,-0.115448033255,1.0,0.0,0.0,0.0,1.0,0.0,0.0,0.0,1.0,-0.561632080078,1.55317016602,10.0722546387,0.1,0.0,0.0,0.0,0.1,0.0,0.0,0.0,0.1
1446038017454484851,373,1446038017451201915,robocape,12.9308188898,9.76007578764,-7.20396080283,0.0,10.0,0.0,0.0,0.0,10.0,0.0,0.0,0.0,10.0,0.185888644088,0.0146473859954,0.0190416017941,1.0,0.0,0.0,0.0,1.0,0.0,0.0,0.0,1.0,0.597557373047,1.40707397461,9.73455688477,0.1,0.0,0.0,0.0,0.1,0.0,0.0,0.0,0.1
1446038017487825976,374,1446038017484721899,robocape,12.767510209,9.68128595838,-6.82324250221,0.0,10.0,0.0,0.0,0.0,10.0,0.0,0.0,0.0,10.0,-0.109855394966,0.00972053797879,0.195209707903,1.0,0.0,0.0,0.0,1.0,0.0,0.0,0.0,1.0,-0.32572265625,1.53760253906,9.88544311523,0.1,0.0,0.0,0.0,0.1,0.0,0.0,0.0,0.1
1446038017521335226,375,1446038017518075942,robocape,12.5299031657,9.61907275209,-6.47881925989,0.0,10.0,0.0,0.0,0.0,10.0,0.0,0.0,0.0,10.0,-0.145808069682,0.0131826473959,0.175502315836,1.0,0.0,0.0,0.0,1.0,0.0,0.0,0.0,1.0,-0.0311352539063,-0.280217285156,10.2315234375,0.1,0.0,0.0,0.0,0.1,0.0,0.0,0.0,0.1
1446038017554637559,376,1446038017551422119,robocape,12.8485749201,9.67099533674,-6.67023295385,0.0,10.0,0.0,0.0,0.0,10.0,0.0,0.0,0.0,10.0,0.199470765647,0.015313176268,-0.11145329162,1.0,0.0,0.0,0.0,1.0,0.0,0.0,0.0,1.0,-0.1149609375,-0.675395507813,10.254276123,0.1,0.0,0.0,0.0,0.1,0.0,0.0,0.0,0.1
1446038017587704559,377,1446038017584640979,robocape,12.9237993427,9.64397818823,-6.48103644496,0.0,10.0,0.0,0.0,0.0,10.0,0.0,0.0,0.0,10.0,0.0350205683345,0.016112124595,0.0914795834442,1.0,0.0,0.0,0.0,1.0,0.0,0.0,0.0,1.0,-0.0275427246094,1.37114868164,9.76449462891,0.1,0.0,0.0,0.0,0.1,0.0,0.0,0.0,0.1
1446038017621421893,378,1446038017618170022,robocape,13.2353290571,9.65951916838,-6.58597480877,0.0,10.0,0.0,0.0,0.0,10.0,0.0,0.0,0.0,10.0,0.188152331014,0.00585895439817,-0.0633832339439,1.0,0.0,0.0,0.0,1.0,0.0,0.0,0.0,1.0,-0.0934057617188,0.620310058594,10.024354248,0.1,0.0,0.0,0.0,0.1,0.0,0.0,0.0,0.1
1446038017655099684,379,1446038017651690006,robocape,13.4166190525,9.70271301598,-6.72166056873,0.0,10.0,0.0,0.0,0.0,10.0,0.0,0.0,0.0,10.0,0.122372252089,0.0157126504315,-0.0820253615744,1.0,0.0,0.0,0.0,1.0,0.0,0.0,0.0,1.0,-0.00598754882813,2.00223632812,10.0914147949,0.1,0.0,0.0,0.0,0.1,0.0,0.0,0.0,0.1
1446038017688142059,380,1446038017684798955,robocape,13.1865618287,9.72565515857,-6.66376777781,0.0,10.0,0.0,0.0,0.0,10.0,0.0,0.0,0.0,10.0,-0.114382768819,0.0258326625738,0.0199737081756,1.0,0.0,0.0,0.0,1.0,0.0,0.0,0.0,1.0,0.0993933105469,1.58789794922,9.99681152344,0.1,0.0,0.0,0.0,0.1,0.0,0.0,0.0,0.1
1446038017721476101,381,1446038017718113899,robocape,12.6348456141,9.69543270638,-6.36611969024,0.0,10.0,0.0,0.0,0.0,10.0,0.0,0.0,0.0,10.0,-0.308127738122,0.0237021337017,0.149270179099,1.0,0.0,0.0,0.0,1.0,0.0,0.0,0.0,1.0,-0.0694555664063,0.767603759766,9.8902331543,0.1,0.0,0.0,0.0,0.1,0.0,0.0,0.0,0.1
1446038017754789684,382,1446038017751291036,robocape,12.1250895192,9.71050347983,-6.26762449812,0.0,10.0,0.0,0.0,0.0,10.0,0.0,0.0,0.0,10.0,-0.267514531498,0.0243679239742,0.0432763677138,1.0,0.0,0.0,0.0,1.0,0.0,0.0,0.0,1.0,-0.0598754882813,-1.50407226563,10.132130127,0.1,0.0,0.0,0.0,0.1,0.0,0.0,0.0,0.1
1446038017787955601,383,1446038017784781932,robocape,12.0196500823,9.71553196961,-6.18741498424,0.0,10.0,0.0,0.0,0.0,10.0,0.0,0.0,0.0,10.0,-0.0516653251475,0.0189084437396,0.033822145844,1.0,0.0,0.0,0.0,1.0,0.0,0.0,0.0,1.0,-0.231119384766,0.15328125,9.886640625,0.1,0.0,0.0,0.0,0.1,0.0,0.0,0.0,0.1
1446038017821369351,384,1446038017818224906,robocape,12.2963418104,9.79072045562,-6.42024501676,0.0,10.0,0.0,0.0,0.0,10.0,0.0,0.0,0.0,10.0,0.180429163853,0.0237021337017,-0.134356476994,1.0,0.0,0.0,0.0,1.0,0.0,0.0,0.0,1.0,-0.275427246094,-0.500559082031,10.1896105957,0.1,0.0,0.0,0.0,0.1,0.0,0.0,0.0,0.1
1446038017854560185,385,1446038017851375102,robocape,12.2151353828,9.78439140165,-6.31939178703,0.0,10.0,0.0,0.0,0.0,10.0,0.0,0.0,0.0,10.0,-0.0406132066237,0.015579492377,0.0452737385313,1.0,0.0,0.0,0.0,1.0,0.0,0.0,0.0,1.0,0.222736816406,0.985550537109,9.59444824219,0.1,0.0,0.0,0.0,0.1,0.0,0.0,0.0,0.1
1446038017887872393,386,1446038017884784936,robocape,12.3598006823,9.81128126001,-6.40827257238,0.0,10.0,0.0,0.0,0.0,10.0,0.0,0.0,0.0,10.0,0.0970722217334,0.0134489635049,-0.0555269087282,1.0,0.0,0.0,0.0,1.0,0.0,0.0,0.0,1.0,-0.0682580566406,-0.05748046875,10.2770288086,0.1,0.0,0.0,0.0,0.1,0.0,0.0,0.0,0.1
1446038017921327768,387,1446038017918243885,robocape,12.5521680114,9.8676647738,-6.56744270003,0.0,10.0,0.0,0.0,0.0,10.0,0.0,0.0,0.0,10.0,0.129429628978,0.0211721306661,-0.0949416928613,1.0,0.0,0.0,0.0,1.0,0.0,0.0,0.0,1.0,-0.251477050781,1.53401000977,10.1381176758,0.1,0.0,0.0,0.0,0.1,0.0,0.0,0.0,0.1
1446038017954466976,388,1446038017951368093,robocape,12.348678906,9.88055546627,-6.49972449269,0.0,10.0,0.0,0.0,0.0,10.0,0.0,0.0,0.0,10.0,-0.102132227805,0.0215716048296,0.0264984528463,1.0,0.0,0.0,0.0,1.0,0.0,0.0,0.0,1.0,0.184416503906,0.935255126953,9.86748046875,0.1,0.0,0.0,0.0,0.1,0.0,0.0,0.0,0.1
1446038017992486726,389,1446038017984957933,robocape,11.9298588053,9.83982786663,-6.22439425901,0.0,10.0,0.0,0.0,0.0,10.0,0.0,0.0,0.0,10.0,-0.236355546745,0.0146473859954,0.138883850848,1.0,0.0,0.0,0.0,1.0,0.0,0.0,0.0,1.0,-0.128133544922,0.526904296875,9.91059082031,0.1,0.0,0.0,0.0,0.1,0.0,0.0,0.0,0.1
1446038018024557393,390,1446038018020883083,robocape,11.6090471339,9.79203892743,-5.93496537976,0.0,10.0,0.0,0.0,0.0,10.0,0.0,0.0,0.0,10.0,-0.185888644088,0.0119842249054,0.146740176063,1.0,0.0,0.0,0.0,1.0,0.0,0.0,0.0,1.0,-0.0371228027344,-0.787961425781,10.0219592285,0.1,0.0,0.0,0.0,0.1,0.0,0.0,0.0,0.1
1446038018055407601,391,1446038018051604032,robocape,11.7079864927,9.78726010143,-5.92790843149,0.0,10.0,0.0,0.0,0.0,10.0,0.0,0.0,0.0,10.0,0.0628506017259,0.00705737688871,-0.00253000303558,1.0,0.0,0.0,0.0,1.0,0.0,0.0,0.0,1.0,-0.310155029297,0.15328125,10.1920056152,0.1,0.0,0.0,0.0,0.1,0.0,0.0,0.0,0.1
