%time,field.header.seq,field.header.stamp,field.header.frame_id,field.orientation.x,field.orientation.y,field.orientation.z,field.orientation.w,field.orientation_covariance0,field.orientation_covariance1,field.orientation_covariance2,field.orientation_covariance3,field.orientation_covariance4,field.orientation_covariance5,field.orientation_covariance6,field.orientation_covariance7,field.orientation_covariance8,field.angular_velocity.x,field.angular_velocity.y,field.angular_velocity.z,field.angular_velocity_covariance0,field.angular_velocity_covariance1,field.angular_velocity_covariance2,field.angular_velocity_covariance3,field.angular_velocity_covariance4,field.angular_velocity_covariance5,field.angular_velocity_covariance6,field.angular_velocity_covariance7,field.angular_velocity_covariance8,field.linear_acceleration.x,field.linear_acceleration.y,field.linear_acceleration.z,field.linear_acceleration_covariance0,field.linear_acceleration_covariance1,field.linear_acceleration_covariance2,field.linear_acceleration_covariance3,field.linear_acceleration_covariance4,field.linear_acceleration_covariance5,field.linear_acceleration_covariance6,field.linear_acceleration_covariance7,field.linear_acceleration_covariance8
1446036917472443080,1,1446036917468990087,robocape,-0.095922808958,2.77087425747,-29.0233412953,0.0,10.0,0.0,0.0,0.0,10.0,0.0,0.0,0.0,10.0,-0.113184346328,0.0101200121423,0.109322762748,1.0,0.0,0.0,0.0,1.0,0.0,0.0,0.0,1.0,0.0550854492188,0.941242675781,10.0566870117,0.1,0.0,0.0,0.0,0.1,0.0,0.0,0.0,0.1
1446036917502425580,2,1446036917499489068,robocape,-0.430352434472,2.78061382039,-28.6571955882,0.0,10.0,0.0,0.0,0.0,10.0,0.0,0.0,0.0,10.0,-0.184157589379,0.0066579027252,0.166048093966,1.0,0.0,0.0,0.0,1.0,0.0,0.0,0.0,1.0,-0.0550854492188,-0.640667724609,9.99441650391,0.1,0.0,0.0,0.0,0.1,0.0,0.0,0.0,0.1
1446036917535425163,3,1446036917532309055,robocape,-0.351114592576,2.80463601802,-28.4876735156,0.0,10.0,0.0,0.0,0.0,10.0,0.0,0.0,0.0,10.0,0.0375505713701,0.0151800182135,0.0567253312187,1.0,0.0,0.0,0.0,1.0,0.0,0.0,0.0,1.0,0.0526904296875,-1.02147583008,9.99321899414,0.1,0.0,0.0,0.0,0.1,0.0,0.0,0.0,0.1
1446036917569542997,4,1446036917566427946,robocape,-0.03529831535,2.83330613142,-28.4054050157,0.0,10.0,0.0,0.0,0.0,10.0,0.0,0.0,0.0,10.0,0.164050723149,0.0183758115215,0.00825579937925,1.0,0.0,0.0,0.0,1.0,0.0,0.0,0.0,1.0,0.01916015625,-0.167651367188,10.0902172852,0.1,0.0,0.0,0.0,0.1,0.0,0.0,0.0,0.1
1446036917602197038,5,1446036917599159002,robocape,0.476471454968,2.87169777436,-28.5889825031,0.0,10.0,0.0,0.0,0.0,10.0,0.0,0.0,0.0,10.0,0.274571908387,0.0241016078652,-0.140348589447,1.0,0.0,0.0,0.0,1.0,0.0,0.0,0.0,1.0,-0.186811523438,0.184416503906,9.99321899414,0.1,0.0,0.0,0.0,0.1,0.0,0.0,0.0,0.1
1446036917635441872,6,1446036917632384061,robocape,0.788161199526,2.88755359519,-28.723400705,0.0,10.0,0.0,0.0,0.0,10.0,0.0,0.0,0.0,10.0,0.168977571166,0.0115847507418,-0.113450662437,1.0,0.0,0.0,0.0,1.0,0.0,0.0,0.0,1.0,0.0598754882813,1.58310791016,9.93573852539,0.1,0.0,0.0,0.0,0.1,0.0,0.0,0.0,0.1
1446036917669204788,7,1446036917666023015,robocape,0.661124334933,2.89311821706,-28.6472679064,0.0,10.0,0.0,0.0,0.0,10.0,0.0,0.0,0.0,10.0,-0.066845343361,0.0066579027252,0.00452737385313,1.0,0.0,0.0,0.0,1.0,0.0,0.0,0.0,1.0,0.0323327636719,1.4525793457,10.0483044434,0.1,0.0,0.0,0.0,0.1,0.0,0.0,0.0,0.1
1446036917702568538,8,1446036917699145078,robocape,0.290975209007,2.89163684585,-28.5636955356,0.0,10.0,0.0,0.0,0.0,10.0,0.0,0.0,0.0,10.0,-0.194810233739,0.00279631914458,0.00932106381528,1.0,0.0,0.0,0.0,1.0,0.0,0.0,0.0,1.0,-0.0706530761719,0.894539794922,10.075847168,0.1,0.0,0.0,0.0,0.1,0.0,0.0,0.0,0.1
1446036917735448372,9,1446036917732347965,robocape,-0.22263689651,2.87960164576,-28.4538784728,0.0,10.0,0.0,0.0,0.0,10.0,0.0,0.0,0.0,10.0,-0.271242957025,-0.00306263525359,0.0242347659197,1.0,0.0,0.0,0.0,1.0,0.0,0.0,0.0,1.0,0.05748046875,0.293389892578,10.0016015625,0.1,0.0,0.0,0.0,0.1,0.0,0.0,0.0,0.1
1446036917768796122,10,1446036917765657901,robocape,-0.712151848201,2.87114711336,-28.3006609685,0.0,10.0,0.0,0.0,0.0,10.0,0.0,0.0,0.0,10.0,-0.260323996555,-0.00186421276306,0.0483363737849,1.0,0.0,0.0,0.0,1.0,0.0,0.0,0.0,1.0,-0.129331054688,-0.140108642578,10.0303417969,0.1,0.0,0.0,0.0,0.1,0.0,0.0,0.0,0.1
1446036917802270538,11,1446036917799181938,robocape,-1.0485145626,2.86791798328,-28.1554217116,0.0,10.0,0.0,0.0,0.0,10.0,0.0,0.0,0.0,10.0,-0.180296005798,0.000532632218016,0.0439421579863,1.0,0.0,0.0,0.0,1.0,0.0,0.0,0.0,1.0,-0.0467028808594,-1.64178588867,10.0339343262,0.1,0.0,0.0,0.0,0.1,0.0,0.0,0.0,0.1
1446036917835575414,12,1446036917832509040,robocape,-0.979861770277,2.89293385241,-28.0560568527,0.0,10.0,0.0,0.0,0.0,10.0,0.0,0.0,0.0,10.0,0.033023197517,0.015845808486,0.0189084437396,1.0,0.0,0.0,0.0,1.0,0.0,0.0,0.0,1.0,0.330512695313,-0.467028808594,10.0722546387,0.1,0.0,0.0,0.0,0.1,0.0,0.0,0.0,0.1
1446036917868960955,13,1446036917865910053,robocape,-0.853401048441,2.9224923669,-27.8396116863,0.0,10.0,0.0,0.0,0.0,10.0,0.0,0.0,0.0,10.0,0.0603205986903,0.016911072922,0.084289048501,1.0,0.0,0.0,0.0,1.0,0.0,0.0,0.0,1.0,0.290994873047,-0.967587890625,10.0004040527,0.1,0.0,0.0,0.0,0.1,0.0,0.0,0.0,0.1
1446036917901993872,14,1446036917898875951,robocape,-0.360729029214,2.97512208538,-27.806886585,0.0,10.0,0.0,0.0,0.0,10.0,0.0,0.0,0.0,10.0,0.257527677411,0.0312921428084,-0.01744370514,1.0,0.0,0.0,0.0,1.0,0.0,0.0,0.0,1.0,-0.124541015625,-0.265847167969,9.99082397461,0.1,0.0,0.0,0.0,0.1,0.0,0.0,0.0,0.1
1446036917935299455,15,1446036917932163000,robocape,0.18118807585,3.01527720434,-27.7567854188,0.0,10.0,0.0,0.0,0.0,10.0,0.0,0.0,0.0,10.0,0.283493498039,0.0247673981377,-0.00825579937925,1.0,0.0,0.0,0.0,1.0,0.0,0.0,0.0,1.0,-0.201181640625,0.173638916016,9.96807128906,0.1,0.0,0.0,0.0,0.1,0.0,0.0,0.0,0.1
1446036917968855289,16,1446036917965838909,robocape,0.774305330298,3.04611311672,-27.9287068794,0.0,10.0,0.0,0.0,0.0,10.0,0.0,0.0,0.0,10.0,0.317581959992,0.0198405501211,-0.132225948122,1.0,0.0,0.0,0.0,1.0,0.0,0.0,0.0,1.0,-0.137713623047,1.01429077148,10.1584753418,0.1,0.0,0.0,0.0,0.1,0.0,0.0,0.0,0.1
1446036918001979330,17,1446036917998934984,robocape,1.05533734064,3.06681958452,-27.9348601102,0.0,10.0,0.0,0.0,0.0,10.0,0.0,0.0,0.0,10.0,0.149669653262,0.0145142279409,-0.0403468905147,1.0,0.0,0.0,0.0,1.0,0.0,0.0,0.0,1.0,0.0634680175781,1.9507434082,10.0016015625,0.1,0.0,0.0,0.0,0.1,0.0,0.0,0.0,0.1
1446036918035454080,18,1446036918032290935,robocape,0.829670978423,3.0747156679,-27.8251934579,0.0,10.0,0.0,0.0,0.0,10.0,0.0,0.0,0.0,10.0,-0.11944277489,0.00825579937925,0.0251668723012,1.0,0.0,0.0,0.0,1.0,0.0,0.0,0.0,1.0,0.009580078125,1.37234619141,9.98723144531,0.1,0.0,0.0,0.0,0.1,0.0,0.0,0.0,0.1
1446036918068705872,19,1446036918065603971,robocape,0.0346668450179,3.06369032211,-27.3881032487,0.0,10.0,0.0,0.0,0.0,10.0,0.0,0.0,0.0,10.0,-0.427969987176,-0.00199737081756,0.208525513353,1.0,0.0,0.0,0.0,1.0,0.0,0.0,0.0,1.0,-0.0598754882813,0.946032714844,9.97525634766,0.1,0.0,0.0,0.0,0.1,0.0,0.0,0.0,0.1
1446036918102470289,20,1446036918099117994,robocape,-0.602940133958,3.04978314821,-27.0703457115,0.0,10.0,0.0,0.0,0.0,10.0,0.0,0.0,0.0,10.0,-0.342615674239,-0.00545948023466,0.142079644156,1.0,0.0,0.0,0.0,1.0,0.0,0.0,0.0,1.0,-0.274229736328,-1.76752441406,9.91777587891,0.1,0.0,0.0,0.0,0.1,0.0,0.0,0.0,0.1
1446036918135742705,21,1446036918132173061,robocape,-0.706091661651,3.06619932027,-26.9817123968,0.0,10.0,0.0,0.0,0.0,10.0,0.0,0.0,0.0,10.0,-0.0564590151097,0.0117179087963,0.0151800182135,1.0,0.0,0.0,0.0,1.0,0.0,0.0,0.0,1.0,0.0934057617188,-0.868194580078,10.075847168,0.1,0.0,0.0,0.0,0.1,0.0,0.0,0.0,0.1
1446036918169023247,22,1446036918165570020,robocape,-0.57936605178,3.0892757311,-26.9124036693,0.0,10.0,0.0,0.0,0.0,10.0,0.0,0.0,0.0,10.0,0.0645816564344,0.0154463343225,0.00466053190764,1.0,0.0,0.0,0.0,1.0,0.0,0.0,0.0,1.0,0.365240478516,-0.741258544922,9.9980090332,0.1,0.0,0.0,0.0,0.1,0.0,0.0,0.0,0.1
1446036918202288455,23,1446036918199011087,robocape,-0.292275219276,3.12327730379,-26.8432032874,0.0,10.0,0.0,0.0,0.0,10.0,0.0,0.0,0.0,10.0,0.148870704935,0.0213052887206,0.00466053190764,1.0,0.0,0.0,0.0,1.0,0.0,0.0,0.0,1.0,0.168848876953,-0.313747558594,9.9980090332,0.1,0.0,0.0,0.0,0.1,0.0,0.0,0.0,0.1
1446036918235587872,24,1446036918232311964,robocape,0.096890933045,3.1588032644,-26.7620002741,0.0,10.0,0.0,0.0,0.0,10.0,0.0,0.0,0.0,10.0,0.202400242846,0.0222373951022,0.0111852765783,1.0,0.0,0.0,0.0,1.0,0.0,0.0,0.0,1.0,-0.346080322266,0.117355957031,9.96328125,0.1,0.0,0.0,0.0,0.1,0.0,0.0,0.0,0.1
1446036918269018622,25,1446036918265499114,robocape,0.461062439604,3.19156649723,-26.7125952517,0.0,10.0,0.0,0.0,0.0,10.0,0.0,0.0,0.0,10.0,0.19068233405,0.0210389726116,-0.00652474467069,1.0,0.0,0.0,0.0,1.0,0.0,0.0,0.0,1.0,0.0694555664063,0.514929199219,10.0698596191,0.1,0.0,0.0,0.0,0.1,0.0,0.0,0.0,0.1
1446036918302239330,26,1446036918299099922,robocape,0.802357331533,3.21705006906,-26.7787380837,0.0,10.0,0.0,0.0,0.0,10.0,0.0,0.0,0.0,10.0,0.182692850779,0.0170442309765,-0.0705737688871,1.0,0.0,0.0,0.0,1.0,0.0,0.0,0.0,1.0,-0.130528564453,0.971180419922,10.1117724609,0.1,0.0,0.0,0.0,0.1,0.0,0.0,0.0,0.1
1446036918335482705,27,1446036918332324028,robocape,0.759202633841,3.22753379758,-26.6790480487,0.0,10.0,0.0,0.0,0.0,10.0,0.0,0.0,0.0,10.0,-0.0238352917562,0.00958737992429,0.0217047628841,1.0,0.0,0.0,0.0,1.0,0.0,0.0,0.0,1.0,0.0107775878906,1.48970214844,9.97286132813,0.1,0.0,0.0,0.0,0.1,0.0,0.0,0.0,0.1
1446036918374750705,28,1446036918365578889,robocape,0.348700328754,3.22551295992,-26.4067678321,0.0,10.0,0.0,0.0,0.0,10.0,0.0,0.0,0.0,10.0,-0.221974476858,0.00306263525359,0.118111194345,1.0,0.0,0.0,0.0,1.0,0.0,0.0,0.0,1.0,-0.00239501953125,0.623902587891,9.96926879883,0.1,0.0,0.0,0.0,0.1,0.0,0.0,0.0,0.1
1446036918402756830,29,1446036918399708032,robocape,0.0278165085468,3.22879176196,-26.3923848785,0.0,10.0,0.0,0.0,0.0,10.0,0.0,0.0,0.0,10.0,-0.167512832566,0.00545948023466,-0.0242347659197,1.0,0.0,0.0,0.0,1.0,0.0,0.0,0.0,1.0,-0.100590820313,-0.411943359375,10.0710571289,0.1,0.0,0.0,0.0,0.1,0.0,0.0,0.0,0.1
1446036918435695497,30,1446036918432492017,robocape,-0.0481182220177,3.24272172283,-26.4237173509,0.0,10.0,0.0,0.0,0.0,10.0,0.0,0.0,0.0,10.0,-0.0379500455336,0.0113184346328,-0.0498011123845,1.0,0.0,0.0,0.0,1.0,0.0,0.0,0.0,1.0,0.0718505859375,-0.0946032714844,10.2446960449,0.1,0.0,0.0,0.0,0.1,0.0,0.0,0.0,0.1
1446036918469893872,31,1446036918466754913,robocape,-0.0375683904831,3.25461217815,-26.440843664,0.0,10.0,0.0,0.0,0.0,10.0,0.0,0.0,0.0,10.0,0.00692421883421,0.0102531701968,-0.0420779452233,1.0,0.0,0.0,0.0,1.0,0.0,0.0,0.0,1.0,0.0371228027344,-0.423918457031,10.0291442871,0.1,0.0,0.0,0.0,0.1,0.0,0.0,0.0,0.1
1446036918503265955,32,1446036918500138044,robocape,-0.0953830216544,3.26543621585,-26.3329894211,0.0,10.0,0.0,0.0,0.0,10.0,0.0,0.0,0.0,10.0,-0.032756881408,0.00918790576077,0.0270310850643,1.0,0.0,0.0,0.0,1.0,0.0,0.0,0.0,1.0,0.0778381347656,0.0598754882813,10.0614770508,0.1,0.0,0.0,0.0,0.1,0.0,0.0,0.0,0.1
1446036918536859122,33,1446036918533586025,robocape,0.00814759788281,3.2891773058,-26.315132977,0.0,10.0,0.0,0.0,0.0,10.0,0.0,0.0,0.0,10.0,0.0545948023466,0.016378440704,-0.0226368692657,1.0,0.0,0.0,0.0,1.0,0.0,0.0,0.0,1.0,-0.0550854492188,-0.0431103515625,10.0027990723,0.1,0.0,0.0,0.0,0.1,0.0,0.0,0.0,0.1
1446036918570351497,34,1446036918567153930,robocape,0.0618451585833,3.30867941088,-26.2007313587,0.0,10.0,0.0,0.0,0.0,10.0,0.0,0.0,0.0,10.0,0.0255663464648,0.0138484376684,0.0307595105904,1.0,0.0,0.0,0.0,1.0,0.0,0.0,0.0,1.0,0.0934057617188,0.128133544922,10.0578845215,0.1,0.0,0.0,0.0,0.1,0.0,0.0,0.0,0.1
1446036918602779539,35,1446036918599644899,robocape,0.0198833020844,3.32636231937,-25.9696464754,0.0,10.0,0.0,0.0,0.0,10.0,0.0,0.0,0.0,10.0,-0.0282295075548,0.0125168571234,0.0954743250793,1.0,0.0,0.0,0.0,1.0,0.0,0.0,0.0,1.0,-0.0047900390625,-0.0526904296875,10.0435144043,0.1,0.0,0.0,0.0,0.1,0.0,0.0,0.0,0.1
1446036918637755872,36,1446036918634012937,robocape,0.176120504186,3.35082437004,-25.8478096941,0.0,10.0,0.0,0.0,0.0,10.0,0.0,0.0,0.0,10.0,0.0790958843754,0.0165115987585,0.0354200424981,1.0,0.0,0.0,0.0,1.0,0.0,0.0,0.0,1.0,0.0550854492188,-0.417930908203,10.0231567383,0.1,0.0,0.0,0.0,0.1,0.0,0.0,0.0,0.1
1446036918669904247,37,1446036918666465997,robocape,0.379133296681,3.37613503661,-25.7619080072,0.0,10.0,0.0,0.0,0.0,10.0,0.0,0.0,0.0,10.0,0.104928546949,0.017177389031,0.0157126504315,1.0,0.0,0.0,0.0,1.0,0.0,0.0,0.0,1.0,-0.0455053710938,0.423918457031,10.0267492676,0.1,0.0,0.0,0.0,0.1,0.0,0.0,0.0,0.1
1446036918704082497,38,1446036918700690984,robocape,0.498878620731,3.39593403384,-25.657791936,0.0,10.0,0.0,0.0,0.0,10.0,0.0,0.0,0.0,10.0,0.0608532309083,0.0143810698864,0.0259658206283,1.0,0.0,0.0,0.0,1.0,0.0,0.0,0.0,1.0,0.01916015625,0.414338378906,10.0303417969,0.1,0.0,0.0,0.0,0.1,0.0,0.0,0.0,0.1
1446036918736608997,39,1446036918733345985,robocape,0.567786984588,3.41370833442,-25.600767747,0.0,10.0,0.0,0.0,0.0,10.0,0.0,0.0,0.0,10.0,0.0358195166616,0.0133158054504,0.000266316109008,1.0,0.0,0.0,0.0,1.0,0.0,0.0,0.0,1.0,-0.0383203125,0.598754882812,10.0363293457,0.1,0.0,0.0,0.0,0.1,0.0,0.0,0.0,0.1
1446036918775106539,40,1446036918770768880,robocape,0.738157692139,3.43066330942,-25.7727213234,0.0,10.0,0.0,0.0,0.0,10.0,0.0,0.0,0.0,10.0,0.0966727475699,0.0123836990689,-0.125967519561,1.0,0.0,0.0,0.0,1.0,0.0,0.0,0.0,1.0,-0.0443078613281,0.308957519531,10.0135766602,0.1,0.0,0.0,0.0,0.1,0.0,0.0,0.0,0.1
1446036918805730539,41,1446036918802577972,robocape,0.891081742256,3.43404172985,-26.0598886898,0.0,10.0,0.0,0.0,0.0,10.0,0.0,0.0,0.0,10.0,0.0916127414987,0.00452737385313,-0.189883385723,1.0,0.0,0.0,0.0,1.0,0.0,0.0,0.0,1.0,-0.0790356445313,1.45736938477,9.99920654297,0.1,0.0,0.0,0.0,0.1,0.0,0.0,0.0,0.1
1446036918838756206,42,1446036918833448886,robocape,0.497239893242,3.42108839528,-26.166768226,0.0,10.0,0.0,0.0,0.0,10.0,0.0,0.0,0.0,10.0,-0.201201820355,-0.0033289513626,-0.0900148448447,1.0,0.0,0.0,0.0,1.0,0.0,0.0,0.0,1.0,0.0359252929688,1.47413452148,10.0207617188,0.1,0.0,0.0,0.0,0.1,0.0,0.0,0.0,0.1
1446036918872193872,43,1446036918868797063,robocape,-0.168945223039,3.39148509686,-26.1504598408,0.0,10.0,0.0,0.0,0.0,10.0,0.0,0.0,0.0,10.0,-0.348607786691,-0.0117179087963,-0.0219710789932,1.0,0.0,0.0,0.0,1.0,0.0,0.0,0.0,1.0,0.0047900390625,0.477806396484,10.003996582,0.1,0.0,0.0,0.0,0.1,0.0,0.0,0.0,0.1
1446036918906128872,44,1446036918902487993,robocape,-0.785585794202,3.36218152563,-26.0674537602,0.0,10.0,0.0,0.0,0.0,10.0,0.0,0.0,0.0,10.0,-0.325438285208,-0.0119842249054,0.0142479118319,1.0,0.0,0.0,0.0,1.0,0.0,0.0,0.0,1.0,-0.274229736328,-0.796343994141,10.1201550293,0.1,0.0,0.0,0.0,0.1,0.0,0.0,0.0,0.1
1446036918939509331,45,1446036918935389995,robocape,-1.16285883632,3.35213937365,-26.0013886071,0.0,10.0,0.0,0.0,0.0,10.0,0.0,0.0,0.0,10.0,-0.200003397865,-0.00186421276306,0.00466053190764,1.0,0.0,0.0,0.0,1.0,0.0,0.0,0.0,1.0,0.173638916016,-1.02985839844,9.96567626953,0.1,0.0,0.0,0.0,0.1,0.0,0.0,0.0,0.1
1446036918974123664,46,1446036918969631910,robocape,-1.32135876282,3.36251629225,-25.909411657,0.0,10.0,0.0,0.0,0.0,10.0,0.0,0.0,0.0,10.0,-0.0864195773731,0.00838895743375,0.0191747598486,1.0,0.0,0.0,0.0,1.0,0.0,0.0,0.0,1.0,0.371228027344,-0.799936523438,9.92017089844,0.1,0.0,0.0,0.0,0.1,0.0,0.0,0.0,0.1
1446036919006911497,47,1446036919003418922,robocape,-1.19080571406,3.39018533625,-25.8586215446,0.0,10.0,0.0,0.0,0.0,10.0,0.0,0.0,0.0,10.0,0.066312711143,0.0181094954125,-0.00306263525359,1.0,0.0,0.0,0.0,1.0,0.0,0.0,0.0,1.0,0.215551757813,-0.683778076172,10.0207617188,0.1,0.0,0.0,0.0,0.1,0.0,0.0,0.0,0.1
1446036919040103539,48,1446036919036608934,robocape,-1.0116908449,3.4241510421,-25.7285361367,0.0,10.0,0.0,0.0,0.0,10.0,0.0,0.0,0.0,10.0,0.0894822126267,0.0203731823391,0.0407463646782,1.0,0.0,0.0,0.0,1.0,0.0,0.0,0.0,1.0,0.0874182128906,-0.311352539063,10.0734521484,0.1,0.0,0.0,0.0,0.1,0.0,0.0,0.0,0.1
1446036919073333914,49,1446036919070050001,robocape,-0.763532914619,3.453859224,-25.5764559628,0.0,10.0,0.0,0.0,0.0,10.0,0.0,0.0,0.0,10.0,0.125168571234,0.0181094954125,0.0529969056926,1.0,0.0,0.0,0.0,1.0,0.0,0.0,0.0,1.0,-0.0275427246094,-0.822689208984,9.98962646484,0.1,0.0,0.0,0.0,0.1,0.0,0.0,0.0,0.1
1446036919105934872,50,1446036919102529048,robocape,-0.371481537497,3.49688330474,-25.5339492663,0.0,10.0,0.0,0.0,0.0,10.0,0.0,0.0,0.0,10.0,0.204397613664,0.0264984528463,-0.00719053494321,1.0,0.0,0.0,0.0,1.0,0.0,0.0,0.0,1.0,-0.0706530761719,0.423918457031,10.0518969727,0.1,0.0,0.0,0.0,0.1,0.0,0.0,0.0,0.1
1446036919138930247,51,1446036919135340929,robocape,0.0466154548126,3.53404238294,-25.648597006,0.0,10.0,0.0,0.0,0.0,10.0,0.0,0.0,0.0,10.0,0.223705531567,0.0243679239742,-0.0940095864798,1.0,0.0,0.0,0.0,1.0,0.0,0.0,0.0,1.0,-0.0275427246094,0.387993164063,9.94891113281,0.1,0.0,0.0,0.0,0.1,0.0,0.0,0.0,0.1
1446036919171790622,52,1446036919168311119,robocape,0.220842722005,3.54329270595,-25.5958160043,0.0,10.0,0.0,0.0,0.0,10.0,0.0,0.0,0.0,10.0,0.0906806351172,0.00892158965177,-0.00199737081756,1.0,0.0,0.0,0.0,1.0,0.0,0.0,0.0,1.0,-0.275427246094,1.67172363281,10.100994873,0.1,0.0,0.0,0.0,0.1,0.0,0.0,0.0,0.1
1446036919205445331,53,1446036919202286958,robocape,0.0484062967979,3.54662504204,-25.5419428635,0.0,10.0,0.0,0.0,0.0,10.0,0.0,0.0,0.0,10.0,-0.0910801092807,0.00572579634367,-0.000932106381528,1.0,0.0,0.0,0.0,1.0,0.0,0.0,0.0,1.0,-0.118553466797,0.438288574219,10.080637207,0.1,0.0,0.0,0.0,0.1,0.0,0.0,0.0,0.1
1446036919238966081,54,1446036919235925912,robocape,-0.301887938849,3.53791412532,-25.4409439727,0.0,10.0,0.0,0.0,0.0,10.0,0.0,0.0,0.0,10.0,-0.186154960197,-0.000932106381528,0.0253000303558,1.0,0.0,0.0,0.0,1.0,0.0,0.0,0.0,1.0,-0.0215551757813,0.514929199219,10.0614770508,0.1,0.0,0.0,0.0,0.1,0.0,0.0,0.0,0.1
1446036919271474039,55,1446036919268291950,robocape,-0.71233068357,3.51960938279,-25.3224151525,0.0,10.0,0.0,0.0,0.0,10.0,0.0,0.0,0.0,10.0,-0.218645525496,-0.00639158661619,0.0350205683345,1.0,0.0,0.0,0.0,1.0,0.0,0.0,0.0,1.0,-0.0981958007813,-0.426313476563,10.0207617188,0.1,0.0,0.0,0.0,0.1,0.0,0.0,0.0,0.1
1446036919304375456,56,1446036919301182985,robocape,-1.01793046514,3.51393669863,-25.2543366162,0.0,10.0,0.0,0.0,0.0,10.0,0.0,0.0,0.0,10.0,-0.162452826495,0.000532632218016,0.00732369299772,1.0,0.0,0.0,0.0,1.0,0.0,0.0,0.0,1.0,0.0874182128906,-0.207169189453,10.0279467773,0.1,0.0,0.0,0.0,0.1,0.0,0.0,0.0,0.1
1446036919338419581,57,1446036919335387945,robocape,-1.27587356156,3.51389620394,-25.1263386808,0.0,10.0,0.0,0.0,0.0,10.0,0.0,0.0,0.0,10.0,-0.139682799175,0.00253000303558,0.0403468905147,1.0,0.0,0.0,0.0,1.0,0.0,0.0,0.0,1.0,0.0886157226563,-0.656235351563,9.99202148437,0.1,0.0,0.0,0.0,0.1,0.0,0.0,0.0,0.1
1446036919376836706,58,1446036919367861986,robocape,-1.42565743195,3.52909614494,-24.9602096092,0.0,10.0,0.0,0.0,0.0,10.0,0.0,0.0,0.0,10.0,-0.0844222065555,0.00972053797879,0.0616521792353,1.0,0.0,0.0,0.0,1.0,0.0,0.0,0.0,1.0,0.0922082519531,-0.871787109375,10.0075891113,0.1,0.0,0.0,0.0,0.1,0.0,0.0,0.0,0.1
1446036919405530664,59,1446036919402369976,robocape,-1.26962888584,3.56119475443,-24.8131538002,0.0,10.0,0.0,0.0,0.0,10.0,0.0,0.0,0.0,10.0,0.0764327232853,0.0189084437396,0.051798483202,1.0,0.0,0.0,0.0,1.0,0.0,0.0,0.0,1.0,0.119750976563,-1.08733886719,9.95729370117,0.1,0.0,0.0,0.0,0.1,0.0,0.0,0.0,0.1
1446036919437761873,60,1446036919434302091,robocape,-0.867847277656,3.60831820791,-24.7555828685,0.0,10.0,0.0,0.0,0.0,10.0,0.0,0.0,0.0,10.0,0.208392355299,0.0283626656093,0.00306263525359,1.0,0.0,0.0,0.0,1.0,0.0,0.0,0.0,1.0,0.0993933105469,-0.316142578125,9.98244140625,0.1,0.0,0.0,0.0,0.1,0.0,0.0,0.0,0.1
1446036919470658081,61,1446036919467541933,robocape,-0.443599669002,3.65157797214,-24.6951151775,0.0,10.0,0.0,0.0,0.0,10.0,0.0,0.0,0.0,10.0,0.220509738259,0.0264984528463,0.00439421579863,1.0,0.0,0.0,0.0,1.0,0.0,0.0,0.0,1.0,0.132923583984,0.170046386719,9.98842895508,0.1,0.0,0.0,0.0,0.1,0.0,0.0,0.0,0.1
1446036919504349831,62,1446036919500878095,robocape,-0.115424107683,3.68669226314,-24.6313756286,0.0,10.0,0.0,0.0,0.0,10.0,0.0,0.0,0.0,10.0,0.170442309765,0.0223705531567,0.00599211245268,1.0,0.0,0.0,0.0,1.0,0.0,0.0,0.0,1.0,0.0969982910156,0.500559082031,10.0099841309,0.1,0.0,0.0,0.0,0.1,0.0,0.0,0.0,0.1
1446036919536548081,63,1446036919533261060,robocape,0.123893687529,3.70784566067,-24.6079517988,0.0,10.0,0.0,0.0,0.0,10.0,0.0,0.0,0.0,10.0,0.125568045397,0.015313176268,-0.016112124595,1.0,0.0,0.0,0.0,1.0,0.0,0.0,0.0,1.0,-0.205971679688,0.246687011719,9.98842895508,0.1,0.0,0.0,0.0,0.1,0.0,0.0,0.0,0.1
1446036919569502248,64,1446036919566384077,robocape,0.253856205439,3.72077933813,-24.6829658361,0.0,10.0,0.0,0.0,0.0,10.0,0.0,0.0,0.0,10.0,0.0719053494321,0.0111852765783,-0.0700411366691,1.0,0.0,0.0,0.0,1.0,0.0,0.0,0.0,1.0,-0.189206542969,0.738863525391,10.0686621094,0.1,0.0,0.0,0.0,0.1,0.0,0.0,0.0,0.1
1446036919603976414,65,1446036919600476980,robocape,0.110521020087,3.71523537872,-24.7731350125,0.0,10.0,0.0,0.0,0.0,10.0,0.0,0.0,0.0,10.0,-0.0708400849961,0.00146473859954,-0.0781637779938,1.0,0.0,0.0,0.0,1.0,0.0,0.0,0.0,1.0,-0.105380859375,1.2609777832,10.0638720703,0.1,0.0,0.0,0.0,0.1,0.0,0.0,0.0,0.1
1446036919635938789,66,1446036919632778882,robocape,-0.38031541521,3.69185347239,-24.7124470686,0.0,10.0,0.0,0.0,0.0,10.0,0.0,0.0,0.0,10.0,-0.258592941847,-0.00838895743375,0.00479368996214,1.0,0.0,0.0,0.0,1.0,0.0,0.0,0.0,1.0,-0.196391601563,0.711320800781,10.0890197754,0.1,0.0,0.0,0.0,0.1,0.0,0.0,0.0,0.1
1446036919669334664,67,1446036919666249036,robocape,-0.916576575299,3.66413076818,-24.6433832248,0.0,10.0,0.0,0.0,0.0,10.0,0.0,0.0,0.0,10.0,-0.28322718193,-0.0109189604693,0.00918790576077,1.0,0.0,0.0,0.0,1.0,0.0,0.0,0.0,1.0,-0.131726074219,-0.207169189453,9.99920654297,0.1,0.0,0.0,0.0,0.1,0.0,0.0,0.0,0.1
1446036919702280914,68,1446036919699179887,robocape,-1.38601622636,3.63915483137,-24.570234913,0.0,10.0,0.0,0.0,0.0,10.0,0.0,0.0,0.0,10.0,-0.248872403868,-0.00972053797879,0.0111852765783,1.0,0.0,0.0,0.0,1.0,0.0,0.0,0.0,1.0,0.117355957031,-0.649050292969,10.0027990723,0.1,0.0,0.0,0.0,0.1,0.0,0.0,0.0,0.1
1446036919735758414,69,1446036919732544898,robocape,-1.61524057877,3.63204436775,-24.5926051879,0.0,10.0,0.0,0.0,0.0,10.0,0.0,0.0,0.0,10.0,-0.120241723217,0.00119842249054,-0.0410126807872,1.0,0.0,0.0,0.0,1.0,0.0,0.0,0.0,1.0,0.2682421875,-0.510139160156,10.0207617188,0.1,0.0,0.0,0.0,0.1,0.0,0.0,0.0,0.1
1446036919768895873,70,1446036919765809059,robocape,-1.80427068344,3.62519181131,-24.5349380833,0.0,10.0,0.0,0.0,0.0,10.0,0.0,0.0,0.0,10.0,-0.10199906975,-0.000133158054504,0.00279631914458,1.0,0.0,0.0,0.0,1.0,0.0,0.0,0.0,1.0,0.240699462891,-1.27894042969,9.93334350586,0.1,0.0,0.0,0.0,0.1,0.0,0.0,0.0,0.1
1446036919802023289,71,1446036919798938035,robocape,-1.76225503565,3.64217893979,-24.4531231415,0.0,10.0,0.0,0.0,0.0,10.0,0.0,0.0,0.0,10.0,0.018242653467,0.0118510668509,0.016644756813,1.0,0.0,0.0,0.0,1.0,0.0,0.0,0.0,1.0,0.00598754882813,-0.892144775391,10.0722546387,0.1,0.0,0.0,0.0,0.1,0.0,0.0,0.0,0.1
1446036919835461081,72,1446036919832290887,robocape,-1.49089239135,3.68626935114,-24.4245286813,0.0,10.0,0.0,0.0,0.0,10.0,0.0,0.0,0.0,10.0,0.140348589447,0.0271642431188,-0.0118510668509,1.0,0.0,0.0,0.0,1.0,0.0,0.0,0.0,1.0,0.155676269531,-0.5748046875,9.94412109375,0.1,0.0,0.0,0.0,0.1,0.0,0.0,0.0,0.1
1446036919868766456,73,1446036919865705013,robocape,-1.2172011331,3.72062365775,-24.3544494769,0.0,10.0,0.0,0.0,0.0,10.0,0.0,0.0,0.0,10.0,0.140481747502,0.0214384467751,0.0106526443603,1.0,0.0,0.0,0.0,1.0,0.0,0.0,0.0,1.0,0.0634680175781,-0.371228027344,9.90699829102,0.1,0.0,0.0,0.0,0.1,0.0,0.0,0.0,0.1
1446036919902078414,74,1446036919899024009,robocape,-0.972930890975,3.75370152369,-24.2837874317,0.0,10.0,0.0,0.0,0.0,10.0,0.0,0.0,0.0,10.0,0.125301729288,0.0209058145571,0.0109189604693,1.0,0.0,0.0,0.0,1.0,0.0,0.0,0.0,1.0,0.0239501953125,0.150886230469,10.0435144043,0.1,0.0,0.0,0.0,0.1,0.0,0.0,0.0,0.1
1446036919935881331,75,1446036919932676076,robocape,-0.78096544897,3.78607466284,-24.2449500292,0.0,10.0,0.0,0.0,0.0,10.0,0.0,0.0,0.0,10.0,0.0992027506055,0.0210389726116,-0.00652474467069,1.0,0.0,0.0,0.0,1.0,0.0,0.0,0.0,1.0,-0.0227526855469,0.425115966797,10.0542919922,0.1,0.0,0.0,0.0,0.1,0.0,0.0,0.0,0.1
1446036919968772206,76,1446036919965765953,robocape,-0.757751119933,3.80343947632,-24.169298413,0.0,10.0,0.0,0.0,0.0,10.0,0.0,0.0,0.0,10.0,0.00958737992429,0.0127831732324,0.0135821215594,1.0,0.0,0.0,0.0,1.0,0.0,0.0,0.0,1.0,-0.0275427246094,0.189206542969,9.96208374023,0.1,0.0,0.0,0.0,0.1,0.0,0.0,0.0,0.1
1446036920002339915,77,1446036919999314069,robocape,-0.78655731439,3.81201982253,-24.0892246332,0.0,10.0,0.0,0.0,0.0,10.0,0.0,0.0,0.0,10.0,-0.0178431793035,0.00812264132474,0.016112124595,1.0,0.0,0.0,0.0,1.0,0.0,0.0,0.0,1.0,-0.0383203125,0.510139160156,10.0542919922,0.1,0.0,0.0,0.0,0.1,0.0,0.0,0.0,0.1
1446036920036582831,78,1446036920033325910,robocape,-1.10694642724,3.80933598714,-23.874743287,0.0,10.0,0.0,0.0,0.0,10.0,0.0,0.0,0.0,10.0,-0.175502315836,0.000399474163512,0.0897485287357,1.0,0.0,0.0,0.0,1.0,0.0,0.0,0.0,1.0,-0.0910107421875,0.196391601563,10.0506994629,0.1,0.0,0.0,0.0,0.1,0.0,0.0,0.0,0.1
1446036920068641998,79,1446036920065635919,robocape,-1.24770567599,3.81345648744,-23.7712303618,0.0,10.0,0.0,0.0,0.0,10.0,0.0,0.0,0.0,10.0,-0.0777643038303,0.00519316412565,0.0294279300454,1.0,0.0,0.0,0.0,1.0,0.0,0.0,0.0,1.0,0.00119750976563,-0.996328125,9.95489868164,0.1,0.0,0.0,0.0,0.1,0.0,0.0,0.0,0.1
1446036920102274331,80,1446036920099244117,robocape,-1.25462328893,3.82958774106,-23.6941348319,0.0,10.0,0.0,0.0,0.0,10.0,0.0,0.0,0.0,10.0,-0.0067910607797,0.0118510668509,0.015313176268,1.0,0.0,0.0,0.0,1.0,0.0,0.0,0.0,1.0,0.0335302734375,-0.350870361328,10.024354248,0.1,0.0,0.0,0.0,0.1,0.0,0.0,0.0,0.1
1446036920135714373,81,1446036920132458925,robocape,-1.16476884652,3.85277182176,-23.6432912614,0.0,10.0,0.0,0.0,0.0,10.0,0.0,0.0,0.0,10.0,0.0448742643678,0.0159789665405,0.00119842249054,1.0,0.0,0.0,0.0,1.0,0.0,0.0,0.0,1.0,0.269439697266,-0.410745849609,9.95489868164,0.1,0.0,0.0,0.0,0.1,0.0,0.0,0.0,0.1
1446036920170381581,82,1446036920167351007,robocape,-1.07972751842,3.87782761391,-23.5860006343,0.0,10.0,0.0,0.0,0.0,10.0,0.0,0.0,0.0,10.0,0.0422111032778,0.016911072922,0.00479368996214,1.0,0.0,0.0,0.0,1.0,0.0,0.0,0.0,1.0,0.0275427246094,-0.488583984375,10.0339343262,0.1,0.0,0.0,0.0,0.1,0.0,0.0,0.0,0.1
1446036920202055248,83,1446036920198949098,robocape,-0.892965145778,3.906108566,-23.5159787003,0.0,10.0,0.0,0.0,0.0,10.0,0.0,0.0,0.0,10.0,0.0952080089703,0.0185089695761,0.0118510668509,1.0,0.0,0.0,0.0,1.0,0.0,0.0,0.0,1.0,-0.0215551757813,-0.204774169922,10.0782421875,0.1,0.0,0.0,0.0,0.1,0.0,0.0,0.0,0.1
1446036920239309081,84,1446036920235831022,robocape,-0.778395465842,3.93526640255,-23.3757834087,0.0,10.0,0.0,0.0,0.0,10.0,0.0,0.0,0.0,10.0,0.0549942765101,0.018242653467,0.050200586548,1.0,0.0,0.0,0.0,1.0,0.0,0.0,0.0,1.0,-0.0395178222656,0.0323327636719,10.0722546387,0.1,0.0,0.0,0.0,0.1,0.0,0.0,0.0,0.1
1446036920273132956,85,1446036920269606113,robocape,-0.607012336352,3.96170074325,-23.2671293094,0.0,10.0,0.0,0.0,0.0,10.0,0.0,0.0,0.0,10.0,0.0860201032096,0.0173105470855,0.0331563555715,1.0,0.0,0.0,0.0,1.0,0.0,0.0,0.0,1.0,0.0646655273438,-0.548459472656,9.95489868164,0.1,0.0,0.0,0.0,0.1,0.0,0.0,0.0,0.1
1446036920307334748,86,1446036920303935050,robocape,-0.400139553777,3.98099795115,-23.2347986917,0.0,10.0,0.0,0.0,0.0,10.0,0.0,0.0,0.0,10.0,0.107591708039,0.0143810698864,-0.00838895743375,1.0,0.0,0.0,0.0,1.0,0.0,0.0,0.0,1.0,0.0311352539063,0.0898132324219,10.0123791504,0.1,0.0,0.0,0.0,0.1,0.0,0.0,0.0,0.1
1446036920339921415,87,1446036920336834907,robocape,-0.20273319766,4.00206949982,-23.2370771863,0.0,10.0,0.0,0.0,0.0,10.0,0.0,0.0,0.0,10.0,0.104129598622,0.015579492377,-0.0272974011733,1.0,0.0,0.0,0.0,1.0,0.0,0.0,0.0,1.0,-0.0335302734375,1.15439941406,10.0662670898,0.1,0.0,0.0,0.0,0.1,0.0,0.0,0.0,0.1
1446036920376689873,88,1446036920370641946,robocape,-0.379793379345,4.00581361709,-23.1312987372,0.0,10.0,0.0,0.0,0.0,10.0,0.0,0.0,0.0,10.0,-0.0961401153519,0.00572579634367,0.0318247750264,1.0,0.0,0.0,0.0,1.0,0.0,0.0,0.0,1.0,-0.17244140625,0.225131835938,10.0159716797,0.1,0.0,0.0,0.0,0.1,0.0,0.0,0.0,0.1
1446036920406479081,89,1446036920403198003,robocape,-0.559764133231,4.00417544207,-23.0465768043,0.0,10.0,0.0,0.0,0.0,10.0,0.0,0.0,0.0,10.0,-0.0970722217334,0.00292947719909,0.0205063403936,1.0,0.0,0.0,0.0,1.0,0.0,0.0,0.0,1.0,-0.190404052734,-0.28740234375,10.0004040527,0.1,0.0,0.0,0.0,0.1,0.0,0.0,0.0,0.1
1446036920438391165,90,1446036920434978961,robocape,-0.730419940607,4.00603753286,-22.9752798538,0.0,10.0,0.0,0.0,0.0,10.0,0.0,0.0,0.0,10.0,-0.0918790576077,0.00479368996214,0.0133158054504,1.0,0.0,0.0,0.0,1.0,0.0,0.0,0.0,1.0,0.0550854492188,-0.00359252929688,10.0854272461,0.1,0.0,0.0,0.0,0.1,0.0,0.0,0.0,0.1
1446036920471618081,91,1446036920468519926,robocape,-0.849451275962,4.01024640872,-22.9183590387,0.0,10.0,0.0,0.0,0.0,10.0,0.0,0.0,0.0,10.0,-0.0644484983799,0.00612527050718,0.00559263828917,1.0,0.0,0.0,0.0,1.0,0.0,0.0,0.0,1.0,0.162861328125,-0.353265380859,10.0075891113,0.1,0.0,0.0,0.0,0.1,0.0,0.0,0.0,0.1
1446036920504848456,92,1446036920501749038,robocape,-0.91114561461,4.01753657328,-22.861640129,0.0,10.0,0.0,0.0,0.0,10.0,0.0,0.0,0.0,10.0,-0.0344879361165,0.00772316716123,0.00559263828917,1.0,0.0,0.0,0.0,1.0,0.0,0.0,0.0,1.0,0.122145996094,-0.625100097656,9.98244140625,0.1,0.0,0.0,0.0,0.1,0.0,0.0,0.0,0.1
1446036920538596456,93,1446036920535305976,robocape,-0.865490161639,4.03388561212,-22.7961484022,0.0,10.0,0.0,0.0,0.0,10.0,0.0,0.0,0.0,10.0,0.0214384467751,0.0123836990689,0.0105194863058,1.0,0.0,0.0,0.0,1.0,0.0,0.0,0.0,1.0,-0.0131726074219,-0.373623046875,10.0267492676,0.1,0.0,0.0,0.0,0.1,0.0,0.0,0.0,0.1
1446036920571466581,94,1446036920568362951,robocape,-0.737735579171,4.05825318828,-22.7423886105,0.0,10.0,0.0,0.0,0.0,10.0,0.0,0.0,0.0,10.0,0.0649811305979,0.0167779148675,0.00426105774413,1.0,0.0,0.0,0.0,1.0,0.0,0.0,0.0,1.0,0.00239501953125,-0.36404296875,9.99681152344,0.1,0.0,0.0,0.0,0.1,0.0,0.0,0.0,0.1
1446036920604269706,95,1446036920601246118,robocape,-0.647695234695,4.08287650325,-22.6446898001,0.0,10.0,0.0,0.0,0.0,10.0,0.0,0.0,0.0,10.0,0.0436758418773,0.0165115987585,0.0282295075548,1.0,0.0,0.0,0.0,1.0,0.0,0.0,0.0,1.0,0.01916015625,-0.0383203125,10.0171691895,0.1,0.0,0.0,0.0,0.1,0.0,0.0,0.0,0.1
1446036920637035582,96,1446036920633989095,robocape,-0.559001743295,4.10812776957,-22.5462499488,0.0,10.0,0.0,0.0,0.0,10.0,0.0,0.0,0.0,10.0,0.0430100516048,0.016911072922,0.0287621397729,1.0,0.0,0.0,0.0,1.0,0.0,0.0,0.0,1.0,0.0598754882813,-0.28740234375,10.0171691895,0.1,0.0,0.0,0.0,0.1,0.0,0.0,0.0,0.1
1446036920671249457,97,1446036920667989969,robocape,-0.463937758502,4.13120020545,-22.4632142999,0.0,10.0,0.0,0.0,0.0,10.0,0.0,0.0,0.0,10.0,0.0470047932399,0.0159789665405,0.0205063403936,1.0,0.0,0.0,0.0,1.0,0.0,0.0,0.0,1.0,0.0323327636719,-0.0263452148438,10.0339343262,0.1,0.0,0.0,0.0,0.1,0.0,0.0,0.0,0.1
1446036920703362498,98,1446036920700345039,robocape,-0.378788580217,4.15331515242,-22.3852730155,0.0,10.0,0.0,0.0,0.0,10.0,0.0,0.0,0.0,10.0,0.0420779452233,0.015579492377,0.0178431793035,1.0,0.0,0.0,0.0,1.0,0.0,0.0,0.0,1.0,-0.00239501953125,-0.0622705078125,10.0135766602,0.1,0.0,0.0,0.0,0.1,0.0,0.0,0.0,0.1
1446036920736723123,99,1446036920733434915,robocape,-0.295591691206,4.17326569382,-22.3285822611,0.0,10.0,0.0,0.0,0.0,10.0,0.0,0.0,0.0,10.0,0.0419447871687,0.0146473859954,0.00639158661619,1.0,0.0,0.0,0.0,1.0,0.0,0.0,0.0,1.0,0.0215551757813,-0.0718505859375,10.0207617188,0.1,0.0,0.0,0.0,0.1,0.0,0.0,0.0,0.1
1446036920770177957,100,1446036920766887903,robocape,-0.204463694664,4.19300463591,-22.2827872421,0.0,10.0,0.0,0.0,0.0,10.0,0.0,0.0,0.0,10.0,0.0466053190764,0.0146473859954,0.000532632218016,1.0,0.0,0.0,0.0,1.0,0.0,0.0,0.0,1.0,0.01916015625,0.122145996094,10.0351318359,0.1,0.0,0.0,0.0,0.1,0.0,0.0,0.0,0.1
1446036920803007457,101,1446036920799717903,robocape,-0.182273893398,4.20909675599,-22.2197794963,0.0,10.0,0.0,0.0,0.0,10.0,0.0,0.0,0.0,10.0,0.00985369603329,0.0126500151779,0.0099868540878,1.0,0.0,0.0,0.0,1.0,0.0,0.0,0.0,1.0,-0.0107775878906,-0.0514929199219,10.0147741699,0.1,0.0,0.0,0.0,0.1,0.0,0.0,0.0,0.1
1446036920835864707,102,1446036920832421064,robocape,-0.173742221616,4.22235242129,-22.1591874819,0.0,10.0,0.0,0.0,0.0,10.0,0.0,0.0,0.0,10.0,0.00279631914458,0.0111852765783,0.00878843159726,1.0,0.0,0.0,0.0,1.0,0.0,0.0,0.0,1.0,-0.0359252929688,0.00239501953125,10.0171691895,0.1,0.0,0.0,0.0,0.1,0.0,0.0,0.0,0.1
1446036920869219748,103,1446036920866203069,robocape,-0.164802635913,4.23721184005,-22.1134773977,0.0,10.0,0.0,0.0,0.0,10.0,0.0,0.0,0.0,10.0,0.00359526747161,0.0121173829599,0.000798948327024,1.0,0.0,0.0,0.0,1.0,0.0,0.0,0.0,1.0,-0.00718505859375,0.146096191406,10.0459094238,0.1,0.0,0.0,0.0,0.1,0.0,0.0,0.0,0.1
1446036920902169540,104,1446036920899096965,robocape,-0.185550078424,4.2476112943,-22.0574164796,0.0,10.0,0.0,0.0,0.0,10.0,0.0,0.0,0.0,10.0,-0.0123836990689,0.00972053797879,0.00652474467069,1.0,0.0,0.0,0.0,1.0,0.0,0.0,0.0,1.0,0.0371228027344,-0.112565917969,9.98363891602,0.1,0.0,0.0,0.0,0.1,0.0,0.0,0.0,0.1
1446036920935611290,105,1446036920932249069,robocape,-0.117870166117,4.25389630385,-22.0781901523,0.0,10.0,0.0,0.0,0.0,10.0,0.0,0.0,0.0,10.0,0.0370179391521,0.00798948327024,-0.035153726389,1.0,0.0,0.0,0.0,1.0,0.0,0.0,0.0,1.0,0.086220703125,-0.519719238281,9.96328125,0.1,0.0,0.0,0.0,0.1,0.0,0.0,0.0,0.1
1446036920968857290,106,1446036920965812921,robocape,0.127942495735,4.27182797356,-22.314201423,0.0,10.0,0.0,0.0,0.0,10.0,0.0,0.0,0.0,10.0,0.139150166957,0.0149137021044,-0.152332814353,1.0,0.0,0.0,0.0,1.0,0.0,0.0,0.0,1.0,0.0490979003906,0.534089355469,10.055489502,0.1,0.0,0.0,0.0,0.1,0.0,0.0,0.0,0.1
1446036921002144915,107,1446036920999114990,robocape,0.0282979284135,4.25784567508,-22.313614678,0.0,10.0,0.0,0.0,0.0,10.0,0.0,0.0,0.0,10.0,-0.051265850984,-0.00279631914458,-0.0238352917562,1.0,0.0,0.0,0.0,1.0,0.0,0.0,0.0,1.0,-0.2682421875,1.00231567383,10.1381176758,0.1,0.0,0.0,0.0,0.1,0.0,0.0,0.0,0.1
1446036921035370165,108,1446036921032272100,robocape,-0.313562850459,4.24216015863,-22.2596859367,0.0,10.0,0.0,0.0,0.0,10.0,0.0,0.0,0.0,10.0,-0.180562321907,-0.00399474163512,0.00532632218016,1.0,0.0,0.0,0.0,1.0,0.0,0.0,0.0,1.0,-0.147293701172,0.0598754882813,10.0255517578,0.1,0.0,0.0,0.0,0.1,0.0,0.0,0.0,0.1
1446036921068920123,109,1446036921065901041,robocape,-0.658496882207,4.22544110998,-22.1875448926,0.0,10.0,0.0,0.0,0.0,10.0,0.0,0.0,0.0,10.0,-0.183225482997,-0.00479368996214,0.0151800182135,1.0,0.0,0.0,0.0,1.0,0.0,0.0,0.0,1.0,0.0107775878906,-0.335302734375,9.95489868164,0.1,0.0,0.0,0.0,0.1,0.0,0.0,0.0,0.1
1446036921103064707,110,1446036921099972009,robocape,-0.888457140083,4.21775115328,-22.131332002,0.0,10.0,0.0,0.0,0.0,10.0,0.0,0.0,0.0,10.0,-0.122638568198,0.0,0.00652474467069,1.0,0.0,0.0,0.0,1.0,0.0,0.0,0.0,1.0,0.387993164063,-0.486188964844,10.0123791504,0.1,0.0,0.0,0.0,0.1,0.0,0.0,0.0,0.1
1446036921135237790,111,1446036921132203102,robocape,-1.06447787533,4.22537886265,-22.0032564378,0.0,10.0,0.0,0.0,0.0,10.0,0.0,0.0,0.0,10.0,-0.0973385378424,0.00705737688871,0.0456732126949,1.0,0.0,0.0,0.0,1.0,0.0,0.0,0.0,1.0,0.165256347656,-0.827479248047,10.0506994629,0.1,0.0,0.0,0.0,0.1,0.0,0.0,0.0,0.1
1446036921169303165,112,1446036921166193962,robocape,-1.04185333783,4.24069752646,-21.9161567286,0.0,10.0,0.0,0.0,0.0,10.0,0.0,0.0,0.0,10.0,0.00825579937925,0.0115847507418,0.0237021337017,1.0,0.0,0.0,0.0,1.0,0.0,0.0,0.0,1.0,0.0586779785156,-1.57592285156,9.97525634766,0.1,0.0,0.0,0.0,0.1,0.0,0.0,0.0,0.1
1446036921202186290,113,1446036921199090957,robocape,-0.703047408934,4.28292493268,-21.8610052199,0.0,10.0,0.0,0.0,0.0,10.0,0.0,0.0,0.0,10.0,0.175369157782,0.0262321367373,0.0066579027252,1.0,0.0,0.0,0.0,1.0,0.0,0.0,0.0,1.0,0.105380859375,-0.437091064453,10.0303417969,0.1,0.0,0.0,0.0,0.1,0.0,0.0,0.0,0.1
1446036921235562957,114,1446036921232307910,robocape,-0.268398377886,4.34121831186,-21.8722678686,0.0,10.0,0.0,0.0,0.0,10.0,0.0,0.0,0.0,10.0,0.228632379583,0.0354200424981,-0.0295610880999,1.0,0.0,0.0,0.0,1.0,0.0,0.0,0.0,1.0,0.164058837891,-0.0910107421875,9.886640625,0.1,0.0,0.0,0.0,0.1,0.0,0.0,0.0,0.1
1446036921268864082,115,1446036921265743017,robocape,-0.0252759952668,4.36861041389,-21.7883792144,0.0,10.0,0.0,0.0,0.0,10.0,0.0,0.0,0.0,10.0,0.12476909707,0.0186421276306,0.0218379209386,1.0,0.0,0.0,0.0,1.0,0.0,0.0,0.0,1.0,0.0371228027344,0.258662109375,9.90939331055,0.1,0.0,0.0,0.0,0.1,0.0,0.0,0.0,0.1
1446036921302189582,116,1446036921299101114,robocape,0.105934291925,4.38870566975,-21.7410584392,0.0,10.0,0.0,0.0,0.0,10.0,0.0,0.0,0.0,10.0,0.0677774497425,0.0150468601589,0.00213052887206,1.0,0.0,0.0,0.0,1.0,0.0,0.0,0.0,1.0,-0.0658630371094,0.758023681641,10.0566870117,0.1,0.0,0.0,0.0,0.1,0.0,0.0,0.0,0.1
1446036921335498499,117,1446036921332293033,robocape,0.0730352710341,4.40197030848,-21.6958477391,0.0,10.0,0.0,0.0,0.0,10.0,0.0,0.0,0.0,10.0,-0.0181094954125,0.0114515926873,0.00119842249054,1.0,0.0,0.0,0.0,1.0,0.0,0.0,0.0,1.0,-0.259859619141,0.55564453125,10.0734521484,0.1,0.0,0.0,0.0,0.1,0.0,0.0,0.0,0.1
1446036921372695165,118,1446036921365639925,robocape,-0.0598368369657,4.40718814116,-21.6512466188,0.0,10.0,0.0,0.0,0.0,10.0,0.0,0.0,0.0,10.0,-0.0705737688871,0.00719053494321,0.00106526443603,1.0,0.0,0.0,0.0,1.0,0.0,0.0,0.0,1.0,-0.110170898438,0.0706530761719,9.95609619141,0.1,0.0,0.0,0.0,0.1,0.0,0.0,0.0,0.1
1446036921402687749,119,1446036921399661064,robocape,-0.155503354125,4.40922194187,-21.6796793455,0.0,10.0,0.0,0.0,0.0,10.0,0.0,0.0,0.0,10.0,-0.0482032157304,0.00585895439817,-0.0384826777516,1.0,0.0,0.0,0.0,1.0,0.0,0.0,0.0,1.0,0.15328125,-0.142503662109,9.96088623047,0.1,0.0,0.0,0.0,0.1,0.0,0.0,0.0,0.1
1446036921435672624,120,1446036921432496070,robocape,-0.364800282017,4.40294749442,-21.6313137169,0.0,10.0,0.0,0.0,0.0,10.0,0.0,0.0,0.0,10.0,-0.111053817456,0.00106526443603,0.0031957933081,1.0,0.0,0.0,0.0,1.0,0.0,0.0,0.0,1.0,0.0,0.178428955078,10.0818347168,0.1,0.0,0.0,0.0,0.1,0.0,0.0,0.0,0.1
1446036921468796624,121,1446036921465759038,robocape,-0.619732792976,4.40848674632,-21.5184679623,0.0,10.0,0.0,0.0,0.0,10.0,0.0,0.0,0.0,10.0,-0.137818586412,0.0066579027252,0.0382163616426,1.0,0.0,0.0,0.0,1.0,0.0,0.0,0.0,1.0,0.0514929199219,-0.09580078125,10.0578845215,0.1,0.0,0.0,0.0,0.1,0.0,0.0,0.0,0.1
1446036921502224082,122,1446036921499195098,robocape,-0.86694546785,4.40781361116,-21.2947206193,0.0,10.0,0.0,0.0,0.0,10.0,0.0,0.0,0.0,10.0,-0.138484376684,0.00199737081756,0.0984038022784,1.0,0.0,0.0,0.0,1.0,0.0,0.0,0.0,1.0,0.243094482422,-1.11368408203,9.97046630859,0.1,0.0,0.0,0.0,0.1,0.0,0.0,0.0,0.1
1446036921535659999,123,1446036921532377958,robocape,-0.779662672815,4.43538822338,-21.1710451824,0.0,10.0,0.0,0.0,0.0,10.0,0.0,0.0,0.0,10.0,0.0407463646782,0.0178431793035,0.0446079482588,1.0,0.0,0.0,0.0,1.0,0.0,0.0,0.0,1.0,0.119750976563,-1.26576782227,10.0123791504,0.1,0.0,0.0,0.0,0.1,0.0,0.0,0.0,0.1
1446036921568811915,124,1446036921565658092,robocape,-0.407538771133,4.48258918361,-21.1270958567,0.0,10.0,0.0,0.0,0.0,10.0,0.0,0.0,0.0,10.0,0.193478653194,0.0291616139364,0.00159789665405,1.0,0.0,0.0,0.0,1.0,0.0,0.0,0.0,1.0,0.0790356445313,-0.692160644531,9.98842895508,0.1,0.0,0.0,0.0,0.1,0.0,0.0,0.0,0.1
1446036921602603499,125,1446036921599198102,robocape,0.0975117741134,4.53117138556,-21.1861316256,0.0,10.0,0.0,0.0,0.0,10.0,0.0,0.0,0.0,10.0,0.267914005662,0.0306263525359,-0.0544616442921,1.0,0.0,0.0,0.0,1.0,0.0,0.0,0.0,1.0,0.113763427734,-0.458646240234,9.96328125,0.1,0.0,0.0,0.0,0.1,0.0,0.0,0.0,0.1
1446036921635786415,126,1446036921632205009,robocape,0.616393061874,4.57174591717,-21.3658473778,0.0,10.0,0.0,0.0,0.0,10.0,0.0,0.0,0.0,10.0,0.280963495003,0.0262321367373,-0.120374881272,1.0,0.0,0.0,0.0,1.0,0.0,0.0,0.0,1.0,0.0514929199219,1.24062011719,9.96088623047,0.1,0.0,0.0,0.0,0.1,0.0,0.0,0.0,0.1
1446036921669135374,127,1446036921665668010,robocape,0.633089627094,4.57873411155,-21.3458986663,0.0,10.0,0.0,0.0,0.0,10.0,0.0,0.0,0.0,10.0,0.00945422186978,0.00838895743375,-0.0119842249054,1.0,0.0,0.0,0.0,1.0,0.0,0.0,0.0,1.0,-0.0754431152344,1.25379272461,10.0063916016,0.1,0.0,0.0,0.0,0.1,0.0,0.0,0.0,0.1
1446036921702436624,128,1446036921699182987,robocape,0.393524469791,4.56733625298,-21.2939815739,0.0,10.0,0.0,0.0,0.0,10.0,0.0,0.0,0.0,10.0,-0.126366993724,-0.00133158054504,0.00585895439817,1.0,0.0,0.0,0.0,1.0,0.0,0.0,0.0,1.0,-0.409548339844,0.646655273438,10.0411193848,0.1,0.0,0.0,0.0,0.1,0.0,0.0,0.0,0.1
1446036921735731957,129,1446036921732310056,robocape,0.0180379973495,4.54940813977,-21.2303975126,0.0,10.0,0.0,0.0,0.0,10.0,0.0,0.0,0.0,10.0,-0.198405501211,-0.00492684801665,0.0123836990689,1.0,0.0,0.0,0.0,1.0,0.0,0.0,0.0,1.0,-0.0455053710938,0.214354248047,10.0423168945,0.1,0.0,0.0,0.0,0.1,0.0,0.0,0.0,0.1
1446036921769047582,130,1446036921765839099,robocape,-0.457270932242,4.52605433249,-21.1188794905,0.0,10.0,0.0,0.0,0.0,10.0,0.0,0.0,0.0,10.0,-0.253133461612,-0.00825579937925,0.0383495196971,1.0,0.0,0.0,0.0,1.0,0.0,0.0,0.0,1.0,0.0179626464844,-0.382005615234,10.0542919922,0.1,0.0,0.0,0.0,0.1,0.0,0.0,0.0,0.1
1446036921802078624,131,1446036921798906087,robocape,-0.786878150656,4.51691754861,-21.0662248078,0.0,10.0,0.0,0.0,0.0,10.0,0.0,0.0,0.0,10.0,-0.174703367509,-0.000532632218016,0.00639158661619,1.0,0.0,0.0,0.0,1.0,0.0,0.0,0.0,1.0,0.380808105469,-0.526904296875,9.97525634766,0.1,0.0,0.0,0.0,0.1,0.0,0.0,0.0,0.1
1446036921835494040,132,1446036921832158088,robocape,-0.925664502602,4.51726788953,-21.0126157409,0.0,10.0,0.0,0.0,0.0,10.0,0.0,0.0,0.0,10.0,-0.0749679846857,0.00439421579863,0.00692421883421,1.0,0.0,0.0,0.0,1.0,0.0,0.0,0.0,1.0,0.0682580566406,-1.12326416016,9.94891113281,0.1,0.0,0.0,0.0,0.1,0.0,0.0,0.0,0.1
1446036921869165249,133,1446036921866156101,robocape,-0.874388052171,4.5394586336,-20.9246346399,0.0,10.0,0.0,0.0,0.0,10.0,0.0,0.0,0.0,10.0,0.0231695014837,0.0154463343225,0.0256995045193,1.0,0.0,0.0,0.0,1.0,0.0,0.0,0.0,1.0,0.0419128417969,-0.959205322266,9.98124389648,0.1,0.0,0.0,0.0,0.1,0.0,0.0,0.0,0.1
1446036921902416874,134,1446036921899153947,robocape,-0.594330337657,4.58065833386,-20.8987622101,0.0,10.0,0.0,0.0,0.0,10.0,0.0,0.0,0.0,10.0,0.145808069682,0.0262321367373,-0.00772316716123,1.0,0.0,0.0,0.0,1.0,0.0,0.0,0.0,1.0,0.213156738281,-0.566422119141,9.99561401367,0.1,0.0,0.0,0.0,0.1,0.0,0.0,0.0,0.1
1446036921935566582,135,1446036921932231903,robocape,-0.31018433021,4.62650282279,-20.8095562023,0.0,10.0,0.0,0.0,0.0,10.0,0.0,0.0,0.0,10.0,0.145541753573,0.0282295075548,0.0263652947918,1.0,0.0,0.0,0.0,1.0,0.0,0.0,0.0,1.0,0.0299377441406,0.028740234375,10.0255517578,0.1,0.0,0.0,0.0,0.1,0.0,0.0,0.0,0.1
1446036921969938832,136,1446036921966814994,robocape,-0.183665908024,4.66345664587,-20.5691070247,0.0,10.0,0.0,0.0,0.0,10.0,0.0,0.0,0.0,10.0,0.0565921731642,0.0227700273202,0.108124340257,1.0,0.0,0.0,0.0,1.0,0.0,0.0,0.0,1.0,-0.0443078613281,-0.180823974609,10.0207617188,0.1,0.0,0.0,0.0,0.1,0.0,0.0,0.0,0.1
1446036922003675374,137,1446036922000360965,robocape,0.163665610552,4.7110066139,-20.5639870124,0.0,10.0,0.0,0.0,0.0,10.0,0.0,0.0,0.0,10.0,0.182692850779,0.0298274042089,-0.0189084437396,1.0,0.0,0.0,0.0,1.0,0.0,0.0,0.0,1.0,0.00838256835938,-0.0634680175781,9.98124389648,0.1,0.0,0.0,0.0,0.1,0.0,0.0,0.0,0.1
1446036922037593999,138,1446036922033807992,robocape,0.324116720835,4.73428868885,-20.4702318899,0.0,10.0,0.0,0.0,0.0,10.0,0.0,0.0,0.0,10.0,0.0810932551929,0.016911072922,0.0290284558819,1.0,0.0,0.0,0.0,1.0,0.0,0.0,0.0,1.0,0.0634680175781,0.468226318359,10.1045874023,0.1,0.0,0.0,0.0,0.1,0.0,0.0,0.0,0.1
1446036922070780166,139,1446036922067178010,robocape,0.388523908471,4.7495207912,-20.4346229985,0.0,10.0,0.0,0.0,0.0,10.0,0.0,0.0,0.0,10.0,0.0334226716805,0.0127831732324,-0.00213052887206,1.0,0.0,0.0,0.0,1.0,0.0,0.0,0.0,1.0,-0.0167651367188,0.473016357422,10.0447119141,0.1,0.0,0.0,0.0,0.1,0.0,0.0,0.0,0.1
1446036922102722082,140,1446036922099596977,robocape,0.288117472387,4.75295269386,-20.380824455,0.0,10.0,0.0,0.0,0.0,10.0,0.0,0.0,0.0,10.0,-0.0537958540196,0.00652474467069,0.00798948327024,1.0,0.0,0.0,0.0,1.0,0.0,0.0,0.0,1.0,-0.138911132813,0.356857910156,10.0638720703,0.1,0.0,0.0,0.0,0.1,0.0,0.0,0.0,0.1
1446036922137408457,141,1446036922133857011,robocape,0.0559830502035,4.75252356836,-20.2660151576,0.0,10.0,0.0,0.0,0.0,10.0,0.0,0.0,0.0,10.0,-0.125701203452,0.00426105774413,0.0411458388417,1.0,0.0,0.0,0.0,1.0,0.0,0.0,0.0,1.0,-0.178428955078,0.0251477050781,10.0650695801,0.1,0.0,0.0,0.0,0.1,0.0,0.0,0.0,0.1
1446036922171410166,142,1446036922168292999,robocape,-0.141959500106,4.75269477742,-20.1207888637,0.0,10.0,0.0,0.0,0.0,10.0,0.0,0.0,0.0,10.0,-0.109322762748,0.00426105774413,0.0576574376002,1.0,0.0,0.0,0.0,1.0,0.0,0.0,0.0,1.0,0.0490979003906,-0.587977294922,9.99321899414,0.1,0.0,0.0,0.0,0.1,0.0,0.0,0.0,0.1
1446036922203094124,143,1446036922199697017,robocape,-0.208662937999,4.75919336086,-20.0737761474,0.0,10.0,0.0,0.0,0.0,10.0,0.0,0.0,0.0,10.0,-0.0363521488796,0.00798948327024,0.00479368996214,1.0,0.0,0.0,0.0,1.0,0.0,0.0,0.0,1.0,0.100590820313,-0.382005615234,9.97765136719,0.1,0.0,0.0,0.0,0.1,0.0,0.0,0.0,0.1
1446036922239923457,144,1446036922236258029,robocape,-0.207705479153,4.7736021392,-20.0206316823,0.0,10.0,0.0,0.0,0.0,10.0,0.0,0.0,0.0,10.0,-0.00119842249054,0.0121173829599,0.00812264132474,1.0,0.0,0.0,0.0,1.0,0.0,0.0,0.0,1.0,0.243094482422,-0.403560791016,10.0016015625,0.1,0.0,0.0,0.0,0.1,0.0,0.0,0.0,0.1
1446036922273134374,145,1446036922269993066,robocape,-0.20429004612,4.79200412119,-19.9023912067,0.0,10.0,0.0,0.0,0.0,10.0,0.0,0.0,0.0,10.0,-0.00279631914458,0.0138484376684,0.0432763677138,1.0,0.0,0.0,0.0,1.0,0.0,0.0,0.0,1.0,0.00239501953125,-0.244291992188,10.039921875,0.1,0.0,0.0,0.0,0.1,0.0,0.0,0.0,0.1
1446036922303643832,146,1446036922300522089,robocape,-0.267116302672,4.81309728615,-19.6223237967,0.0,10.0,0.0,0.0,0.0,10.0,0.0,0.0,0.0,10.0,-0.0447411063133,0.0142479118319,0.130628051468,1.0,0.0,0.0,0.0,1.0,0.0,0.0,0.0,1.0,-0.0371228027344,-0.449066162109,10.024354248,0.1,0.0,0.0,0.0,0.1,0.0,0.0,0.0,0.1
1446036922338571666,147,1446036922333247900,robocape,-0.222217302297,4.84284724178,-19.230811656,0.0,10.0,0.0,0.0,0.0,10.0,0.0,0.0,0.0,10.0,0.0066579027252,0.0181094954125,0.190815492104,1.0,0.0,0.0,0.0,1.0,0.0,0.0,0.0,1.0,0.086220703125,-1.03345092773,9.96208374023,0.1,0.0,0.0,0.0,0.1,0.0,0.0,0.0,0.1
1446036922378665832,148,1446036922371289968,robocape,0.0642417559779,4.88565187196,-18.9238553129,0.0,10.0,0.0,0.0,0.0,10.0,0.0,0.0,0.0,10.0,0.137019638085,0.0259658206283,0.145541753573,1.0,0.0,0.0,0.0,1.0,0.0,0.0,0.0,1.0,0.147293701172,-1.04183349609,9.97286132813,0.1,0.0,0.0,0.0,0.1,0.0,0.0,0.0,0.1
1446036922405463416,149,1446036922402331113,robocape,0.582988687874,4.93290648026,-18.7372302188,0.0,10.0,0.0,0.0,0.0,10.0,0.0,0.0,0.0,10.0,0.264451896245,0.0295610880999,0.0808269390839,1.0,0.0,0.0,0.0,1.0,0.0,0.0,0.0,1.0,0.0826281738281,-0.331710205078,10.0315393066,0.1,0.0,0.0,0.0,0.1,0.0,0.0,0.0,0.1
1446036922437614499,150,1446036922434221982,robocape,1.08599558726,4.9761194847,-18.5708535037,0.0,10.0,0.0,0.0,0.0,10.0,0.0,0.0,0.0,10.0,0.257527677411,0.0282295075548,0.0697748205601,1.0,0.0,0.0,0.0,1.0,0.0,0.0,0.0,1.0,0.110170898438,0.338895263672,10.0375268555,0.1,0.0,0.0,0.0,0.1,0.0,0.0,0.0,0.1
1446036922471728082,151,1446036922468605995,robocape,1.49136199987,5.00838121992,-18.4654645578,0.0,10.0,0.0,0.0,0.0,10.0,0.0,0.0,0.0,10.0,0.209590777789,0.0226368692657,0.0371510972066,1.0,0.0,0.0,0.0,1.0,0.0,0.0,0.0,1.0,0.105380859375,0.397573242188,10.0123791504,0.1,0.0,0.0,0.0,0.1,0.0,0.0,0.0,0.1
1446036922506152624,152,1446036922502273082,robocape,1.72412283213,5.02718661283,-18.4033239083,0.0,10.0,0.0,0.0,0.0,10.0,0.0,0.0,0.0,10.0,0.121440145708,0.015313176268,0.0143810698864,1.0,0.0,0.0,0.0,1.0,0.0,0.0,0.0,1.0,-0.444276123047,1.18313964844,10.0495019531,0.1,0.0,0.0,0.0,0.1,0.0,0.0,0.0,0.1
1446036922539673707,153,1446036922536256074,robocape,1.71735754464,5.04410894247,-18.3423401778,0.0,10.0,0.0,0.0,0.0,10.0,0.0,0.0,0.0,10.0,-0.00399474163512,0.0142479118319,0.0142479118319,1.0,0.0,0.0,0.0,1.0,0.0,0.0,0.0,1.0,-0.0646655273438,0.892144775391,10.1333276367,0.1,0.0,0.0,0.0,0.1,0.0,0.0,0.0,0.1
1446036922573956166,154,1446036922570677042,robocape,1.51367089683,5.04616491518,-18.2847387634,0.0,10.0,0.0,0.0,0.0,10.0,0.0,0.0,0.0,10.0,-0.107192233876,0.00625842856169,0.0131826473959,1.0,0.0,0.0,0.0,1.0,0.0,0.0,0.0,1.0,0.0395178222656,0.720900878906,10.0255517578,0.1,0.0,0.0,0.0,0.1,0.0,0.0,0.0,0.1
1446036922606794124,155,1446036922603511095,robocape,1.18841049946,5.0447964691,-18.2312513827,0.0,10.0,0.0,0.0,0.0,10.0,0.0,0.0,0.0,10.0,-0.170974941983,0.00426105774413,0.0113184346328,1.0,0.0,0.0,0.0,1.0,0.0,0.0,0.0,1.0,-0.167651367188,0.251477050781,9.97884887695,0.1,0.0,0.0,0.0,0.1,0.0,0.0,0.0,0.1
1446036922639035457,156,1446036922635359048,robocape,0.86574224246,5.0409607617,-18.1664332588,0.0,10.0,0.0,0.0,0.0,10.0,0.0,0.0,0.0,10.0,-0.170442309765,0.00292947719909,0.01744370514,1.0,0.0,0.0,0.0,1.0,0.0,0.0,0.0,1.0,-0.0167651367188,-0.235909423828,9.9980090332,0.1,0.0,0.0,0.0,0.1,0.0,0.0,0.0,0.1
1446036922673264666,157,1446036922670078039,robocape,0.627725058483,5.04012114121,-18.1091218247,0.0,10.0,0.0,0.0,0.0,10.0,0.0,0.0,0.0,10.0,-0.125967519561,0.00439421579863,0.0133158054504,1.0,0.0,0.0,0.0,1.0,0.0,0.0,0.0,1.0,0.110170898438,-0.603544921875,9.99082397461,0.1,0.0,0.0,0.0,0.1,0.0,0.0,0.0,0.1
1446036922706025957,158,1446036922702863931,robocape,0.534728358794,5.0474374984,-18.0611828944,0.0,10.0,0.0,0.0,0.0,10.0,0.0,0.0,0.0,10.0,-0.04966795433,0.00865527354276,0.00812264132474,1.0,0.0,0.0,0.0,1.0,0.0,0.0,0.0,1.0,0.0874182128906,-0.742456054688,10.0123791504,0.1,0.0,0.0,0.0,0.1,0.0,0.0,0.0,0.1
1446036922738406958,159,1446036922735016107,robocape,0.719748123533,5.06478496175,-18.2308488158,0.0,10.0,0.0,0.0,0.0,10.0,0.0,0.0,0.0,10.0,0.106393285549,0.0135821215594,-0.10879013053,1.0,0.0,0.0,0.0,1.0,0.0,0.0,0.0,1.0,0.132923583984,-1.48610961914,10.0075891113,0.1,0.0,0.0,0.0,0.1,0.0,0.0,0.0,0.1
1446036922771628874,160,1446036922768142938,robocape,1.23435143052,5.09768530182,-18.5084602681,0.0,10.0,0.0,0.0,0.0,10.0,0.0,0.0,0.0,10.0,0.284825078584,0.0207726565026,-0.16764599062,1.0,0.0,0.0,0.0,1.0,0.0,0.0,0.0,1.0,0.0898132324219,0.930465087891,10.0518969727,0.1,0.0,0.0,0.0,0.1,0.0,0.0,0.0,0.1
1446036922806001333,161,1446036922802879095,robocape,1.15126096217,5.09987770638,-18.4761153392,0.0,10.0,0.0,0.0,0.0,10.0,0.0,0.0,0.0,10.0,-0.0431432096593,0.00612527050718,-0.000798948327024,1.0,0.0,0.0,0.0,1.0,0.0,0.0,0.0,1.0,-0.0826281738281,0.936452636719,10.0770446777,0.1,0.0,0.0,0.0,0.1,0.0,0.0,0.0,0.1
1446036922838822291,162,1446036922835349082,robocape,1.00518705228,5.10747330032,-18.4431558521,0.0,10.0,0.0,0.0,0.0,10.0,0.0,0.0,0.0,10.0,-0.0762995652308,0.00892158965177,-0.000399474163512,1.0,0.0,0.0,0.0,1.0,0.0,0.0,0.0,1.0,-0.411943359375,0.317340087891,10.0614770508,0.1,0.0,0.0,0.0,0.1,0.0,0.0,0.0,0.1
1446036922871866291,163,1446036922868120908,robocape,0.936896260246,5.11229945321,-18.5198959783,0.0,10.0,0.0,0.0,0.0,10.0,0.0,0.0,0.0,10.0,-0.0303600364269,0.00692421883421,-0.0592553342543,1.0,0.0,0.0,0.0,1.0,0.0,0.0,0.0,1.0,0.0347277832031,-0.416733398438,9.94052856445,0.1,0.0,0.0,0.0,0.1,0.0,0.0,0.0,0.1
1446036922904914624,164,1446036922901825904,robocape,1.01286577101,5.12003460841,-18.8036509941,0.0,10.0,0.0,0.0,0.0,10.0,0.0,0.0,0.0,10.0,0.0552605926191,0.00745685105222,-0.170708625874,1.0,0.0,0.0,0.0,1.0,0.0,0.0,0.0,1.0,0.211959228516,0.729283447266,9.99920654297,0.1,0.0,0.0,0.0,0.1,0.0,0.0,0.0,0.1
1446036922937041249,165,1446036922933890104,robocape,0.814176446032,5.108546407,-19.0260562007,0.0,10.0,0.0,0.0,0.0,10.0,0.0,0.0,0.0,10.0,-0.0917458995532,-0.00226368692657,-0.137685428357,1.0,0.0,0.0,0.0,1.0,0.0,0.0,0.0,1.0,0.0359252929688,0.918489990234,9.99321899414,0.1,0.0,0.0,0.0,0.1,0.0,0.0,0.0,0.1
1446036922971714499,166,1446036922968436002,robocape,0.246872017037,5.07700691674,-19.0230778301,0.0,10.0,0.0,0.0,0.0,10.0,0.0,0.0,0.0,10.0,-0.296143513217,-0.0118510668509,-0.016378440704,1.0,0.0,0.0,0.0,1.0,0.0,0.0,0.0,1.0,-0.451461181641,0.395178222656,10.075847168,0.1,0.0,0.0,0.0,0.1,0.0,0.0,0.0,0.1
1446036923004180041,167,1446036923001137018,robocape,-0.265251791946,5.04722238487,-18.9933176509,0.0,10.0,0.0,0.0,0.0,10.0,0.0,0.0,0.0,10.0,-0.268979270098,-0.0109189604693,-0.00239684498107,1.0,0.0,0.0,0.0,1.0,0.0,0.0,0.0,1.0,-0.0047900390625,-0.926872558594,10.0770446777,0.1,0.0,0.0,0.0,0.1,0.0,0.0,0.0,0.1
1446036923036435999,168,1446036923033343076,robocape,-0.642668929722,5.02622037526,-18.9201047946,0.0,10.0,0.0,0.0,0.0,10.0,0.0,0.0,0.0,10.0,-0.200802346192,-0.0066579027252,0.0206394984481,1.0,0.0,0.0,0.0,1.0,0.0,0.0,0.0,1.0,0.565224609375,-0.731678466797,9.9213684082,0.1,0.0,0.0,0.0,0.1,0.0,0.0,0.0,0.1
1446036923070195166,169,1446036923067137956,robocape,-0.721665106222,5.03931351789,-18.9396451358,0.0,10.0,0.0,0.0,0.0,10.0,0.0,0.0,0.0,10.0,-0.0403468905147,0.0121173829599,-0.0291616139364,1.0,0.0,0.0,0.0,1.0,0.0,0.0,0.0,1.0,0.374820556641,-0.973575439453,10.0734521484,0.1,0.0,0.0,0.0,0.1,0.0,0.0,0.0,0.1
1446036923103055416,170,1446036923099942922,robocape,-0.681664115364,5.05664361197,-18.8433289869,0.0,10.0,0.0,0.0,0.0,10.0,0.0,0.0,0.0,10.0,0.016644756813,0.0131826473959,0.033023197517,1.0,0.0,0.0,0.0,1.0,0.0,0.0,0.0,1.0,-0.0335302734375,-1.10649902344,9.96926879883,0.1,0.0,0.0,0.0,0.1,0.0,0.0,0.0,0.1
1446036923136027624,171,1446036923132926940,robocape,-0.457677620732,5.0842120264,-18.7132034979,0.0,10.0,0.0,0.0,0.0,10.0,0.0,0.0,0.0,10.0,0.111586449674,0.0183758115215,0.051265850984,1.0,0.0,0.0,0.0,1.0,0.0,0.0,0.0,1.0,0.298179931641,-1.26936035156,10.0063916016,0.1,0.0,0.0,0.0,0.1,0.0,0.0,0.0,0.1
1446036923169178541,172,1446036923166049957,robocape,-0.0132576755658,5.14439735847,-18.7196470944,0.0,10.0,0.0,0.0,0.0,10.0,0.0,0.0,0.0,10.0,0.233825543709,0.0367516230431,-0.0221042370477,1.0,0.0,0.0,0.0,1.0,0.0,0.0,0.0,1.0,0.0922082519531,-0.0706530761719,10.0698596191,0.1,0.0,0.0,0.0,0.1,0.0,0.0,0.0,0.1
1446036923202736874,173,1446036923199616909,robocape,0.322381220136,5.18297676513,-18.6378175664,0.0,10.0,0.0,0.0,0.0,10.0,0.0,0.0,0.0,10.0,0.172972312801,0.0251668723012,0.0250337142467,1.0,0.0,0.0,0.0,1.0,0.0,0.0,0.0,1.0,0.00239501953125,-0.215551757813,9.96567626953,0.1,0.0,0.0,0.0,0.1,0.0,0.0,0.0,0.1
1446036923235865958,174,1446036923232750892,robocape,0.610814860392,5.21128154461,-18.5991970731,0.0,10.0,0.0,0.0,0.0,10.0,0.0,0.0,0.0,10.0,0.150601759644,0.0199737081756,0.00186421276306,1.0,0.0,0.0,0.0,1.0,0.0,0.0,0.0,1.0,-0.0467028808594,0.577199707031,10.0183666992,0.1,0.0,0.0,0.0,0.1,0.0,0.0,0.0,0.1
1446036923269278583,175,1446036923266213893,robocape,0.727136082221,5.23263546204,-18.6016036186,0.0,10.0,0.0,0.0,0.0,10.0,0.0,0.0,0.0,10.0,0.0625842856169,0.0162452826495,-0.0199737081756,1.0,0.0,0.0,0.0,1.0,0.0,0.0,0.0,1.0,-0.0778381347656,1.00231567383,10.075847168,0.1,0.0,0.0,0.0,0.1,0.0,0.0,0.0,0.1
1446036923302611291,176,1446036923299031019,robocape,0.608581959977,5.23160190268,-18.5512862022,0.0,10.0,0.0,0.0,0.0,10.0,0.0,0.0,0.0,10.0,-0.0631169178349,0.00452737385313,0.00878843159726,1.0,0.0,0.0,0.0,1.0,0.0,0.0,0.0,1.0,-0.244291992188,0.183218994141,9.93813354492,0.1,0.0,0.0,0.0,0.1,0.0,0.0,0.0,0.1
1446036923335379499,177,1446036923332098007,robocape,0.358873640518,5.22290972563,-18.486091157,0.0,10.0,0.0,0.0,0.0,10.0,0.0,0.0,0.0,10.0,-0.13275858034,0.000399474163512,0.0170442309765,1.0,0.0,0.0,0.0,1.0,0.0,0.0,0.0,1.0,0.0143701171875,0.295784912109,10.0207617188,0.1,0.0,0.0,0.0,0.1,0.0,0.0,0.0,0.1
1446036923372945166,178,1446036923365639925,robocape,-0.0535697101147,5.20975067439,-18.3760825828,0.0,10.0,0.0,0.0,0.0,10.0,0.0,0.0,0.0,10.0,-0.220509738259,-0.00226368692657,0.0412789968962,1.0,0.0,0.0,0.0,1.0,0.0,0.0,0.0,1.0,0.0275427246094,-0.227526855469,10.0854272461,0.1,0.0,0.0,0.0,0.1,0.0,0.0,0.0,0.1
1446036923404039291,179,1446036923400346040,robocape,-0.306254795256,5.20610732048,-18.2477259734,0.0,10.0,0.0,0.0,0.0,10.0,0.0,0.0,0.0,10.0,-0.137951744466,0.00239684498107,0.050999534875,1.0,0.0,0.0,0.0,1.0,0.0,0.0,0.0,1.0,0.142503662109,-0.943637695313,9.96807128906,0.1,0.0,0.0,0.0,0.1,0.0,0.0,0.0,0.1
1446036923435484041,180,1446036923432467937,robocape,-0.323773731102,5.22197935742,-18.1733271342,0.0,10.0,0.0,0.0,0.0,10.0,0.0,0.0,0.0,10.0,-0.0122505410144,0.0129163312869,0.0221042370477,1.0,0.0,0.0,0.0,1.0,0.0,0.0,0.0,1.0,0.342487792969,-1.02746337891,9.95370117188,0.1,0.0,0.0,0.0,0.1,0.0,0.0,0.0,0.1
1446036923468994291,181,1446036923465972900,robocape,-0.120165937784,5.25100299174,-18.1297097145,0.0,10.0,0.0,0.0,0.0,10.0,0.0,0.0,0.0,10.0,0.105194863058,0.0201068662301,0.00559263828917,1.0,0.0,0.0,0.0,1.0,0.0,0.0,0.0,1.0,0.0239501953125,-0.902922363281,9.98962646484,0.1,0.0,0.0,0.0,0.1,0.0,0.0,0.0,0.1
1446036923502466125,182,1446036923499339103,robocape,0.240626443167,5.2839069965,-18.1116421106,0.0,10.0,0.0,0.0,0.0,10.0,0.0,0.0,0.0,10.0,0.189084437396,0.0223705531567,-0.00825579937925,1.0,0.0,0.0,0.0,1.0,0.0,0.0,0.0,1.0,0.0359252929688,-0.735270996094,10.0004040527,0.1,0.0,0.0,0.0,0.1,0.0,0.0,0.0,0.1
1446036923535320208,183,1446036923532310009,robocape,0.79781085593,5.33236094703,-18.2983646861,0.0,10.0,0.0,0.0,0.0,10.0,0.0,0.0,0.0,10.0,0.302668257888,0.0304931944814,-0.118510668509,1.0,0.0,0.0,0.0,1.0,0.0,0.0,0.0,1.0,0.0299377441406,0.244291992188,10.0219592285,0.1,0.0,0.0,0.0,0.1,0.0,0.0,0.0,0.1
1446036923569029916,184,1446036923565978050,robocape,1.09804718702,5.34786216661,-18.4621036354,0.0,10.0,0.0,0.0,0.0,10.0,0.0,0.0,0.0,10.0,0.167379674511,0.0125168571234,-0.106260127494,1.0,0.0,0.0,0.0,1.0,0.0,0.0,0.0,1.0,0.0251477050781,1.29690307617,9.99681152344,0.1,0.0,0.0,0.0,0.1,0.0,0.0,0.0,0.1
1446036923602290458,185,1446036923599245071,robocape,0.959961628659,5.33603747053,-18.4323113847,0.0,10.0,0.0,0.0,0.0,10.0,0.0,0.0,0.0,10.0,-0.0720385074866,-0.00106526443603,-0.00186421276306,1.0,0.0,0.0,0.0,1.0,0.0,0.0,0.0,1.0,-0.130528564453,1.08374633789,10.0291442871,0.1,0.0,0.0,0.0,0.1,0.0,0.0,0.0,0.1
1446036923635246166,186,1446036923632225036,robocape,0.625977971641,5.31812847226,-18.4421728296,0.0,10.0,0.0,0.0,0.0,10.0,0.0,0.0,0.0,10.0,-0.172972312801,-0.00452737385313,-0.0227700273202,1.0,0.0,0.0,0.0,1.0,0.0,0.0,0.0,1.0,-0.318537597656,0.238304443359,10.0183666992,0.1,0.0,0.0,0.0,0.1,0.0,0.0,0.0,0.1
1446036923669089083,187,1446036923665978908,robocape,0.201883127634,5.29225839097,-18.4180692355,0.0,10.0,0.0,0.0,0.0,10.0,0.0,0.0,0.0,10.0,-0.222240792967,-0.00865527354276,-0.00452737385313,1.0,0.0,0.0,0.0,1.0,0.0,0.0,0.0,1.0,-0.170046386719,-0.0886157226563,9.98004638672,0.1,0.0,0.0,0.0,0.1,0.0,0.0,0.0,0.1
1446036923702334750,188,1446036923699194908,robocape,-0.207481012909,5.26625394313,-18.3827084379,0.0,10.0,0.0,0.0,0.0,10.0,0.0,0.0,0.0,10.0,-0.215449732187,-0.00878843159726,0.00133158054504,1.0,0.0,0.0,0.0,1.0,0.0,0.0,0.0,1.0,0.403560791016,-0.358055419922,9.95370117188,0.1,0.0,0.0,0.0,0.1,0.0,0.0,0.0,0.1
1446036923735413291,189,1446036923732351064,robocape,-0.542356499866,5.251443149,-18.3318643581,0.0,10.0,0.0,0.0,0.0,10.0,0.0,0.0,0.0,10.0,-0.177499686654,-0.00306263525359,0.00945422186978,1.0,0.0,0.0,0.0,1.0,0.0,0.0,0.0,1.0,0.178428955078,-0.974772949219,10.0231567383,0.1,0.0,0.0,0.0,0.1,0.0,0.0,0.0,0.1
1446036923768905833,190,1446036923765820980,robocape,-0.670423969646,5.25081479624,-18.2856519163,0.0,10.0,0.0,0.0,0.0,10.0,0.0,0.0,0.0,10.0,-0.0691090302876,0.00439421579863,0.00692421883421,1.0,0.0,0.0,0.0,1.0,0.0,0.0,0.0,1.0,-0.0395178222656,-1.21906494141,9.97645385742,0.1,0.0,0.0,0.0,0.1,0.0,0.0,0.0,0.1
1446036923801888958,191,1446036923798777103,robocape,-0.570363967378,5.27815507773,-18.2458034225,0.0,10.0,0.0,0.0,0.0,10.0,0.0,0.0,0.0,10.0,0.050733218766,0.0191747598486,0.00359526747161,1.0,0.0,0.0,0.0,1.0,0.0,0.0,0.0,1.0,0.293389892578,-1.00111816406,9.9596887207,0.1,0.0,0.0,0.0,0.1,0.0,0.0,0.0,0.1
1446036923835244291,192,1446036923832078933,robocape,-0.295579647806,5.31571078542,-18.2061230574,0.0,10.0,0.0,0.0,0.0,10.0,0.0,0.0,0.0,10.0,0.142479118319,0.0246342400832,0.0034621094171,1.0,0.0,0.0,0.0,1.0,0.0,0.0,0.0,1.0,0.159268798828,-0.740061035156,9.98603393555,0.1,0.0,0.0,0.0,0.1,0.0,0.0,0.0,0.1
1446036923869078708,193,1446036923865751981,robocape,0.0333964866733,5.35683931405,-18.1654006436,0.0,10.0,0.0,0.0,0.0,10.0,0.0,0.0,0.0,10.0,0.171108100038,0.0266316109008,0.00386158358061,1.0,0.0,0.0,0.0,1.0,0.0,0.0,0.0,1.0,-0.0275427246094,-0.384400634766,10.0123791504,0.1,0.0,0.0,0.0,0.1,0.0,0.0,0.0,0.1
1446036923902082416,194,1446036923898858070,robocape,0.316697597482,5.39369798919,-18.1237184585,0.0,10.0,0.0,0.0,0.0,10.0,0.0,0.0,0.0,10.0,0.147405966336,0.0245010820287,0.00426105774413,1.0,0.0,0.0,0.0,1.0,0.0,0.0,0.0,1.0,0.0538879394531,0.179626464844,10.0099841309,0.1,0.0,0.0,0.0,0.1,0.0,0.0,0.0,0.1
1446036923935399916,195,1446036923932105064,robocape,0.471961936856,5.41879576314,-18.0779895704,0.0,10.0,0.0,0.0,0.0,10.0,0.0,0.0,0.0,10.0,0.0802943068659,0.0183758115215,0.00652474467069,1.0,0.0,0.0,0.0,1.0,0.0,0.0,0.0,1.0,-0.0047900390625,0.387993164063,10.003996582,0.1,0.0,0.0,0.0,0.1,0.0,0.0,0.0,0.1
1446036923969179333,196,1446036923965708971,robocape,0.476156837618,5.43073477895,-18.030024742,0.0,10.0,0.0,0.0,0.0,10.0,0.0,0.0,0.0,10.0,0.00106526443603,0.0114515926873,0.00798948327024,1.0,0.0,0.0,0.0,1.0,0.0,0.0,0.0,1.0,-0.0910107421875,0.377215576172,10.0063916016,0.1,0.0,0.0,0.0,0.1,0.0,0.0,0.0,0.1
1446036924002591083,197,1446036923999413967,robocape,0.346978799372,5.42784410953,-17.9806595792,0.0,10.0,0.0,0.0,0.0,10.0,0.0,0.0,0.0,10.0,-0.0689758722331,0.00359526747161,0.00905474770627,1.0,0.0,0.0,0.0,1.0,0.0,0.0,0.0,1.0,0.0179626464844,0.21076171875,10.0159716797,0.1,0.0,0.0,0.0,0.1,0.0,0.0,0.0,0.1
1446036924035418333,198,1446036924032244920,robocape,0.134377328618,5.42106802243,-17.9300965877,0.0,10.0,0.0,0.0,0.0,10.0,0.0,0.0,0.0,10.0,-0.112918030219,0.00146473859954,0.00985369603329,1.0,0.0,0.0,0.0,1.0,0.0,0.0,0.0,1.0,0.0526904296875,-0.143701171875,10.0099841309,0.1,0.0,0.0,0.0,0.1,0.0,0.0,0.0,0.1
1446036924068761250,199,1446036924065530061,robocape,-0.0512735946613,5.41541364735,-17.8803077987,0.0,10.0,0.0,0.0,0.0,10.0,0.0,0.0,0.0,10.0,-0.0989364344964,0.00199737081756,0.00945422186978,1.0,0.0,0.0,0.0,1.0,0.0,0.0,0.0,1.0,0.0538879394531,-0.518521728516,10.003996582,0.1,0.0,0.0,0.0,0.1,0.0,0.0,0.0,0.1
1446036924102237250,200,1446036924099119901,robocape,-0.148257990556,5.41814524415,-17.833202918,0.0,10.0,0.0,0.0,0.0,10.0,0.0,0.0,0.0,10.0,-0.0524642734746,0.00639158661619,0.00798948327024,1.0,0.0,0.0,0.0,1.0,0.0,0.0,0.0,1.0,0.120948486328,-0.693358154297,9.99920654297,0.1,0.0,0.0,0.0,0.1,0.0,0.0,0.0,0.1
1446036924135335500,201,1446036924132292032,robocape,-0.128730582824,5.43071046199,-17.7880495966,0.0,10.0,0.0,0.0,0.0,10.0,0.0,0.0,0.0,10.0,0.00865527354276,0.0115847507418,0.00692421883421,1.0,0.0,0.0,0.0,1.0,0.0,0.0,0.0,1.0,0.101788330078,-0.742456054688,9.98603393555,0.1,0.0,0.0,0.0,0.1,0.0,0.0,0.0,0.1
1446036924168688125,202,1446036924165549993,robocape,-0.000602201518437,5.45429751778,-17.745801899,0.0,10.0,0.0,0.0,0.0,10.0,0.0,0.0,0.0,10.0,0.065780078925,0.01744370514,0.00532632218016,1.0,0.0,0.0,0.0,1.0,0.0,0.0,0.0,1.0,0.0742456054688,-0.566422119141,10.0123791504,0.1,0.0,0.0,0.0,0.1,0.0,0.0,0.0,0.1
1446036924202113125,203,1446036924199019908,robocape,0.181304556306,5.48180828399,-17.7017145345,0.0,10.0,0.0,0.0,0.0,10.0,0.0,0.0,0.0,10.0,0.0940095864798,0.0195742340121,0.00625842856169,1.0,0.0,0.0,0.0,1.0,0.0,0.0,0.0,1.0,0.0359252929688,-0.252674560547,9.98723144531,0.1,0.0,0.0,0.0,0.1,0.0,0.0,0.0,0.1
1446036924236297167,204,1446036924232830047,robocape,0.135235213259,5.50340480266,-17.4689811286,0.0,10.0,0.0,0.0,0.0,10.0,0.0,0.0,0.0,10.0,-0.0350205683345,0.0159789665405,0.10732539193,1.0,0.0,0.0,0.0,1.0,0.0,0.0,0.0,1.0,0.0946032714844,0.0898132324219,10.0638720703,0.1,0.0,0.0,0.0,0.1,0.0,0.0,0.0,0.1
1446036924269149875,205,1446036924265661954,robocape,0.329263695227,5.54161786041,-17.4470024171,0.0,10.0,0.0,0.0,0.0,10.0,0.0,0.0,0.0,10.0,0.101599595587,0.0253000303558,-0.00532632218016,1.0,0.0,0.0,0.0,1.0,0.0,0.0,0.0,1.0,0.120948486328,-0.858614501953,9.99561401367,0.1,0.0,0.0,0.0,0.1,0.0,0.0,0.0,0.1
1446036924303063417,206,1446036924299071073,robocape,0.428452600603,5.56491959999,-17.3355385403,0.0,10.0,0.0,0.0,0.0,10.0,0.0,0.0,0.0,10.0,0.0474042674034,0.01744370514,0.0426105774413,1.0,0.0,0.0,0.0,1.0,0.0,0.0,0.0,1.0,-0.15328125,-0.177231445313,10.024354248,0.1,0.0,0.0,0.0,0.1,0.0,0.0,0.0,0.1
1446036924339808625,207,1446036924336111068,robocape,0.574508238084,5.59110990895,-17.3058857751,0.0,10.0,0.0,0.0,0.0,10.0,0.0,0.0,0.0,10.0,0.0762995652308,0.0190416017941,-0.00106526443603,1.0,0.0,0.0,0.0,1.0,0.0,0.0,0.0,1.0,-0.00239501953125,0.132923583984,10.0435144043,0.1,0.0,0.0,0.0,0.1,0.0,0.0,0.0,0.1
1446036924374935625,208,1446036924367010116,robocape,0.581230320259,5.60728140865,-17.2123279176,0.0,10.0,0.0,0.0,0.0,10.0,0.0,0.0,0.0,10.0,0.0,0.0138484376684,0.033289513626,1.0,0.0,0.0,0.0,1.0,0.0,0.0,0.0,1.0,0.01916015625,0.135318603516,10.0099841309,0.1,0.0,0.0,0.0,0.1,0.0,0.0,0.0,0.1
1446036924405322292,209,1446036924401946067,robocape,0.566646269078,5.61707394189,-17.1926968509,0.0,10.0,0.0,0.0,0.0,10.0,0.0,0.0,0.0,10.0,-0.00732369299772,0.0103863282513,-0.00599211245268,1.0,0.0,0.0,0.0,1.0,0.0,0.0,0.0,1.0,-0.00718505859375,-0.009580078125,10.0087866211,0.1,0.0,0.0,0.0,0.1,0.0,0.0,0.0,0.1
1446036924446676750,210,1446036924443347930,robocape,0.45562454614,5.6250176106,-17.0840509881,0.0,10.0,0.0,0.0,0.0,10.0,0.0,0.0,0.0,10.0,-0.0625842856169,0.00945422186978,0.0416784710597,1.0,0.0,0.0,0.0,1.0,0.0,0.0,0.0,1.0,-0.0155676269531,-0.0155676269531,10.024354248,0.1,0.0,0.0,0.0,0.1,0.0,0.0,0.0,0.1
1446036924470423792,211,1446036924467063903,robocape,0.294066179032,5.62971541797,-16.9266447224,0.0,10.0,0.0,0.0,0.0,10.0,0.0,0.0,0.0,10.0,-0.0917458995532,0.00759000910673,0.067910607797,1.0,0.0,0.0,0.0,1.0,0.0,0.0,0.0,1.0,0.0263452148438,-0.385598144531,10.0027990723,0.1,0.0,0.0,0.0,0.1,0.0,0.0,0.0,0.1
1446036924504174583,212,1446036924500926971,robocape,0.356280777324,5.64938316465,-16.9085658013,0.0,10.0,0.0,0.0,0.0,10.0,0.0,0.0,0.0,10.0,0.032756881408,0.015579492377,-0.00652474467069,1.0,0.0,0.0,0.0,1.0,0.0,0.0,0.0,1.0,0.143701171875,-0.465831298828,9.98244140625,0.1,0.0,0.0,0.0,0.1,0.0,0.0,0.0,0.1
1446036924536991917,213,1446036924533893108,robocape,0.530298008382,5.66946083931,-16.9312215571,0.0,10.0,0.0,0.0,0.0,10.0,0.0,0.0,0.0,10.0,0.0936101123163,0.015845808486,-0.0283626656093,1.0,0.0,0.0,0.0,1.0,0.0,0.0,0.0,1.0,0.028740234375,-0.762813720703,9.94891113281,0.1,0.0,0.0,0.0,0.1,0.0,0.0,0.0,0.1
1446036924572674083,214,1446036924568624973,robocape,0.772958288577,5.69329246771,-17.0622658879,0.0,10.0,0.0,0.0,0.0,10.0,0.0,0.0,0.0,10.0,0.135554899485,0.0175768631945,-0.0864195773731,1.0,0.0,0.0,0.0,1.0,0.0,0.0,0.0,1.0,-0.128133544922,0.753233642578,10.136920166,0.1,0.0,0.0,0.0,0.1,0.0,0.0,0.0,0.1
1446036924607211458,215,1446036924603179931,robocape,0.686118728416,5.69785270472,-17.02622592,0.0,10.0,0.0,0.0,0.0,10.0,0.0,0.0,0.0,10.0,-0.0459395288039,0.00772316716123,0.00306263525359,1.0,0.0,0.0,0.0,1.0,0.0,0.0,0.0,1.0,0.00239501953125,0.130528564453,9.94531860352,0.1,0.0,0.0,0.0,0.1,0.0,0.0,0.0,0.1
1446036924638869458,216,1446036924635308027,robocape,0.481326971527,5.68753929448,-16.9633350954,0.0,10.0,0.0,0.0,0.0,10.0,0.0,0.0,0.0,10.0,-0.109322762748,-0.000133158054504,0.017710021249,1.0,0.0,0.0,0.0,1.0,0.0,0.0,0.0,1.0,0.0371228027344,0.120948486328,10.0495019531,0.1,0.0,0.0,0.0,0.1,0.0,0.0,0.0,0.1
1446036924673763667,217,1446036924669420957,robocape,0.302560850234,5.68091321611,-16.9378761497,0.0,10.0,0.0,0.0,0.0,10.0,0.0,0.0,0.0,10.0,-0.0938764284253,0.00173105470855,-0.00226368692657,1.0,0.0,0.0,0.0,1.0,0.0,0.0,0.0,1.0,0.0419128417969,-0.4215234375,10.0387243652,0.1,0.0,0.0,0.0,0.1,0.0,0.0,0.0,0.1
1446036924704944583,218,1446036924701711893,robocape,0.166264038978,5.6771083009,-16.9046171072,0.0,10.0,0.0,0.0,0.0,10.0,0.0,0.0,0.0,10.0,-0.0721716655411,0.0031957933081,0.00186421276306,1.0,0.0,0.0,0.0,1.0,0.0,0.0,0.0,1.0,0.0742456054688,-0.495769042969,10.0123791504,0.1,0.0,0.0,0.0,0.1,0.0,0.0,0.0,0.1
1446036924740357083,219,1446036924736892938,robocape,0.100312135753,5.68095547567,-16.860781342,0.0,10.0,0.0,0.0,0.0,10.0,0.0,0.0,0.0,10.0,-0.0359526747161,0.00719053494321,0.00745685105222,1.0,0.0,0.0,0.0,1.0,0.0,0.0,0.0,1.0,0.138911132813,-0.631087646484,9.98723144531,0.1,0.0,0.0,0.0,0.1,0.0,0.0,0.0,0.1
1446036924773924250,220,1446036924769315004,robocape,0.114011023342,5.70243395694,-16.7833469166,0.0,10.0,0.0,0.0,0.0,10.0,0.0,0.0,0.0,10.0,0.00399474163512,0.016378440704,0.0253000303558,1.0,0.0,0.0,0.0,1.0,0.0,0.0,0.0,1.0,0.086220703125,-0.387993164063,10.0303417969,0.1,0.0,0.0,0.0,0.1,0.0,0.0,0.0,0.1
1446036924806525458,221,1446036924803155899,robocape,0.130507993796,5.72425373242,-16.6328986805,0.0,10.0,0.0,0.0,0.0,10.0,0.0,0.0,0.0,10.0,0.00159789665405,0.016378440704,0.0643153403254,1.0,0.0,0.0,0.0,1.0,0.0,0.0,0.0,1.0,0.162861328125,-0.777183837891,9.98004638672,0.1,0.0,0.0,0.0,0.1,0.0,0.0,0.0,0.1
1446036924838525292,222,1446036924834605932,robocape,0.302590064181,5.75088493884,-16.5359478488,0.0,10.0,0.0,0.0,0.0,10.0,0.0,0.0,0.0,10.0,0.0860201032096,0.0191747598486,0.0358195166616,1.0,0.0,0.0,0.0,1.0,0.0,0.0,0.0,1.0,0.0694555664063,-0.859812011719,10.0135766602,0.1,0.0,0.0,0.0,0.1,0.0,0.0,0.0,0.1
1446036924873620167,223,1446036924867840051,robocape,0.548772976092,5.78650263052,-16.4890402994,0.0,10.0,0.0,0.0,0.0,10.0,0.0,0.0,0.0,10.0,0.127698574269,0.0241016078652,0.00905474770627,1.0,0.0,0.0,0.0,1.0,0.0,0.0,0.0,1.0,0.00239501953125,0.067060546875,10.055489502,0.1,0.0,0.0,0.0,0.1,0.0,0.0,0.0,0.1
1446036924905845000,224,1446036924902362108,robocape,0.732116579971,5.81284356615,-16.4420166722,0.0,10.0,0.0,0.0,0.0,10.0,0.0,0.0,0.0,10.0,0.0949416928613,0.0193079179031,0.00918790576077,1.0,0.0,0.0,0.0,1.0,0.0,0.0,0.0,1.0,0.0514929199219,-0.0347277832031,9.98483642578,0.1,0.0,0.0,0.0,0.1,0.0,0.0,0.0,0.1
1446036924939232167,225,1446036924935312986,robocape,0.813449685966,5.83025379517,-16.3918498075,0.0,10.0,0.0,0.0,0.0,10.0,0.0,0.0,0.0,10.0,0.0414121549507,0.0146473859954,0.0110521185238,1.0,0.0,0.0,0.0,1.0,0.0,0.0,0.0,1.0,-0.00359252929688,0.265847167969,10.0219592285,0.1,0.0,0.0,0.0,0.1,0.0,0.0,0.0,0.1
1446036924972513042,226,1446036924968930006,robocape,0.798112197773,5.83814897291,-16.3524151366,0.0,10.0,0.0,0.0,0.0,10.0,0.0,0.0,0.0,10.0,-0.00865527354276,0.00958737992429,0.00559263828917,1.0,0.0,0.0,0.0,1.0,0.0,0.0,0.0,1.0,-0.0131726074219,0.148491210938,10.0506994629,0.1,0.0,0.0,0.0,0.1,0.0,0.0,0.0,0.1
1446036925006338625,227,1446036925003221988,robocape,0.746171834487,5.83770650316,-16.3505767118,0.0,10.0,0.0,0.0,0.0,10.0,0.0,0.0,0.0,10.0,-0.0258326625738,0.00506000607115,-0.0142479118319,1.0,0.0,0.0,0.0,1.0,0.0,0.0,0.0,1.0,-0.0239501953125,-0.380808105469,9.98244140625,0.1,0.0,0.0,0.0,0.1,0.0,0.0,0.0,0.1
1446036925039202959,228,1446036925035871028,robocape,0.648697032752,5.84021229303,-16.3775283714,0.0,10.0,0.0,0.0,0.0,10.0,0.0,0.0,0.0,10.0,-0.0482032157304,0.00652474467069,-0.0295610880999,1.0,0.0,0.0,0.0,1.0,0.0,0.0,0.0,1.0,-0.0910107421875,0.67060546875,10.1608703613,0.1,0.0,0.0,0.0,0.1,0.0,0.0,0.0,0.1
1446036925072658959,229,1446036925069519996,robocape,0.357278090381,5.83948222934,-16.2735821011,0.0,10.0,0.0,0.0,0.0,10.0,0.0,0.0,0.0,10.0,-0.157126504315,0.00492684801665,0.0403468905147,1.0,0.0,0.0,0.0,1.0,0.0,0.0,0.0,1.0,0.177231445313,-0.0850231933594,9.90819580078,0.1,0.0,0.0,0.0,0.1,0.0,0.0,0.0,0.1
1446036925105885875,230,1446036925102839946,robocape,-0.0356332960844,5.89395618483,-15.9647477294,0.0,10.0,0.0,0.0,0.0,10.0,0.0,0.0,0.0,10.0,-0.221708160749,0.0331563555715,0.149270179099,1.0,0.0,0.0,0.0,1.0,0.0,0.0,0.0,1.0,0.009580078125,-0.544866943359,10.0518969727,0.1,0.0,0.0,0.0,0.1,0.0,0.0,0.0,0.1
1446036925138806667,231,1446036925135483026,robocape,-0.360502337039,5.89366227359,-15.5595218501,0.0,10.0,0.0,0.0,0.0,10.0,0.0,0.0,0.0,10.0,-0.191614440431,0.00292947719909,0.200935504246,1.0,0.0,0.0,0.0,1.0,0.0,0.0,0.0,1.0,0.243094482422,-1.56394775391,10.0063916016,0.1,0.0,0.0,0.0,0.1,0.0,0.0,0.0,0.1
1446036925172016042,232,1446036925168992042,robocape,-0.40356638611,5.91243813858,-15.06680417,0.0,10.0,0.0,0.0,0.0,10.0,0.0,0.0,0.0,10.0,-0.048869006003,0.0117179087963,0.247540823323,1.0,0.0,0.0,0.0,1.0,0.0,0.0,0.0,1.0,0.244291992188,-1.8741027832,9.90460327148,0.1,0.0,0.0,0.0,0.1,0.0,0.0,0.0,0.1
1446036925204973459,233,1446036925201899051,robocape,0.224729408572,5.97682569669,-14.7987264749,0.0,10.0,0.0,0.0,0.0,10.0,0.0,0.0,0.0,10.0,0.315185115011,0.0380832035881,0.128364364542,1.0,0.0,0.0,0.0,1.0,0.0,0.0,0.0,1.0,0.204774169922,-2.26209594727,9.90699829102,0.1,0.0,0.0,0.0,0.1,0.0,0.0,0.0,0.1
1446036925238027375,234,1446036925234769105,robocape,1.21837376623,6.05394398318,-14.678919392,0.0,10.0,0.0,0.0,0.0,10.0,0.0,0.0,0.0,10.0,0.515454828985,0.0464721610219,0.048869006003,1.0,0.0,0.0,0.0,1.0,0.0,0.0,0.0,1.0,-0.0838256835938,-0.849034423828,9.84233276367,0.1,0.0,0.0,0.0,0.1,0.0,0.0,0.0,0.1
1446036925271372959,235,1446036925268054962,robocape,2.16746475532,6.11528549489,-14.6026329933,0.0,10.0,0.0,0.0,0.0,10.0,0.0,0.0,0.0,10.0,0.495481120809,0.0388821519152,0.0249005561922,1.0,0.0,0.0,0.0,1.0,0.0,0.0,0.0,1.0,-0.0455053710938,0.746048583984,9.98483642578,0.1,0.0,0.0,0.0,0.1,0.0,0.0,0.0,0.1
1446036925304838542,236,1446036925301799058,robocape,2.8320609115,6.15386835238,-14.5682172256,0.0,10.0,0.0,0.0,0.0,10.0,0.0,0.0,0.0,10.0,0.349539893073,0.0266316109008,0.00279631914458,1.0,0.0,0.0,0.0,1.0,0.0,0.0,0.0,1.0,-0.0359252929688,0.936452636719,9.97765136719,0.1,0.0,0.0,0.0,0.1,0.0,0.0,0.0,0.1
1446036925336979875,237,1446036925333683013,robocape,3.23133683212,6.18663373202,-14.5951248295,0.0,10.0,0.0,0.0,0.0,10.0,0.0,0.0,0.0,10.0,0.214517625806,0.0221042370477,-0.0294279300454,1.0,0.0,0.0,0.0,1.0,0.0,0.0,0.0,1.0,-0.380808105469,1.16757202148,10.0339343262,0.1,0.0,0.0,0.0,0.1,0.0,0.0,0.0,0.1
1446036925373967917,238,1446036925366662025,robocape,3.36199399103,6.20042836886,-14.5620904,0.0,10.0,0.0,0.0,0.0,10.0,0.0,0.0,0.0,10.0,0.0703074527781,0.0134489635049,0.0033289513626,1.0,0.0,0.0,0.0,1.0,0.0,0.0,0.0,1.0,-0.136516113281,1.1879296875,10.0111816406,0.1,0.0,0.0,0.0,0.1,0.0,0.0,0.0,0.1
1446036925404427250,239,1446036925401272058,robocape,3.17333689014,6.20239590689,-14.5189931433,0.0,10.0,0.0,0.0,0.0,10.0,0.0,0.0,0.0,10.0,-0.0978711700604,0.00719053494321,0.00985369603329,1.0,0.0,0.0,0.0,1.0,0.0,0.0,0.0,1.0,0.0622705078125,0.934057617188,10.0279467773,0.1,0.0,0.0,0.0,0.1,0.0,0.0,0.0,0.1
1446036925436499667,240,1446036925433358907,robocape,2.82338238998,6.19651302795,-14.4719063083,0.0,10.0,0.0,0.0,0.0,10.0,0.0,0.0,0.0,10.0,-0.182959166888,0.00292947719909,0.0126500151779,1.0,0.0,0.0,0.0,1.0,0.0,0.0,0.0,1.0,-0.0646655273438,0.506546630859,10.0590820312,0.1,0.0,0.0,0.0,0.1,0.0,0.0,0.0,0.1
1446036925469386292,241,1446036925466288089,robocape,2.42484804233,6.19077803445,-14.4079215523,0.0,10.0,0.0,0.0,0.0,10.0,0.0,0.0,0.0,10.0,-0.209723935844,0.0031957933081,0.0217047628841,1.0,0.0,0.0,0.0,1.0,0.0,0.0,0.0,1.0,-0.101788330078,0.0562829589844,10.0027990723,0.1,0.0,0.0,0.0,0.1,0.0,0.0,0.0,0.1
1446036925502817042,242,1446036925499706029,robocape,2.00630904684,6.18788355912,-14.3099418567,0.0,10.0,0.0,0.0,0.0,10.0,0.0,0.0,0.0,10.0,-0.222507109076,0.00506000607115,0.0396811002422,1.0,0.0,0.0,0.0,1.0,0.0,0.0,0.0,1.0,0.0335302734375,0.0455053710938,10.0351318359,0.1,0.0,0.0,0.0,0.1,0.0,0.0,0.0,0.1
1446036925535860251,243,1446036925532840013,robocape,1.62071289907,6.18317272422,-14.2708635348,0.0,10.0,0.0,0.0,0.0,10.0,0.0,0.0,0.0,10.0,-0.202133926737,0.00306263525359,0.00852211548825,1.0,0.0,0.0,0.0,1.0,0.0,0.0,0.0,1.0,0.0514929199219,-0.293389892578,9.97525634766,0.1,0.0,0.0,0.0,0.1,0.0,0.0,0.0,0.1
1446036925568852917,244,1446036925565805912,robocape,1.31360029899,6.17529795618,-14.2366803171,0.0,10.0,0.0,0.0,0.0,10.0,0.0,0.0,0.0,10.0,-0.160988087895,0.00133158054504,0.00585895439817,1.0,0.0,0.0,0.0,1.0,0.0,0.0,0.0,1.0,0.0383203125,-0.814306640625,9.99441650391,0.1,0.0,0.0,0.0,0.1,0.0,0.0,0.0,0.1
1446036925602504667,245,1446036925599338054,robocape,1.19664139291,6.18311563445,-14.2272648439,0.0,10.0,0.0,0.0,0.0,10.0,0.0,0.0,0.0,10.0,-0.0600542825813,0.00945422186978,-0.00772316716123,1.0,0.0,0.0,0.0,1.0,0.0,0.0,0.0,1.0,0.0467028808594,-0.963995361328,10.0351318359,0.1,0.0,0.0,0.0,0.1,0.0,0.0,0.0,0.1
1446036925635280751,246,1446036925632245063,robocape,1.38759250175,6.20560870365,-14.3181090673,0.0,10.0,0.0,0.0,0.0,10.0,0.0,0.0,0.0,10.0,0.107192233876,0.0165115987585,-0.0613858631263,1.0,0.0,0.0,0.0,1.0,0.0,0.0,0.0,1.0,0.0898132324219,-1.02267333984,10.0111816406,0.1,0.0,0.0,0.0,0.1,0.0,0.0,0.0,0.1
1446036925670389084,247,1446036925665661096,robocape,1.69077319927,6.238880632,-14.4933935468,0.0,10.0,0.0,0.0,0.0,10.0,0.0,0.0,0.0,10.0,0.171241258092,0.0211721306661,-0.106659601658,1.0,0.0,0.0,0.0,1.0,0.0,0.0,0.0,1.0,0.147293701172,0.102985839844,9.98124389648,0.1,0.0,0.0,0.0,0.1,0.0,0.0,0.0,0.1
1446036925702474626,248,1446036925699189901,robocape,1.77974799918,6.25424624502,-14.5312245094,0.0,10.0,0.0,0.0,0.0,10.0,0.0,0.0,0.0,10.0,0.0511326929295,0.0130494893414,-0.033555829735,1.0,0.0,0.0,0.0,1.0,0.0,0.0,0.0,1.0,-0.0395178222656,0.256267089844,9.99441650391,0.1,0.0,0.0,0.0,0.1,0.0,0.0,0.0,0.1
1446036925735465209,249,1446036925732312917,robocape,1.86012112148,6.27401046793,-14.6735646766,0.0,10.0,0.0,0.0,0.0,10.0,0.0,0.0,0.0,10.0,0.0528637476381,0.0139815957229,-0.0890827384632,1.0,0.0,0.0,0.0,1.0,0.0,0.0,0.0,1.0,-0.217946777344,0.542471923828,9.98004638672,0.1,0.0,0.0,0.0,0.1,0.0,0.0,0.0,0.1
1446036925768856626,250,1446036925765743017,robocape,1.62734704899,6.26168258782,-14.5746862375,0.0,10.0,0.0,0.0,0.0,10.0,0.0,0.0,0.0,10.0,-0.125568045397,0.0,0.0396811002422,1.0,0.0,0.0,0.0,1.0,0.0,0.0,0.0,1.0,-0.199984130859,0.0323327636719,10.0782421875,0.1,0.0,0.0,0.0,0.1,0.0,0.0,0.0,0.1
1446036925802213084,251,1446036925799159049,robocape,1.33368165724,6.25432445111,-14.444526579,0.0,10.0,0.0,0.0,0.0,10.0,0.0,0.0,0.0,10.0,-0.159523349296,0.00266316109008,0.0563258570552,1.0,0.0,0.0,0.0,1.0,0.0,0.0,0.0,1.0,0.0443078613281,-0.383203125,10.0794396973,0.1,0.0,0.0,0.0,0.1,0.0,0.0,0.0,0.1
1446036925835700417,252,1446036925832609891,robocape,1.23246196558,6.26064615492,-14.4001937916,0.0,10.0,0.0,0.0,0.0,10.0,0.0,0.0,0.0,10.0,-0.0537958540196,0.00905474770627,0.0105194863058,1.0,0.0,0.0,0.0,1.0,0.0,0.0,0.0,1.0,0.164058837891,-0.871787109375,9.98004638672,0.1,0.0,0.0,0.0,0.1,0.0,0.0,0.0,0.1
1446036925868752126,253,1446036925865675926,robocape,1.24462857835,6.27326546773,-14.3603112527,0.0,10.0,0.0,0.0,0.0,10.0,0.0,0.0,0.0,10.0,0.00585895439817,0.0123836990689,0.00798948327024,1.0,0.0,0.0,0.0,1.0,0.0,0.0,0.0,1.0,0.239501953125,-0.610729980469,9.98004638672,0.1,0.0,0.0,0.0,0.1,0.0,0.0,0.0,0.1
1446036925902366001,254,1446036925899363994,robocape,1.36178807847,6.29170501877,-14.3301455353,0.0,10.0,0.0,0.0,0.0,10.0,0.0,0.0,0.0,10.0,0.0615190211808,0.0154463343225,0.00266316109008,1.0,0.0,0.0,0.0,1.0,0.0,0.0,0.0,1.0,0.0299377441406,-0.514929199219,9.98483642578,0.1,0.0,0.0,0.0,0.1,0.0,0.0,0.0,0.1
1446036925935522251,255,1446036925932495117,robocape,1.52708087145,6.31118290563,-14.2809506993,0.0,10.0,0.0,0.0,0.0,10.0,0.0,0.0,0.0,10.0,0.0857537871006,0.0162452826495,0.0126500151779,1.0,0.0,0.0,0.0,1.0,0.0,0.0,0.0,1.0,-0.00239501953125,-0.361647949219,10.0147741699,0.1,0.0,0.0,0.0,0.1,0.0,0.0,0.0,0.1
1446036925968770042,256,1446036925965759038,robocape,1.70357985718,6.33243036644,-14.2155464422,0.0,10.0,0.0,0.0,0.0,10.0,0.0,0.0,0.0,10.0,0.0908137931717,0.01744370514,0.0211721306661,1.0,0.0,0.0,0.0,1.0,0.0,0.0,0.0,1.0,-0.0179626464844,-0.0407153320313,10.0255517578,0.1,0.0,0.0,0.0,0.1,0.0,0.0,0.0,0.1
1446036926002266667,257,1446036925999175071,robocape,1.82063727889,6.34910372354,-14.1326175815,0.0,10.0,0.0,0.0,0.0,10.0,0.0,0.0,0.0,10.0,0.0587227020362,0.015313176268,0.0306263525359,1.0,0.0,0.0,0.0,1.0,0.0,0.0,0.0,1.0,-0.0299377441406,0.0395178222656,10.0207617188,0.1,0.0,0.0,0.0,0.1,0.0,0.0,0.0,0.1
1446036926035388084,258,1446036926032367944,robocape,1.91208495705,6.36684173873,-14.0860542435,0.0,10.0,0.0,0.0,0.0,10.0,0.0,0.0,0.0,10.0,0.0475374254579,0.0154463343225,0.0114515926873,1.0,0.0,0.0,0.0,1.0,0.0,0.0,0.0,1.0,0.00359252929688,-0.130528564453,9.98962646484,0.1,0.0,0.0,0.0,0.1,0.0,0.0,0.0,0.1
1446036926069063709,259,1446036926065582990,robocape,1.95209822138,6.37845364427,-14.0376688628,0.0,10.0,0.0,0.0,0.0,10.0,0.0,0.0,0.0,10.0,0.0205063403936,0.0122505410144,0.0126500151779,1.0,0.0,0.0,0.0,1.0,0.0,0.0,0.0,1.0,-0.028740234375,0.0538879394531,10.0315393066,0.1,0.0,0.0,0.0,0.1,0.0,0.0,0.0,0.1
1446036926102144834,260,1446036926098942041,robocape,1.96942649983,6.38745217544,-14.0142103242,0.0,10.0,0.0,0.0,0.0,10.0,0.0,0.0,0.0,10.0,0.0101200121423,0.0105194863058,-0.000399474163512,1.0,0.0,0.0,0.0,1.0,0.0,0.0,0.0,1.0,-0.0263452148438,-0.241896972656,10.055489502,0.1,0.0,0.0,0.0,0.1,0.0,0.0,0.0,0.1
1446036926135455084,261,1446036926132385015,robocape,2.05729309325,6.4149940387,-14.1498863033,0.0,10.0,0.0,0.0,0.0,10.0,0.0,0.0,0.0,10.0,0.0567253312187,0.017976337358,-0.085087996828,1.0,0.0,0.0,0.0,1.0,0.0,0.0,0.0,1.0,0.0047900390625,0.742456054688,10.039921875,0.1,0.0,0.0,0.0,0.1,0.0,0.0,0.0,0.1
1446036926168721792,262,1446036926165709018,robocape,1.91406458291,6.41323147099,-14.1353911265,0.0,10.0,0.0,0.0,0.0,10.0,0.0,0.0,0.0,10.0,-0.0735032460862,0.00466053190764,-0.00479368996214,1.0,0.0,0.0,0.0,1.0,0.0,0.0,0.0,1.0,-0.106578369141,-0.234711914063,9.96447875977,0.1,0.0,0.0,0.0,0.1,0.0,0.0,0.0,0.1
1446036926202098167,263,1446036926198745012,robocape,1.68210791046,6.40082352265,-14.042314704,0.0,10.0,0.0,0.0,0.0,10.0,0.0,0.0,0.0,10.0,-0.124902255125,0.0,0.0371510972066,1.0,0.0,0.0,0.0,1.0,0.0,0.0,0.0,1.0,0.0227526855469,0.130528564453,10.136920166,0.1,0.0,0.0,0.0,0.1,0.0,0.0,0.0,0.1
1446036926235625209,264,1446036926232376098,robocape,1.53535440478,6.40736240239,-14.0464060273,0.0,10.0,0.0,0.0,0.0,10.0,0.0,0.0,0.0,10.0,-0.0745685105222,0.00878843159726,-0.0146473859954,1.0,0.0,0.0,0.0,1.0,0.0,0.0,0.0,1.0,0.0634680175781,-0.473016357422,9.98244140625,0.1,0.0,0.0,0.0,0.1,0.0,0.0,0.0,0.1
1446036926268995876,265,1446036926265674114,robocape,1.70046796156,6.43166739058,-14.2853591997,0.0,10.0,0.0,0.0,0.0,10.0,0.0,0.0,0.0,10.0,0.103064334186,0.0157126504315,-0.139682799175,1.0,0.0,0.0,0.0,1.0,0.0,0.0,0.0,1.0,0.0969982910156,-0.955612792969,9.88544311523,0.1,0.0,0.0,0.0,0.1,0.0,0.0,0.0,0.1
1446036926302172084,266,1446036926298845052,robocape,1.802510752,6.44246060679,-14.5304993086,0.0,10.0,0.0,0.0,0.0,10.0,0.0,0.0,0.0,10.0,0.0705737688871,0.00825579937925,-0.143011750537,1.0,0.0,0.0,0.0,1.0,0.0,0.0,0.0,1.0,0.144898681641,0.483793945313,9.99561401367,0.1,0.0,0.0,0.0,0.1,0.0,0.0,0.0,0.1
1446036926335604334,267,1446036926332199096,robocape,1.67171517795,6.44248075007,-14.6867719652,0.0,10.0,0.0,0.0,0.0,10.0,0.0,0.0,0.0,10.0,-0.0568584892732,0.00359526747161,-0.0957406411883,1.0,0.0,0.0,0.0,1.0,0.0,0.0,0.0,1.0,-0.0742456054688,0.453856201172,10.0506994629,0.1,0.0,0.0,0.0,0.1,0.0,0.0,0.0,0.1
1446036926374818376,268,1446036926365613937,robocape,1.37596007456,6.42771161369,-14.7302664723,0.0,10.0,0.0,0.0,0.0,10.0,0.0,0.0,0.0,10.0,-0.150335443535,-0.00279631914458,-0.0356863586071,1.0,0.0,0.0,0.0,1.0,0.0,0.0,0.0,1.0,-0.292192382813,-0.0443078613281,10.024354248,0.1,0.0,0.0,0.0,0.1,0.0,0.0,0.0,0.1
1446036926403048834,269,1446036926399964094,robocape,1.00729084976,6.40931727512,-14.6740531559,0.0,10.0,0.0,0.0,0.0,10.0,0.0,0.0,0.0,10.0,-0.194810233739,-0.00386158358061,0.017177389031,1.0,0.0,0.0,0.0,1.0,0.0,0.0,0.0,1.0,0.0311352539063,-0.439486083984,10.0447119141,0.1,0.0,0.0,0.0,0.1,0.0,0.0,0.0,0.1
1446036926435546834,270,1446036926432379961,robocape,0.736974003359,6.39162012614,-14.592676757,0.0,10.0,0.0,0.0,0.0,10.0,0.0,0.0,0.0,10.0,-0.145009121355,-0.0034621094171,0.0303600364269,1.0,0.0,0.0,0.0,1.0,0.0,0.0,0.0,1.0,0.340092773437,-1.14122680664,10.0016015625,0.1,0.0,0.0,0.0,0.1,0.0,0.0,0.0,0.1
1446036926468635043,271,1446036926465502977,robocape,0.695031323837,6.4015493973,-14.562984244,0.0,10.0,0.0,0.0,0.0,10.0,0.0,0.0,0.0,10.0,-0.0223705531567,0.0109189604693,0.00253000303558,1.0,0.0,0.0,0.0,1.0,0.0,0.0,0.0,1.0,0.246687011719,-0.934057617188,10.0351318359,0.1,0.0,0.0,0.0,0.1,0.0,0.0,0.0,0.1
1446036926502045418,272,1446036926499058008,robocape,0.96933807413,6.42348153631,-14.6592174854,0.0,10.0,0.0,0.0,0.0,10.0,0.0,0.0,0.0,10.0,0.151001233807,0.016911072922,-0.0645816564344,1.0,0.0,0.0,0.0,1.0,0.0,0.0,0.0,1.0,-0.0874182128906,-1.27774291992,9.92017089844,0.1,0.0,0.0,0.0,0.1,0.0,0.0,0.0,0.1
1446036926535307084,273,1446036926532294034,robocape,1.22839046627,6.44871413581,-14.6795345895,0.0,10.0,0.0,0.0,0.0,10.0,0.0,0.0,0.0,10.0,0.138750692793,0.0189084437396,-0.0246342400832,1.0,0.0,0.0,0.0,1.0,0.0,0.0,0.0,1.0,-0.00359252929688,0.201181640625,10.0914147949,0.1,0.0,0.0,0.0,0.1,0.0,0.0,0.0,0.1
1446036926568912501,274,1446036926565874099,robocape,1.39387016135,6.47780031547,-14.6949077597,0.0,10.0,0.0,0.0,0.0,10.0,0.0,0.0,0.0,10.0,0.0896153706812,0.0209058145571,-0.0221042370477,1.0,0.0,0.0,0.0,1.0,0.0,0.0,0.0,1.0,0.0742456054688,0.215551757813,10.0327368164,0.1,0.0,0.0,0.0,0.1,0.0,0.0,0.0,0.1
1446036926602108751,275,1446036926598886966,robocape,1.45281747414,6.49392016556,-14.6720942301,0.0,10.0,0.0,0.0,0.0,10.0,0.0,0.0,0.0,10.0,0.0315584589174,0.0143810698864,-0.00159789665405,1.0,0.0,0.0,0.0,1.0,0.0,0.0,0.0,1.0,0.0419128417969,-0.317340087891,9.91657836914,0.1,0.0,0.0,0.0,0.1,0.0,0.0,0.0,0.1
1446036926638116334,276,1446036926634994029,robocape,1.42322632897,6.4998560146,-14.6131623218,0.0,10.0,0.0,0.0,0.0,10.0,0.0,0.0,0.0,10.0,-0.0170442309765,0.00932106381528,0.0178431793035,1.0,0.0,0.0,0.0,1.0,0.0,0.0,0.0,1.0,0.0119750976563,0.0227526855469,9.98483642578,0.1,0.0,0.0,0.0,0.1,0.0,0.0,0.0,0.1
1446036926669725043,277,1446036926665992021,robocape,1.38021161668,6.50507698793,-14.5984175324,0.0,10.0,0.0,0.0,0.0,10.0,0.0,0.0,0.0,10.0,-0.0214384467751,0.00852211548825,-0.00545948023466,1.0,0.0,0.0,0.0,1.0,0.0,0.0,0.0,1.0,-0.0838256835938,0.0550854492188,10.0614770508,0.1,0.0,0.0,0.0,0.1,0.0,0.0,0.0,0.1
1446036926703277543,278,1446036926700181007,robocape,1.26558157459,6.51324812963,-14.5408121408,0.0,10.0,0.0,0.0,0.0,10.0,0.0,0.0,0.0,10.0,-0.0616521792353,0.0103863282513,0.0173105470855,1.0,0.0,0.0,0.0,1.0,0.0,0.0,0.0,1.0,0.120948486328,-0.336500244141,10.0159716797,0.1,0.0,0.0,0.0,0.1,0.0,0.0,0.0,0.1
1446036926737614918,279,1446036926734116077,robocape,1.20138856507,6.51851403757,-14.5097154263,0.0,10.0,0.0,0.0,0.0,10.0,0.0,0.0,0.0,10.0,-0.0336889877895,0.00865527354276,0.0033289513626,1.0,0.0,0.0,0.0,1.0,0.0,0.0,0.0,1.0,0.0526904296875,-0.586779785156,9.95489868164,0.1,0.0,0.0,0.0,0.1,0.0,0.0,0.0,0.1
1446036926770484001,280,1446036926767323970,robocape,1.13929065449,6.52255221915,-14.4417608878,0.0,10.0,0.0,0.0,0.0,10.0,0.0,0.0,0.0,10.0,-0.03488741028,0.00825579937925,0.0229031853747,1.0,0.0,0.0,0.0,1.0,0.0,0.0,0.0,1.0,0.170046386719,-0.386795654297,9.96208374023,0.1,0.0,0.0,0.0,0.1,0.0,0.0,0.0,0.1
1446036926804060543,281,1446036926800760030,robocape,1.16959032124,6.53569618004,-14.4185275733,0.0,10.0,0.0,0.0,0.0,10.0,0.0,0.0,0.0,10.0,0.0162452826495,0.0127831732324,-0.000932106381528,1.0,0.0,0.0,0.0,1.0,0.0,0.0,0.0,1.0,0.0155676269531,-0.584384765625,10.0339343262,0.1,0.0,0.0,0.0,0.1,0.0,0.0,0.0,0.1
1446036926836440126,282,1446036926832940101,robocape,1.27982710458,6.55006712263,-14.4190023688,0.0,10.0,0.0,0.0,0.0,10.0,0.0,0.0,0.0,10.0,0.0596548084178,0.0133158054504,-0.0135821215594,1.0,0.0,0.0,0.0,1.0,0.0,0.0,0.0,1.0,0.0778381347656,-0.650247802734,9.9596887207,0.1,0.0,0.0,0.0,0.1,0.0,0.0,0.0,0.1
1446036926873444876,283,1446036926869612932,robocape,1.33566043528,6.56620558027,-14.3510721832,0.0,10.0,0.0,0.0,0.0,10.0,0.0,0.0,0.0,10.0,0.0270310850643,0.0147805440499,0.0226368692657,1.0,0.0,0.0,0.0,1.0,0.0,0.0,0.0,1.0,0.0694555664063,-0.0335302734375,10.0495019531,0.1,0.0,0.0,0.0,0.1,0.0,0.0,0.0,0.1
1446036926902987709,284,1446036926899678945,robocape,1.42319066711,6.58637773036,-14.3348725815,0.0,10.0,0.0,0.0,0.0,10.0,0.0,0.0,0.0,10.0,0.0468716351854,0.0165115987585,-0.00479368996214,1.0,0.0,0.0,0.0,1.0,0.0,0.0,0.0,1.0,0.0383203125,-0.0610729980469,10.0447119141,0.1,0.0,0.0,0.0,0.1,0.0,0.0,0.0,0.1
1446036926936192793,285,1446036926933129072,robocape,1.38298232345,6.59999271504,-14.225082987,0.0,10.0,0.0,0.0,0.0,10.0,0.0,0.0,0.0,10.0,-0.0258326625738,0.0138484376684,0.0450074224223,1.0,0.0,0.0,0.0,1.0,0.0,0.0,0.0,1.0,-0.00119750976563,-0.0131726074219,10.0207617188,0.1,0.0,0.0,0.0,0.1,0.0,0.0,0.0,0.1
1446036926974088251,286,1446036926970524072,robocape,1.44531643898,6.62122588493,-14.2413692766,0.0,10.0,0.0,0.0,0.0,10.0,0.0,0.0,0.0,10.0,0.0356863586071,0.0167779148675,-0.0218379209386,1.0,0.0,0.0,0.0,1.0,0.0,0.0,0.0,1.0,-0.00119750976563,-0.493374023438,9.91777587891,0.1,0.0,0.0,0.0,0.1,0.0,0.0,0.0,0.1
1446036927005286876,287,1446036927002021074,robocape,1.41853936324,6.62777824357,-14.1105362901,0.0,10.0,0.0,0.0,0.0,10.0,0.0,0.0,0.0,10.0,-0.0201068662301,0.0103863282513,0.0563258570552,1.0,0.0,0.0,0.0,1.0,0.0,0.0,0.0,1.0,0.0251477050781,-0.0946032714844,10.0506994629,0.1,0.0,0.0,0.0,0.1,0.0,0.0,0.0,0.1
1446036927038724001,288,1446036927035381078,robocape,1.51517019268,6.64821194049,-14.1131483335,0.0,10.0,0.0,0.0,0.0,10.0,0.0,0.0,0.0,10.0,0.0528637476381,0.0165115987585,-0.0145142279409,1.0,0.0,0.0,0.0,1.0,0.0,0.0,0.0,1.0,-0.00718505859375,-0.500559082031,10.003996582,0.1,0.0,0.0,0.0,0.1,0.0,0.0,0.0,0.1
1446036927071539585,289,1446036927067078113,robocape,1.68160060296,6.66810664281,-14.1804661391,0.0,10.0,0.0,0.0,0.0,10.0,0.0,0.0,0.0,10.0,0.0936101123163,0.015579492377,-0.048869006003,1.0,0.0,0.0,0.0,1.0,0.0,0.0,0.0,1.0,0.156873779297,-0.591569824219,9.92735595703,0.1,0.0,0.0,0.0,0.1,0.0,0.0,0.0,0.1
1446036927105532918,290,1446036927102432966,robocape,1.73100217259,6.67889130568,-14.2262754586,0.0,10.0,0.0,0.0,0.0,10.0,0.0,0.0,0.0,10.0,0.0310258266994,0.0109189604693,-0.0372842552611,1.0,0.0,0.0,0.0,1.0,0.0,0.0,0.0,1.0,-0.086220703125,0.646655273438,10.0518969727,0.1,0.0,0.0,0.0,0.1,0.0,0.0,0.0,0.1
1446036927139563543,291,1446036927136262893,robocape,1.59409171706,6.6770928499,-14.1971782964,0.0,10.0,0.0,0.0,0.0,10.0,0.0,0.0,0.0,10.0,-0.0713727172141,0.00506000607115,0.00279631914458,1.0,0.0,0.0,0.0,1.0,0.0,0.0,0.0,1.0,-0.0119750976563,0.0730480957031,9.97405883789,0.1,0.0,0.0,0.0,0.1,0.0,0.0,0.0,0.1
1446036927173715918,292,1446036927170233011,robocape,1.31249158679,6.60382409432,-14.1212621152,0.0,10.0,0.0,0.0,0.0,10.0,0.0,0.0,0.0,10.0,-0.150335443535,-0.03222424919,0.0290284558819,1.0,0.0,0.0,0.0,1.0,0.0,0.0,0.0,1.0,0.128133544922,-0.992735595703,9.92735595703,0.1,0.0,0.0,0.0,0.1,0.0,0.0,0.0,0.1
1446036927206235085,293,1446036927202586889,robocape,1.21217601759,6.60301222693,-14.0585750326,0.0,10.0,0.0,0.0,0.0,10.0,0.0,0.0,0.0,10.0,-0.0545948023466,0.00572579634367,0.0206394984481,1.0,0.0,0.0,0.0,1.0,0.0,0.0,0.0,1.0,-0.0239501953125,-0.295784912109,10.1153649902,0.1,0.0,0.0,0.0,0.1,0.0,0.0,0.0,0.1
1446036927240233418,294,1446036927236936092,robocape,1.33770168706,6.62427889557,-14.1338494661,0.0,10.0,0.0,0.0,0.0,10.0,0.0,0.0,0.0,10.0,0.0723048235957,0.016378440704,-0.0528637476381,1.0,0.0,0.0,0.0,1.0,0.0,0.0,0.0,1.0,0.215551757813,-0.886157226563,9.99681152344,0.1,0.0,0.0,0.0,0.1,0.0,0.0,0.0,0.1
1446036927272828835,295,1446036927269185066,robocape,1.37598545095,6.6309140704,-14.079385541,0.0,10.0,0.0,0.0,0.0,10.0,0.0,0.0,0.0,10.0,0.0186421276306,0.00972053797879,0.0159789665405,1.0,0.0,0.0,0.0,1.0,0.0,0.0,0.0,1.0,-0.00718505859375,-0.484991455078,9.97286132813,0.1,0.0,0.0,0.0,0.1,0.0,0.0,0.0,0.1
1446036927306095043,296,1446036927302840948,robocape,1.45787982299,6.64772341444,-14.033403848,0.0,10.0,0.0,0.0,0.0,10.0,0.0,0.0,0.0,10.0,0.0420779452233,0.0150468601589,0.0113184346328,1.0,0.0,0.0,0.0,1.0,0.0,0.0,0.0,1.0,0.0502954101563,-0.152083740234,10.0506994629,0.1,0.0,0.0,0.0,0.1,0.0,0.0,0.0,0.1
1446036927338459210,297,1446036927335244894,robocape,1.52679449206,6.66503937832,-14.0038525571,0.0,10.0,0.0,0.0,0.0,10.0,0.0,0.0,0.0,10.0,0.0363521488796,0.0151800182135,0.00266316109008,1.0,0.0,0.0,0.0,1.0,0.0,0.0,0.0,1.0,0.0131726074219,-0.173638916016,9.96807128906,0.1,0.0,0.0,0.0,0.1,0.0,0.0,0.0,0.1
1446036927376073626,298,1446036927370120048,robocape,1.49801445136,6.67291701921,-13.9262890838,0.0,10.0,0.0,0.0,0.0,10.0,0.0,0.0,0.0,10.0,-0.0178431793035,0.0106526443603,0.0283626656093,1.0,0.0,0.0,0.0,1.0,0.0,0.0,0.0,1.0,0.0802331542969,-0.591569824219,9.99082397461,0.1,0.0,0.0,0.0,0.1,0.0,0.0,0.0,0.1
1446036927406116835,299,1446036927402705907,robocape,1.58175620771,6.6888448157,-13.8677277686,0.0,10.0,0.0,0.0,0.0,10.0,0.0,0.0,0.0,10.0,0.0423442613323,0.0147805440499,0.0181094954125,1.0,0.0,0.0,0.0,1.0,0.0,0.0,0.0,1.0,-0.0155676269531,0.112565917969,10.096204834,0.1,0.0,0.0,0.0,0.1,0.0,0.0,0.0,0.1
1446036927438521126,300,1446036927435380935,robocape,1.44713890571,6.70095248777,-13.661782463,0.0,10.0,0.0,0.0,0.0,10.0,0.0,0.0,0.0,10.0,-0.0813595713019,0.0141147537774,0.0964064314609,1.0,0.0,0.0,0.0,1.0,0.0,0.0,0.0,1.0,0.0550854492188,-0.231119384766,10.0123791504,0.1,0.0,0.0,0.0,0.1,0.0,0.0,0.0,0.1
1446036927472047710,301,1446036927468703031,robocape,1.35185449091,6.7093313739,-13.3962368367,0.0,10.0,0.0,0.0,0.0,10.0,0.0,0.0,0.0,10.0,-0.0645816564344,0.0125168571234,0.128098048433,1.0,0.0,0.0,0.0,1.0,0.0,0.0,0.0,1.0,0.0850231933594,-0.943637695313,9.91538085938,0.1,0.0,0.0,0.0,0.1,0.0,0.0,0.0,0.1
1446036927505062418,302,1446036927501652002,robocape,1.49524182672,6.73115790821,-13.1960094319,0.0,10.0,0.0,0.0,0.0,10.0,0.0,0.0,0.0,10.0,0.0645816564344,0.0191747598486,0.0933437962073,1.0,0.0,0.0,0.0,1.0,0.0,0.0,0.0,1.0,0.00598754882813,-1.22026245117,10.003996582,0.1,0.0,0.0,0.0,0.1,0.0,0.0,0.0,0.1
1446036927538305293,303,1446036927535201072,robocape,1.90069651395,6.77713992446,-13.1562410783,0.0,10.0,0.0,0.0,0.0,10.0,0.0,0.0,0.0,10.0,0.212253938879,0.0306263525359,0.00798948327024,1.0,0.0,0.0,0.0,1.0,0.0,0.0,0.0,1.0,0.0718505859375,-0.711320800781,9.95370117188,0.1,0.0,0.0,0.0,0.1,0.0,0.0,0.0,0.1
1446036927571609918,304,1446036927568321943,robocape,2.3512056259,6.81220803141,-13.1470972287,0.0,10.0,0.0,0.0,0.0,10.0,0.0,0.0,0.0,10.0,0.238219759508,0.0246342400832,-0.00825579937925,1.0,0.0,0.0,0.0,1.0,0.0,0.0,0.0,1.0,-0.0107775878906,-0.0179626464844,9.98842895508,0.1,0.0,0.0,0.0,0.1,0.0,0.0,0.0,0.1
1446036927604846126,305,1446036927601222038,robocape,2.82384103139,6.83452027673,-13.3999808628,0.0,10.0,0.0,0.0,0.0,10.0,0.0,0.0,0.0,10.0,0.267115057335,0.0127831732324,-0.146473859954,1.0,0.0,0.0,0.0,1.0,0.0,0.0,0.0,1.0,-1.02626586914,0.659827880859,10.1021923828,0.1,0.0,0.0,0.0,0.1,0.0,0.0,0.0,0.1
1446036927637680918,306,1446036927634524106,robocape,2.99347629419,6.8488863888,-13.6619184803,0.0,10.0,0.0,0.0,0.0,10.0,0.0,0.0,0.0,10.0,0.109189604693,0.00745685105222,-0.151001233807,1.0,0.0,0.0,0.0,1.0,0.0,0.0,0.0,1.0,-1.98786621094,1.73638916016,10.2650537109,0.1,0.0,0.0,0.0,0.1,0.0,0.0,0.0,0.1
1446036927670128252,307,1446036927666932106,robocape,2.64145659338,6.8056557127,-13.6802348715,0.0,10.0,0.0,0.0,0.0,10.0,0.0,0.0,0.0,10.0,-0.180296005798,-0.017710021249,-0.0199737081756,1.0,0.0,0.0,0.0,1.0,0.0,0.0,0.0,1.0,-3.77574829102,0.0371228027344,10.3572619629,0.1,0.0,0.0,0.0,0.1,0.0,0.0,0.0,0.1
1446036927703366835,308,1446036927700196027,robocape,2.31396520091,6.77725854697,-13.8622728439,0.0,10.0,0.0,0.0,0.0,10.0,0.0,0.0,0.0,10.0,-0.157259662369,-0.0129163312869,-0.107059075821,1.0,0.0,0.0,0.0,1.0,0.0,0.0,0.0,1.0,-4.97325805664,-0.0634680175781,10.5871838379,0.1,0.0,0.0,0.0,0.1,0.0,0.0,0.0,0.1
1446036927737251460,309,1446036927733849048,robocape,1.84446121257,6.7476628822,-14.2425749744,0.0,10.0,0.0,0.0,0.0,10.0,0.0,0.0,0.0,10.0,-0.219577631877,-0.0159789665405,-0.21198762277,1.0,0.0,0.0,0.0,1.0,0.0,0.0,0.0,1.0,-4.96248046875,0.852626953125,10.0662670898,0.1,0.0,0.0,0.0,0.1,0.0,0.0,0.0,0.1
1446036927769639752,310,1446036927766576051,robocape,0.923308915083,6.68893531667,-14.4216093648,0.0,10.0,0.0,0.0,0.0,10.0,0.0,0.0,0.0,10.0,-0.46978161629,-0.0272974011733,-0.105194863058,1.0,0.0,0.0,0.0,1.0,0.0,0.0,0.0,1.0,-7.37666015625,1.31726074219,10.9045239258,0.1,0.0,0.0,0.0,0.1,0.0,0.0,0.0,0.1
1446036927802844293,311,1446036927799832105,robocape,-0.266998970032,6.8469328299,-14.9353905645,0.0,10.0,0.0,0.0,0.0,10.0,0.0,0.0,0.0,10.0,-0.590822287834,0.0889495804086,-0.284958236638,1.0,0.0,0.0,0.0,1.0,0.0,0.0,0.0,1.0,-6.75754760742,0.17244140625,11.7535583496,0.1,0.0,0.0,0.0,0.1,0.0,0.0,0.0,0.1
1446036927836014252,312,1446036927832964897,robocape,-1.36606260728,6.73425691486,-15.8033110375,0.0,10.0,0.0,0.0,0.0,10.0,0.0,0.0,0.0,10.0,-0.522245889765,-0.0432763677138,-0.473776357925,1.0,0.0,0.0,0.0,1.0,0.0,0.0,0.0,1.0,-7.2425390625,-0.111368408203,10.2183508301,0.1,0.0,0.0,0.0,0.1,0.0,0.0,0.0,0.1
1446036927869147168,313,1446036927866101980,robocape,-2.94284966544,6.89481676473,-16.5678546522,0.0,10.0,0.0,0.0,0.0,10.0,0.0,0.0,0.0,10.0,-0.780971989666,0.109455920802,-0.418515765306,1.0,0.0,0.0,0.0,1.0,0.0,0.0,0.0,1.0,-7.14075073242,1.69567382813,12.7331213379,0.1,0.0,0.0,0.0,0.1,0.0,0.0,0.0,0.1
1446036927902416710,314,1446036927899297952,robocape,-5.36748284717,6.80107157281,-16.5917325965,0.0,10.0,0.0,0.0,0.0,10.0,0.0,0.0,0.0,10.0,-1.27312415911,-0.0399474163512,-0.0344879361165,1.0,0.0,0.0,0.0,1.0,0.0,0.0,0.0,1.0,-8.11432617187,1.56873779297,8.73224121094,0.1,0.0,0.0,0.0,0.1,0.0,0.0,0.0,0.1
1446036927935565418,315,1446036927932537078,robocape,-8.26078939694,6.79456107867,-16.698200571,0.0,10.0,0.0,0.0,0.0,10.0,0.0,0.0,0.0,10.0,-1.51973287605,0.0147805440499,-0.0805606229749,1.0,0.0,0.0,0.0,1.0,0.0,0.0,0.0,1.0,-8.9250402832,0.8813671875,11.2877270508,0.1,0.0,0.0,0.0,0.1,0.0,0.0,0.0,0.1
1446036927968769002,316,1446036927965763092,robocape,-12.0452380196,6.60037211031,-16.6560485317,0.0,10.0,0.0,0.0,0.0,10.0,0.0,0.0,0.0,10.0,-2.00709135554,-0.0882837901361,-0.0291616139364,1.0,0.0,0.0,0.0,1.0,0.0,0.0,0.0,1.0,-7.0928503418,1.96870605469,8.61129272461,0.1,0.0,0.0,0.0,0.1,0.0,0.0,0.0,0.1
1446036928002551960,317,1446036927999326944,robocape,-16.5429608403,6.79569317699,-16.7176765863,0.0,10.0,0.0,0.0,0.0,10.0,0.0,0.0,0.0,10.0,-2.40083972271,0.133690686722,-0.0556600667827,1.0,0.0,0.0,0.0,1.0,0.0,0.0,0.0,1.0,-7.78740600586,0.643062744141,9.97645385742,0.1,0.0,0.0,0.0,0.1,0.0,0.0,0.0,0.1
1446036928035545627,318,1446036928032517910,robocape,-22.2476351561,6.59314382326,-16.7048788901,0.0,10.0,0.0,0.0,0.0,10.0,0.0,0.0,0.0,10.0,-3.08979949671,-0.0601874406358,-0.103064334186,1.0,0.0,0.0,0.0,1.0,0.0,0.0,0.0,1.0,-7.17308349609,1.76393188477,8.60051513672,0.1,0.0,0.0,0.0,0.1,0.0,0.0,0.0,0.1
1446036928068872627,319,1446036928065857887,robocape,-29.4755608832,6.77300041242,-16.646224324,0.0,10.0,0.0,0.0,0.0,10.0,0.0,0.0,0.0,10.0,-4.00992165333,0.147139650227,-0.0471379512944,1.0,0.0,0.0,0.0,1.0,0.0,0.0,0.0,1.0,-2.39980957031,3.09915527344,6.96711181641,0.1,0.0,0.0,0.0,0.1,0.0,0.0,0.0,0.1
1446036928102114418,320,1446036928098942041,robocape,-32.110533546,6.33360353388,-19.8471671985,0.0,10.0,0.0,0.0,0.0,10.0,0.0,0.0,0.0,10.0,-1.39296640817,0.736097725298,-1.66554094574,1.0,0.0,0.0,0.0,1.0,0.0,0.0,0.0,1.0,4.32540527344,-19.62,15.7041430664,0.1,0.0,0.0,0.0,0.1,0.0,0.0,0.0,0.1
1446036928135948127,321,1446036928132838010,robocape,-30.3916406186,6.95838877859,-25.0717058511,0.0,10.0,0.0,0.0,0.0,10.0,0.0,0.0,0.0,10.0,1.11999239643,1.74104156264,-2.22866635823,1.0,0.0,0.0,0.0,1.0,0.0,0.0,0.0,1.0,-3.78053833008,-6.14322509766,9.44475952148,0.1,0.0,0.0,0.0,0.1,0.0,0.0,0.0,0.1
1446036928168868460,322,1446036928165741920,robocape,-28.6937923403,7.40917137791,-28.1039891604,0.0,10.0,0.0,0.0,0.0,10.0,0.0,0.0,0.0,10.0,1.01612911392,1.02345280692,-1.32225948122,1.0,0.0,0.0,0.0,1.0,0.0,0.0,0.0,1.0,-11.1200756836,0.552052001953,8.56818237305,0.1,0.0,0.0,0.0,0.1,0.0,0.0,0.0,0.1
1446036928202320043,323,1446036928199100971,robocape,-28.6513769277,8.22887499744,-29.1147886966,0.0,10.0,0.0,0.0,0.0,10.0,0.0,0.0,0.0,10.0,0.017177389031,0.673247123572,-0.331164081551,1.0,0.0,0.0,0.0,1.0,0.0,0.0,0.0,1.0,-1.79386962891,3.25243652344,12.2349572754,0.1,0.0,0.0,0.0,0.1,0.0,0.0,0.0,0.1
1446036928236398835,324,1446036928233177900,robocape,-31.0126890966,8.64931931641,-29.1212470818,0.0,10.0,0.0,0.0,0.0,10.0,0.0,0.0,0.0,10.0,-1.36566900699,0.263919264027,-0.0139815957229,1.0,0.0,0.0,0.0,1.0,0.0,0.0,0.0,1.0,-1.68489624023,3.59133178711,6.84496582031,0.1,0.0,0.0,0.0,0.1,0.0,0.0,0.0,0.1
1446036928268934418,325,1446036928265836954,robocape,-33.2056793925,8.50586422855,-30.0080706925,0.0,10.0,0.0,0.0,0.0,10.0,0.0,0.0,0.0,10.0,-1.25235150261,0.275104540605,-0.583365436782,1.0,0.0,0.0,0.0,1.0,0.0,0.0,0.0,1.0,0.449066162109,-10.2111657715,11.5918945313,0.1,0.0,0.0,0.0,0.1,0.0,0.0,0.0,0.1
1446036928302460418,326,1446036928299434900,robocape,-32.6053297961,8.72614328414,-32.0405641677,0.0,10.0,0.0,0.0,0.0,10.0,0.0,0.0,0.0,10.0,0.36365464685,0.735964567243,-0.926646901293,1.0,0.0,0.0,0.0,1.0,0.0,0.0,0.0,1.0,-2.01421142578,-6.73120239258,13.0145361328,0.1,0.0,0.0,0.0,0.1,0.0,0.0,0.0,0.1
1446036928335618585,327,1446036928332519054,robocape,-32.2062956911,9.30472191654,-33.3398404105,0.0,10.0,0.0,0.0,0.0,10.0,0.0,0.0,0.0,10.0,0.219710789932,0.677508181316,-0.503071129916,1.0,0.0,0.0,0.0,1.0,0.0,0.0,0.0,1.0,-5.03073852539,-0.36404296875,7.82812133789,0.1,0.0,0.0,0.0,0.1,0.0,0.0,0.0,0.1
1446036928374791002,328,1446036928365691900,robocape,-32.4821367434,9.31398828827,-34.389357055,0.0,10.0,0.0,0.0,0.0,10.0,0.0,0.0,0.0,10.0,-0.170708625874,0.369247285139,-0.578704904874,1.0,0.0,0.0,0.0,1.0,0.0,0.0,0.0,1.0,1.13164672852,-0.668210449219,8.33586547852,0.1,0.0,0.0,0.0,0.1,0.0,0.0,0.0,0.1
1446036928403480419,329,1446036928400408983,robocape,-32.9033227399,9.5516524808,-35.4458501434,0.0,10.0,0.0,0.0,0.0,10.0,0.0,0.0,0.0,10.0,-0.254864516321,0.482564789522,-0.528238002217,1.0,0.0,0.0,0.0,1.0,0.0,0.0,0.0,1.0,2.20222045898,-1.27295288086,9.24238037109,0.1,0.0,0.0,0.0,0.1,0.0,0.0,0.0,0.1
1446036928435797752,330,1446036928432573080,robocape,-33.139362984,9.4527920728,-36.2639076185,0.0,10.0,0.0,0.0,0.0,10.0,0.0,0.0,0.0,10.0,-0.165648619803,0.262587683482,-0.508530610151,1.0,0.0,0.0,0.0,1.0,0.0,0.0,0.0,1.0,-0.576002197266,-1.58430541992,7.34791992188,0.1,0.0,0.0,0.0,0.1,0.0,0.0,0.0,0.1
1446036928468576377,331,1446036928465528011,robocape,-33.0875342101,9.30998411522,-37.2240262667,0.0,10.0,0.0,0.0,0.0,10.0,0.0,0.0,0.0,10.0,-0.00106526443603,0.283626656093,-0.583631752891,1.0,0.0,0.0,0.0,1.0,0.0,0.0,0.0,1.0,-2.18665283203,-3.15424072266,11.2565917969,0.1,0.0,0.0,0.0,0.1,0.0,0.0,0.0,0.1
1446036928502141585,332,1446036928499149084,robocape,-33.4334853877,9.49407195865,-37.9434811635,0.0,10.0,0.0,0.0,0.0,10.0,0.0,0.0,0.0,10.0,-0.237287653126,0.36511938545,-0.395213105768,1.0,0.0,0.0,0.0,1.0,0.0,0.0,0.0,1.0,2.40579711914,-2.12797485352,8.08319091797,0.1,0.0,0.0,0.0,0.1,0.0,0.0,0.0,0.1
1446036928535674710,333,1446036928532602071,robocape,-33.4579976243,9.45620588918,-38.9099359594,0.0,10.0,0.0,0.0,0.0,10.0,0.0,0.0,0.0,10.0,-0.0484695318394,0.34234935813,-0.570715421604,1.0,0.0,0.0,0.0,1.0,0.0,0.0,0.0,1.0,5.62230834961,-4.65831298828,9.47709228516,0.1,0.0,0.0,0.0,0.1,0.0,0.0,0.0,0.1
1446036928568573752,334,1446036928565521955,robocape,-33.1372143579,9.56281581048,-39.9729638631,0.0,10.0,0.0,0.0,0.0,10.0,0.0,0.0,0.0,10.0,0.148870704935,0.429035251612,-0.567785944405,1.0,0.0,0.0,0.0,1.0,0.0,0.0,0.0,1.0,-1.01908081055,-3.72904541016,10.075847168,0.1,0.0,0.0,0.0,0.1,0.0,0.0,0.0,0.1
1446036928603103252,335,1446036928599701881,robocape,-32.771722843,9.68454460861,-41.085346322,0.0,10.0,0.0,0.0,0.0,10.0,0.0,0.0,0.0,10.0,0.176168106109,0.45087317255,-0.595882293905,1.0,0.0,0.0,0.0,1.0,0.0,0.0,0.0,1.0,0.969982910156,-5.47740966797,9.49385742188,0.1,0.0,0.0,0.0,0.1,0.0,0.0,0.0,0.1
1446036928635822210,336,1446036928632317066,robocape,-32.2476493414,9.93055214733,-42.4616251545,0.0,10.0,0.0,0.0,0.0,10.0,0.0,0.0,0.0,10.0,0.278034017804,0.584963333436,-0.696816099219,1.0,0.0,0.0,0.0,1.0,0.0,0.0,0.0,1.0,2.92910888672,-0.882564697266,10.2267333984,0.1,0.0,0.0,0.0,0.1,0.0,0.0,0.0,0.1
1446036928669201044,337,1446036928665744066,robocape,-32.4956810475,10.1558734077,-43.372480869,0.0,10.0,0.0,0.0,0.0,10.0,0.0,0.0,0.0,10.0,-0.174303893346,0.453270017531,-0.517319041748,1.0,0.0,0.0,0.0,1.0,0.0,0.0,0.0,1.0,1.78907958984,-0.429906005859,10.2925964355,0.1,0.0,0.0,0.0,0.1,0.0,0.0,0.0,0.1
1446036928702592044,338,1446036928699098110,robocape,-32.986820667,10.2566073086,-44.2890507555,0.0,10.0,0.0,0.0,0.0,10.0,0.0,0.0,0.0,10.0,-0.313054586139,0.413988391453,-0.57444384713,1.0,0.0,0.0,0.0,1.0,0.0,0.0,0.0,1.0,2.90994873047,-4.29067749023,12.8588598633,0.1,0.0,0.0,0.0,0.1,0.0,0.0,0.0,0.1
1446036928739253377,339,1446036928735977888,robocape,-33.9807529583,9.32667984522,-43.888756904,0.0,10.0,0.0,0.0,0.0,10.0,0.0,0.0,0.0,10.0,-0.659132369795,-0.44288368928,-0.242747133361,1.0,0.0,0.0,0.0,1.0,0.0,0.0,0.0,1.0,3.22848632813,1.02746337891,5.02594848633,0.1,0.0,0.0,0.0,0.1,0.0,0.0,0.0,0.1
1446036928771301252,340,1446036928768017053,robocape,-34.9133394516,9.56518994363,-44.8903064714,0.0,10.0,0.0,0.0,0.0,10.0,0.0,0.0,0.0,10.0,-0.580435959583,0.530368531089,-0.600809141922,1.0,0.0,0.0,0.0,1.0,0.0,0.0,0.0,1.0,-0.213156738281,-5.16605712891,1.38432128906,0.1,0.0,0.0,0.0,0.1,0.0,0.0,0.0,0.1
1446036928828253544,341,1446036928800508022,robocape,-32.9061930513,11.1459989115,-50.0360107008,0.0,10.0,0.0,0.0,0.0,10.0,0.0,0.0,0.0,10.0,1.27445573966,2.42480817252,-2.16834575954,1.0,0.0,0.0,0.0,1.0,0.0,0.0,0.0,1.0,-2.68122436523,-6.09412719727,19.1098608398,0.1,0.0,0.0,0.0,0.1,0.0,0.0,0.0,0.1
1446036928851465627,342,1446036928848268985,robocape,-29.0234375416,10.7688844983,-53.4792148933,0.0,10.0,0.0,0.0,0.0,10.0,0.0,0.0,0.0,10.0,2.24304742812,0.900681080665,-1.91840809124,1.0,0.0,0.0,0.0,1.0,0.0,0.0,0.0,1.0,1.50526977539,-1.9196081543,7.91434204102,0.1,0.0,0.0,0.0,0.1,0.0,0.0,0.0,0.1
1446036928874238169,343,1446036928870448112,robocape,-24.6062333063,10.760084341,-56.8040108069,0.0,10.0,0.0,0.0,0.0,10.0,0.0,0.0,0.0,10.0,2.52134776203,0.937033229544,-1.88898016119,1.0,0.0,0.0,0.0,1.0,0.0,0.0,0.0,1.0,-2.69080444336,-2.7626550293,10.0734521484,0.1,0.0,0.0,0.0,0.1,0.0,0.0,0.0,0.1
1446036928902419419,344,1446036928899431943,robocape,-19.1567104928,10.7855012302,-59.9441897848,0.0,10.0,0.0,0.0,0.0,10.0,0.0,0.0,0.0,10.0,3.07741579764,0.783901466865,-1.90961965964,1.0,0.0,0.0,0.0,1.0,0.0,0.0,0.0,1.0,4.01285522461,-2.09683959961,9.13580200195,0.1,0.0,0.0,0.0,0.1,0.0,0.0,0.0,0.1
1446036928935520044,345,1446036928932401895,robocape,-12.4531764173,10.9170039366,-62.8699879859,0.0,10.0,0.0,0.0,0.0,10.0,0.0,0.0,0.0,10.0,3.76038345919,0.648213409325,-1.93318863529,1.0,0.0,0.0,0.0,1.0,0.0,0.0,0.0,1.0,-0.0646655273438,-1.82260986328,8.96096557617,0.1,0.0,0.0,0.0,0.1,0.0,0.0,0.0,0.1
1446036928970188960,346,1446036928967060089,robocape,-4.63143683854,10.7302923321,-65.2975494187,0.0,10.0,0.0,0.0,0.0,10.0,0.0,0.0,0.0,10.0,4.36318997193,0.247807139432,-1.85555748951,1.0,0.0,0.0,0.0,1.0,0.0,0.0,0.0,1.0,-0.567619628906,-1.11607910156,5.05947875977,0.1,0.0,0.0,0.0,0.1,0.0,0.0,0.0,0.1
1446036929003503669,347,1446036929000411033,robocape,3.18772454351,10.6340621571,-66.9766253973,0.0,10.0,0.0,0.0,0.0,10.0,0.0,0.0,0.0,10.0,4.36318997193,0.0900148448447,-1.57525978478,1.0,0.0,0.0,0.0,1.0,0.0,0.0,0.0,1.0,1.85733764648,-0.825084228516,5.13372436523,0.1,0.0,0.0,0.0,0.1,0.0,0.0,0.0,0.1
1446036929036198002,348,1446036929033051967,robocape,11.0098642747,10.3143642092,-67.8332078179,0.0,10.0,0.0,0.0,0.0,10.0,0.0,0.0,0.0,10.0,4.36318997193,-0.141147537774,-1.17445404072,1.0,0.0,0.0,0.0,1.0,0.0,0.0,0.0,1.0,-2.47884521484,-0.318537597656,0.520916748047,0.1,0.0,0.0,0.0,0.1,0.0,0.0,0.0,0.1
1446036929069025086,349,1446036929065972089,robocape,18.8423034015,9.94527016017,-67.8368987008,0.0,10.0,0.0,0.0,0.0,10.0,0.0,0.0,0.0,10.0,4.36318997193,-0.16231966844,-0.723714026229,1.0,0.0,0.0,0.0,1.0,0.0,0.0,0.0,1.0,-3.32907714844,-0.0431103515625,1.04542602539,0.1,0.0,0.0,0.0,0.1,0.0,0.0,0.0,0.1
1446036929103814002,350,1446036929100590944,robocape,26.9924053812,9.82499849552,-66.039618642,0.0,10.0,0.0,0.0,0.0,10.0,0.0,0.0,0.0,10.0,4.36318997193,0.286955607456,0.30333404816,1.0,0.0,0.0,0.0,1.0,0.0,0.0,0.0,1.0,8.43885131836,19.6194012451,8.53584960938,0.1,0.0,0.0,0.0,0.1,0.0,0.0,0.0,0.1
1446036929137930502,351,1446036929134406089,robocape,28.7831049464,12.4416605295,-60.767186169,0.0,10.0,0.0,0.0,0.0,10.0,0.0,0.0,0.0,10.0,0.194011285412,2.49964299915,2.2009694829,1.0,0.0,0.0,0.0,1.0,0.0,0.0,0.0,1.0,14.2611437988,19.6194012451,18.4991308594,0.1,0.0,0.0,0.0,0.1,0.0,0.0,0.0,0.1
1446036929169563169,352,1446036929166388034,robocape,24.9307862904,14.7518824954,-55.5829519297,0.0,10.0,0.0,0.0,0.0,10.0,0.0,0.0,0.0,10.0,-3.08886739033,2.2808643156,2.72161747601,1.0,0.0,0.0,0.0,1.0,0.0,0.0,0.0,1.0,-2.52195556641,7.28924194336,6.99585205078,0.1,0.0,0.0,0.0,0.1,0.0,0.0,0.0,0.1
1446036929203164294,353,1446036929199831008,robocape,20.7982202612,16.2746551987,-52.6676676898,0.0,10.0,0.0,0.0,0.0,10.0,0.0,0.0,0.0,10.0,-2.79232440295,1.27711890075,1.52319498547,1.0,0.0,0.0,0.0,1.0,0.0,0.0,0.0,1.0,-7.75267822266,0.403560791016,5.95282104492,0.1,0.0,0.0,0.0,0.1,0.0,0.0,0.0,0.1
1446036929242431627,354,1446036929238487958,robocape,17.7323236236,16.6705329705,-51.1130214205,0.0,10.0,0.0,0.0,0.0,10.0,0.0,0.0,0.0,10.0,-1.92799547116,0.429168409666,0.876712630854,1.0,0.0,0.0,0.0,1.0,0.0,0.0,0.0,1.0,-2.4177722168,-0.583187255859,6.32045654297,0.1,0.0,0.0,0.0,0.1,0.0,0.0,0.0,0.1
1446036929268579877,355,1446036929265507936,robocape,15.7087787972,17.0734189694,-50.0613221092,0.0,10.0,0.0,0.0,0.0,10.0,0.0,0.0,0.0,10.0,-1.24223149047,0.345145677274,0.498543756063,1.0,0.0,0.0,0.0,1.0,0.0,0.0,0.0,1.0,3.19974609375,0.526904296875,11.1727661133,0.1,0.0,0.0,0.0,0.1,0.0,0.0,0.0,0.1
1446036929302149544,356,1446036929299077033,robocape,14.5948438375,17.4039145275,-49.1991037599,0.0,10.0,0.0,0.0,0.0,10.0,0.0,0.0,0.0,10.0,-0.70866716607,0.283626656093,0.3503388414,1.0,0.0,0.0,0.0,1.0,0.0,0.0,0.0,1.0,4.90380249023,-0.00598754882813,10.3788171387,0.1,0.0,0.0,0.0,0.1,0.0,0.0,0.0,0.1
1446036929336050502,357,1446036929332441091,robocape,14.3064094937,17.5097248253,-48.5095245193,0.0,10.0,0.0,0.0,0.0,10.0,0.0,0.0,0.0,10.0,-0.230363434292,0.154063869061,0.249138719977,1.0,0.0,0.0,0.0,1.0,0.0,0.0,0.0,1.0,-1.92559570313,0.0969982910156,7.96583496094,0.1,0.0,0.0,0.0,0.1,0.0,0.0,0.0,0.1
1446036929374673127,358,1446036929365741014,robocape,14.9023010402,17.9038952701,-47.718677639,0.0,10.0,0.0,0.0,0.0,10.0,0.0,0.0,0.0,10.0,0.23475765009,0.324373020772,0.215449732187,1.0,0.0,0.0,0.0,1.0,0.0,0.0,0.0,1.0,-1.77830200195,0.616717529297,11.8194213867,0.1,0.0,0.0,0.0,0.1,0.0,0.0,0.0,0.1
1446036929403318419,359,1446036929400036096,robocape,16.2947899321,17.9186931346,-47.1311149811,0.0,10.0,0.0,0.0,0.0,10.0,0.0,0.0,0.0,10.0,0.706403479144,0.120641197381,0.123703832634,1.0,0.0,0.0,0.0,1.0,0.0,0.0,0.0,1.0,-0.105380859375,0.519719238281,9.23040527344,0.1,0.0,0.0,0.0,0.1,0.0,0.0,0.0,0.1
1446036929436286461,360,1446036929432472944,robocape,18.6982022688,18.2171762696,-46.3519797916,0.0,10.0,0.0,0.0,0.0,10.0,0.0,0.0,0.0,10.0,1.23703832634,0.311057215321,0.116513297691,1.0,0.0,0.0,0.0,1.0,0.0,0.0,0.0,1.0,-1.79626464844,0.667012939453,10.2147583008,0.1,0.0,0.0,0.0,0.1,0.0,0.0,0.0,0.1
1446036929468902877,361,1446036929465740919,robocape,22.0055861722,18.1942600731,-45.5687477299,0.0,10.0,0.0,0.0,0.0,10.0,0.0,0.0,0.0,10.0,1.75062894256,0.176168106109,0.116380139636,1.0,0.0,0.0,0.0,1.0,0.0,0.0,0.0,1.0,-2.15312255859,0.247884521484,7.79938110352,0.1,0.0,0.0,0.0,0.1,0.0,0.0,0.0,0.1
1446036929502257127,362,1446036929499119997,robocape,26.2207642619,18.3859915248,-44.5593392161,0.0,10.0,0.0,0.0,0.0,10.0,0.0,0.0,0.0,10.0,2.25849376244,0.357928850507,0.0914795834442,1.0,0.0,0.0,0.0,1.0,0.0,0.0,0.0,1.0,-1.1532019043,0.742456054688,11.6685351562,0.1,0.0,0.0,0.0,0.1,0.0,0.0,0.0,0.1
1446036929536026169,363,1446036929532398939,robocape,31.2868085528,18.1317815759,-43.5947328946,0.0,10.0,0.0,0.0,0.0,10.0,0.0,0.0,0.0,10.0,2.81136600474,0.177499686654,0.0772316716123,1.0,0.0,0.0,0.0,1.0,0.0,0.0,0.0,1.0,-0.450263671875,4.40204589844,7.62693969727,0.1,0.0,0.0,0.0,0.1,0.0,0.0,0.0,0.1
1446036929568479961,364,1446036929565471887,robocape,34.5991558254,18.0465540893,-41.2667991255,0.0,10.0,0.0,0.0,0.0,10.0,0.0,0.0,0.0,10.0,1.51746918913,0.618119689007,0.808136232785,1.0,0.0,0.0,0.0,1.0,0.0,0.0,0.0,1.0,-0.863404541016,18.6476220703,10.7105273437,0.1,0.0,0.0,0.0,0.1,0.0,0.0,0.0,0.1
1446036929602084002,365,1446036929598978996,robocape,34.3611974454,18.4246784006,-37.403618544,0.0,10.0,0.0,0.0,0.0,10.0,0.0,0.0,0.0,10.0,-0.9342369104,1.22079304369,1.66980200348,1.0,0.0,0.0,0.0,1.0,0.0,0.0,0.0,1.0,1.31007568359,12.5738525391,12.1774768066,0.1,0.0,0.0,0.0,0.1,0.0,0.0,0.0,0.1
1446036929635712836,366,1446036929632090091,robocape,32.8191971633,18.8881181609,-34.6500449941,0.0,10.0,0.0,0.0,0.0,10.0,0.0,0.0,0.0,10.0,-1.42625592179,0.924649530476,1.17472035683,1.0,0.0,0.0,0.0,1.0,0.0,0.0,0.0,1.0,-4.07273071289,0.898132324219,8.3574206543,0.1,0.0,0.0,0.0,0.1,0.0,0.0,0.0,0.1
1446036929669291127,367,1446036929666193008,robocape,32.1271273074,19.1756519596,-32.6392988364,0.0,10.0,0.0,0.0,0.0,10.0,0.0,0.0,0.0,10.0,-0.756204591528,0.648612883489,0.811465184147,1.0,0.0,0.0,0.0,1.0,0.0,0.0,0.0,1.0,-4.3649230957,1.31965576172,10.975177002,0.1,0.0,0.0,0.0,0.1,0.0,0.0,0.0,0.1
1446036929701901169,368,1446036929698865890,robocape,31.7248089303,19.1768682587,-31.0135014173,0.0,10.0,0.0,0.0,0.0,10.0,0.0,0.0,0.0,10.0,-0.509196400423,0.420513136124,0.701077156963,1.0,0.0,0.0,0.0,1.0,0.0,0.0,0.0,1.0,-3.98651000977,1.54239257813,10.172845459,0.1,0.0,0.0,0.0,0.1,0.0,0.0,0.0,0.1
1446036929736716128,369,1446036929732878923,robocape,31.6168131512,19.1895445861,-29.1915574365,0.0,10.0,0.0,0.0,0.0,10.0,0.0,0.0,0.0,10.0,-0.381231510045,0.475374254579,0.774180928886,1.0,0.0,0.0,0.0,1.0,0.0,0.0,0.0,1.0,-2.49201782227,2.07408691406,10.5009631348,0.1,0.0,0.0,0.0,0.1,0.0,0.0,0.0,0.1
1446036929768832836,370,1446036929765645980,robocape,31.5202941991,19.1111378028,-27.3097588698,0.0,10.0,0.0,0.0,0.0,10.0,0.0,0.0,0.0,10.0,-0.389220993315,0.447411063133,0.828775731233,1.0,0.0,0.0,0.0,1.0,0.0,0.0,0.0,1.0,1.95553344727,3.2224987793,12.9845983887,0.1,0.0,0.0,0.0,0.1,0.0,0.0,0.0,0.1
1446036929803080628,371,1446036929799087047,robocape,31.064627314,19.2531526877,-24.47850999,0.0,10.0,0.0,0.0,0.0,10.0,0.0,0.0,0.0,10.0,-0.795219901498,0.765791971452,1.21866251482,1.0,0.0,0.0,0.0,1.0,0.0,0.0,0.0,1.0,-1.8429675293,4.10745849609,10.9859545898,0.1,0.0,0.0,0.0,0.1,0.0,0.0,0.0,0.1
1446036929835754544,372,1446036929832159996,robocape,29.1530138811,19.108991814,-20.9640887151,0.0,10.0,0.0,0.0,0.0,10.0,0.0,0.0,0.0,10.0,-1.7710021249,0.736896673625,1.67885675119,1.0,0.0,0.0,0.0,1.0,0.0,0.0,0.0,1.0,-11.5475866699,6.54319335938,14.1318127441,0.1,0.0,0.0,0.0,0.1,0.0,0.0,0.0,0.1
1446036929869003169,373,1446036929865519046,robocape,24.5588626229,18.7945139639,-17.6635088898,0.0,10.0,0.0,0.0,0.0,10.0,0.0,0.0,0.0,10.0,-3.19020066981,0.473776357925,1.72040206419,1.0,0.0,0.0,0.0,1.0,0.0,0.0,0.0,1.0,-8.05924072266,4.43318115234,9.15256713867,0.1,0.0,0.0,0.0,0.1,0.0,0.0,0.0,0.1
1446036929902258878,374,1446036929898845911,robocape,18.8220995522,18.686991539,-15.4067531638,0.0,10.0,0.0,0.0,0.0,10.0,0.0,0.0,0.0,10.0,-3.53348213432,0.254198726048,1.19828933248,1.0,0.0,0.0,0.0,1.0,0.0,0.0,0.0,1.0,-9.93933105469,2.30760131836,7.90476196289,0.1,0.0,0.0,0.0,0.1,0.0,0.0,0.0,0.1
1446036929935574794,375,1446036929932214021,robocape,12.7159900293,18.6293486756,-14.0633524373,0.0,10.0,0.0,0.0,0.0,10.0,0.0,0.0,0.0,10.0,-3.49952683042,0.0711064011051,0.735831409189,1.0,0.0,0.0,0.0,1.0,0.0,0.0,0.0,1.0,-8.00295776367,-0.872984619141,8.26640991211,0.1,0.0,0.0,0.0,0.1,0.0,0.0,0.0,0.1
1446036929968821669,376,1446036929965436935,robocape,7.80399022193,18.4646658629,-14.4671231429,0.0,10.0,0.0,0.0,0.0,10.0,0.0,0.0,0.0,10.0,-2.52227986841,-0.147272808281,-0.156061239879,1.0,0.0,0.0,0.0,1.0,0.0,0.0,0.0,1.0,-5.54686523438,-4.42120605469,8.66757568359,0.1,0.0,0.0,0.0,0.1,0.0,0.0,0.0,0.1
1446036930004005711,377,1446036930001002073,robocape,6.44451914032,18.8854945177,-16.9282668519,0.0,10.0,0.0,0.0,0.0,10.0,0.0,0.0,0.0,10.0,-0.274838224496,0.112119081892,-1.28484206791,1.0,0.0,0.0,0.0,1.0,0.0,0.0,0.0,1.0,-2.2644909668,-5.68577636719,11.3128747559,0.1,0.0,0.0,0.0,0.1,0.0,0.0,0.0,0.1
1446036930037221794,378,1446036930033898115,robocape,8.29327037347,18.6986600839,-19.6943792741,0.0,10.0,0.0,0.0,0.0,10.0,0.0,0.0,0.0,10.0,1.47991861776,-0.207193932808,-1.42532381541,1.0,0.0,0.0,0.0,1.0,0.0,0.0,0.0,1.0,-6.25579101563,-3.45002563477,6.60666137695,0.1,0.0,0.0,0.0,0.1,0.0,0.0,0.0,0.1
1446036930070305753,379,1446036930066920042,robocape,12.9056497339,19.2508932871,-22.1285553391,0.0,10.0,0.0,0.0,0.0,10.0,0.0,0.0,0.0,10.0,2.93307246656,0.167379674511,-1.3805827091,1.0,0.0,0.0,0.0,1.0,0.0,0.0,0.0,1.0,-2.1423449707,-1.90044799805,11.378737793,0.1,0.0,0.0,0.0,0.1,0.0,0.0,0.0,0.1
1446036930103631461,380,1446036930100356101,robocape,19.0149322778,19.4645203594,-23.5858114049,0.0,10.0,0.0,0.0,0.0,10.0,0.0,0.0,0.0,10.0,3.62536119192,0.0311589847539,-0.913197937788,1.0,0.0,0.0,0.0,1.0,0.0,0.0,0.0,1.0,-4.96487548828,2.60697875977,5.64625854492,0.1,0.0,0.0,0.0,0.1,0.0,0.0,0.0,0.1
1446036930136547794,381,1446036930133322000,robocape,24.776975269,19.9717141635,-22.9762091147,0.0,10.0,0.0,0.0,0.0,10.0,0.0,0.0,0.0,10.0,3.11603163345,0.474708464307,-0.0106526443603,1.0,0.0,0.0,0.0,1.0,0.0,0.0,0.0,1.0,-7.66286499023,6.33003662109,11.2218640137,0.1,0.0,0.0,0.0,0.1,0.0,0.0,0.0,0.1
1446036930169258044,382,1446036930166078090,robocape,28.9047313661,19.7448434513,-21.2156532722,0.0,10.0,0.0,0.0,0.0,10.0,0.0,0.0,0.0,10.0,2.00336293001,0.359260431052,0.704272950271,1.0,0.0,0.0,0.0,1.0,0.0,0.0,0.0,1.0,-3.4105078125,7.01381469727,10.4255200195,0.1,0.0,0.0,0.0,0.1,0.0,0.0,0.0,0.1
1446036930202596878,383,1446036930199381113,robocape,30.5752261996,19.3598354565,-18.9613555661,0.0,10.0,0.0,0.0,0.0,10.0,0.0,0.0,0.0,10.0,0.531433795525,0.399740479621,1.02864597104,1.0,0.0,0.0,0.0,1.0,0.0,0.0,0.0,1.0,-3.10514282227,6.21747070313,10.4051623535,0.1,0.0,0.0,0.0,0.1,0.0,0.0,0.0,0.1
1446036930236316336,384,1446036930232958078,robocape,29.5001362398,19.2550185829,-16.5184227429,0.0,10.0,0.0,0.0,0.0,10.0,0.0,0.0,0.0,10.0,-1.05128284031,0.5262406314,1.11759555145,1.0,0.0,0.0,0.0,1.0,0.0,0.0,0.0,1.0,-4.3301953125,7.45090576172,16.283737793,0.1,0.0,0.0,0.0,0.1,0.0,0.0,0.0,0.1
1446036930268872003,385,1446036930265772104,robocape,27.4552822696,18.7702335407,-15.3279563148,0.0,10.0,0.0,0.0,0.0,10.0,0.0,0.0,0.0,10.0,-1.34502950854,0.0226368692657,0.686962403186,1.0,0.0,0.0,0.0,1.0,0.0,0.0,0.0,1.0,-4.11224853516,0.925675048828,7.64250732422,0.1,0.0,0.0,0.0,0.1,0.0,0.0,0.0,0.1
1446036930302342169,386,1446036930299204111,robocape,25.5099215862,18.9617353248,-14.6263662806,0.0,10.0,0.0,0.0,0.0,10.0,0.0,0.0,0.0,10.0,-1.16686403162,0.228632379583,0.286689291347,1.0,0.0,0.0,0.0,1.0,0.0,0.0,0.0,1.0,0.680185546875,1.59747802734,12.0182080078,0.1,0.0,0.0,0.0,0.1,0.0,0.0,0.0,0.1
1446036930335479544,387,1446036930332410097,robocape,23.7833897708,19.2339011462,-13.9917957656,0.0,10.0,0.0,0.0,0.0,10.0,0.0,0.0,0.0,10.0,-1.02758070661,0.251402406903,0.236355546745,1.0,0.0,0.0,0.0,1.0,0.0,0.0,0.0,1.0,-5.61991333008,0.814306640625,10.2387084961,0.1,0.0,0.0,0.0,0.1,0.0,0.0,0.0,0.1
1446036930374822544,388,1446036930365780115,robocape,22.7208178525,19.0245903014,-14.1315859776,0.0,10.0,0.0,0.0,0.0,10.0,0.0,0.0,0.0,10.0,-0.522911680037,-0.121972777926,-0.0270310850643,1.0,0.0,0.0,0.0,1.0,0.0,0.0,0.0,1.0,-3.09556274414,-0.530496826172,8.50830688477,0.1,0.0,0.0,0.0,0.1,0.0,0.0,0.0,0.1
1446036930402857711,389,1446036930399827003,robocape,23.1334992214,18.6560900471,-15.0263341142,0.0,10.0,0.0,0.0,0.0,10.0,0.0,0.0,0.0,10.0,0.427171038849,-0.314519324738,-0.376038345919,1.0,0.0,0.0,0.0,1.0,0.0,0.0,0.0,1.0,-3.41290283203,-1.31965576172,8.55860229492,0.1,0.0,0.0,0.0,0.1,0.0,0.0,0.0,0.1
1446036930436139503,390,1446036930433095932,robocape,24.9146903288,18.5355862273,-15.3416484828,0.0,10.0,0.0,0.0,0.0,10.0,0.0,0.0,0.0,10.0,1.08483867004,-0.0659132369795,-0.185888644088,1.0,0.0,0.0,0.0,1.0,0.0,0.0,0.0,1.0,0.0239501953125,1.25020019531,8.33466796875,0.1,0.0,0.0,0.0,0.1,0.0,0.0,0.0,0.1
