%time,field.header.seq,field.header.stamp,field.header.frame_id,field.orientation.x,field.orientation.y,field.orientation.z,field.orientation.w,field.orientation_covariance0,field.orientation_covariance1,field.orientation_covariance2,field.orientation_covariance3,field.orientation_covariance4,field.orientation_covariance5,field.orientation_covariance6,field.orientation_covariance7,field.orientation_covariance8,field.angular_velocity.x,field.angular_velocity.y,field.angular_velocity.z,field.angular_velocity_covariance0,field.angular_velocity_covariance1,field.angular_velocity_covariance2,field.angular_velocity_covariance3,field.angular_velocity_covariance4,field.angular_velocity_covariance5,field.angular_velocity_covariance6,field.angular_velocity_covariance7,field.angular_velocity_covariance8,field.linear_acceleration.x,field.linear_acceleration.y,field.linear_acceleration.z,field.linear_acceleration_covariance0,field.linear_acceleration_covariance1,field.linear_acceleration_covariance2,field.linear_acceleration_covariance3,field.linear_acceleration_covariance4,field.linear_acceleration_covariance5,field.linear_acceleration_covariance6,field.linear_acceleration_covariance7,field.linear_acceleration_covariance8
1446035887448204144,1,1446035887444742918,robocape,5.5666202453,7.85723593161,5.5666202453,0.0,10.0,0.0,0.0,0.0,10.0,0.0,0.0,0.0,10.0,0.00599211245268,0.0256995045193,0.00812264132474,1.0,0.0,0.0,0.0,1.0,0.0,0.0,0.0,1.0,0.0,0.00359252929688,10.0411193848,0.1,0.0,0.0,0.0,0.1,0.0,0.0,0.0,0.1
1446035887481246519,2,1446035887477936029,robocape,5.57248479947,7.88398161064,5.57248479947,0.0,10.0,0.0,0.0,0.0,10.0,0.0,0.0,0.0,10.0,0.00612527050718,0.0255663464648,0.00798948327024,1.0,0.0,0.0,0.0,1.0,0.0,0.0,0.0,1.0,0.009580078125,0.0143701171875,10.0315393066,0.1,0.0,0.0,0.0,0.1,0.0,0.0,0.0,0.1
1446035887514632644,3,1446035887511495113,robocape,5.57777988377,7.91074648519,5.57777988377,0.0,10.0,0.0,0.0,0.0,10.0,0.0,0.0,0.0,10.0,0.00585895439817,0.0255663464648,0.00772316716123,1.0,0.0,0.0,0.0,1.0,0.0,0.0,0.0,1.0,0.0179626464844,0.009580078125,10.0423168945,0.1,0.0,0.0,0.0,0.1,0.0,0.0,0.0,0.1
1446035887547782269,4,1446035887544590950,robocape,5.58359930411,7.93798729151,5.58359930411,0.0,10.0,0.0,0.0,0.0,10.0,0.0,0.0,0.0,10.0,0.00612527050718,0.0258326625738,0.00772316716123,1.0,0.0,0.0,0.0,1.0,0.0,0.0,0.0,1.0,0.0131726074219,0.0155676269531,10.0459094238,0.1,0.0,0.0,0.0,0.1,0.0,0.0,0.0,0.1
1446035887581369519,5,1446035887577967882,robocape,5.58984605521,7.9639831606,5.58984605521,0.0,10.0,0.0,0.0,0.0,10.0,0.0,0.0,0.0,10.0,0.00639158661619,0.0251668723012,0.00745685105222,1.0,0.0,0.0,0.0,1.0,0.0,0.0,0.0,1.0,0.0119750976563,-0.00119750976563,10.039921875,0.1,0.0,0.0,0.0,0.1,0.0,0.0,0.0,0.1
1446035887614436519,6,1446035887611449956,robocape,5.5967224816,7.99014271463,5.5967224816,0.0,10.0,0.0,0.0,0.0,10.0,0.0,0.0,0.0,10.0,0.0066579027252,0.0253000303558,0.00785632521573,1.0,0.0,0.0,0.0,1.0,0.0,0.0,0.0,1.0,0.009580078125,0.009580078125,10.0315393066,0.1,0.0,0.0,0.0,0.1,0.0,0.0,0.0,0.1
1446035887648064310,7,1446035887644802093,robocape,5.6016408906,8.01588727162,5.6016408906,0.0,10.0,0.0,0.0,0.0,10.0,0.0,0.0,0.0,10.0,0.00572579634367,0.0250337142467,0.00719053494321,1.0,0.0,0.0,0.0,1.0,0.0,0.0,0.0,1.0,0.0155676269531,0.0167651367188,10.0363293457,0.1,0.0,0.0,0.0,0.1,0.0,0.0,0.0,0.1
1446035887681756352,8,1446035887678098917,robocape,5.60408145628,8.04210606615,5.60408145628,0.0,10.0,0.0,0.0,0.0,10.0,0.0,0.0,0.0,10.0,0.00439421579863,0.0253000303558,0.00732369299772,1.0,0.0,0.0,0.0,1.0,0.0,0.0,0.0,1.0,0.0215551757813,0.0155676269531,10.0303417969,0.1,0.0,0.0,0.0,0.1,0.0,0.0,0.0,0.1
1446035887714653352,9,1446035887711369991,robocape,5.60467553584,8.06923886336,5.60467553584,0.0,10.0,0.0,0.0,0.0,10.0,0.0,0.0,0.0,10.0,0.0033289513626,0.0258326625738,0.00785632521573,1.0,0.0,0.0,0.0,1.0,0.0,0.0,0.0,1.0,0.0,0.009580078125,10.0506994629,0.1,0.0,0.0,0.0,0.1,0.0,0.0,0.0,0.1
1446035887748282269,10,1446035887744770050,robocape,5.60361160521,8.09568715742,5.60361160521,0.0,10.0,0.0,0.0,0.0,10.0,0.0,0.0,0.0,10.0,0.00253000303558,0.0254331884103,0.00732369299772,1.0,0.0,0.0,0.0,1.0,0.0,0.0,0.0,1.0,0.0167651367188,-0.00119750976563,10.019564209,0.1,0.0,0.0,0.0,0.1,0.0,0.0,0.0,0.1
1446035887782049019,11,1446035887778244018,robocape,5.60560418527,8.12159734291,5.60560418527,0.0,10.0,0.0,0.0,0.0,10.0,0.0,0.0,0.0,10.0,0.00412789968962,0.0251668723012,0.00732369299772,1.0,0.0,0.0,0.0,1.0,0.0,0.0,0.0,1.0,0.0107775878906,-0.00838256835938,10.039921875,0.1,0.0,0.0,0.0,0.1,0.0,0.0,0.0,0.1
1446035887814987977,12,1446035887811778068,robocape,5.60993391163,8.14770549062,5.60993391163,0.0,10.0,0.0,0.0,0.0,10.0,0.0,0.0,0.0,10.0,0.00532632218016,0.0253000303558,0.00745685105222,1.0,0.0,0.0,0.0,1.0,0.0,0.0,0.0,1.0,0.00718505859375,-0.0155676269531,10.0734521484,0.1,0.0,0.0,0.0,0.1,0.0,0.0,0.0,0.1
1446035887848040269,13,1446035887844724893,robocape,5.61687434487,8.17298153235,5.61687434487,0.0,10.0,0.0,0.0,0.0,10.0,0.0,0.0,0.0,10.0,0.0066579027252,0.0249005561922,0.00772316716123,1.0,0.0,0.0,0.0,1.0,0.0,0.0,0.0,1.0,0.00838256835938,0.0,10.0255517578,0.1,0.0,0.0,0.0,0.1,0.0,0.0,0.0,0.1
1446035887881692602,14,1446035887878166913,robocape,5.6258627542,8.19947963188,5.6258627542,0.0,10.0,0.0,0.0,0.0,10.0,0.0,0.0,0.0,10.0,0.00772316716123,0.0255663464648,0.00772316716123,1.0,0.0,0.0,0.0,1.0,0.0,0.0,0.0,1.0,0.00239501953125,-0.00239501953125,10.0363293457,0.1,0.0,0.0,0.0,0.1,0.0,0.0,0.0,0.1
1446035887914963602,15,1446035887911825895,robocape,5.63251091108,8.22700902238,5.63251091108,0.0,10.0,0.0,0.0,0.0,10.0,0.0,0.0,0.0,10.0,0.00652474467069,0.0260989786828,0.00745685105222,1.0,0.0,0.0,0.0,1.0,0.0,0.0,0.0,1.0,0.0,0.009580078125,10.0363293457,0.1,0.0,0.0,0.0,0.1,0.0,0.0,0.0,0.1
1446035887947754936,16,1446035887944674968,robocape,5.63571704167,8.25296025513,5.63571704167,0.0,10.0,0.0,0.0,0.0,10.0,0.0,0.0,0.0,10.0,0.00466053190764,0.0253000303558,0.00785632521573,1.0,0.0,0.0,0.0,1.0,0.0,0.0,0.0,1.0,0.00718505859375,0.0167651367188,10.0518969727,0.1,0.0,0.0,0.0,0.1,0.0,0.0,0.0,0.1
1446035887981394811,17,1446035887978063106,robocape,5.63720657813,8.27913102083,5.63720657813,0.0,10.0,0.0,0.0,0.0,10.0,0.0,0.0,0.0,10.0,0.00372842552611,0.0254331884103,0.00798948327024,1.0,0.0,0.0,0.0,1.0,0.0,0.0,0.0,1.0,0.0239501953125,0.0143701171875,10.0459094238,0.1,0.0,0.0,0.0,0.1,0.0,0.0,0.0,0.1
1446035888015948019,18,1446035888012748956,robocape,5.63663670613,8.30430875129,5.63663670613,0.0,10.0,0.0,0.0,0.0,10.0,0.0,0.0,0.0,10.0,0.00266316109008,0.0249005561922,0.00785632521573,1.0,0.0,0.0,0.0,1.0,0.0,0.0,0.0,1.0,0.0167651367188,0.0047900390625,10.0459094238,0.1,0.0,0.0,0.0,0.1,0.0,0.0,0.0,0.1
1446035888048955227,19,1446035888044779062,robocape,5.6375338159,8.32975429509,5.6375338159,0.0,10.0,0.0,0.0,0.0,10.0,0.0,0.0,0.0,10.0,0.0034621094171,0.0250337142467,0.00759000910673,1.0,0.0,0.0,0.0,1.0,0.0,0.0,0.0,1.0,0.009580078125,-0.0107775878906,10.0495019531,0.1,0.0,0.0,0.0,0.1,0.0,0.0,0.0,0.1
1446035888082536602,20,1446035888079256057,robocape,5.64252993541,8.35438360744,5.64252993541,0.0,10.0,0.0,0.0,0.0,10.0,0.0,0.0,0.0,10.0,0.00559263828917,0.0246342400832,0.00772316716123,1.0,0.0,0.0,0.0,1.0,0.0,0.0,0.0,1.0,0.00119750976563,-0.01916015625,10.0255517578,0.1,0.0,0.0,0.0,0.1,0.0,0.0,0.0,0.1
1446035888115775477,21,1446035888112715005,robocape,5.64985636534,8.37920997136,5.64985636534,0.0,10.0,0.0,0.0,0.0,10.0,0.0,0.0,0.0,10.0,0.0067910607797,0.0247673981377,0.00785632521573,1.0,0.0,0.0,0.0,1.0,0.0,0.0,0.0,1.0,-0.00119750976563,-0.009580078125,10.0291442871,0.1,0.0,0.0,0.0,0.1,0.0,0.0,0.0,0.1
1446035888150227852,22,1446035888146559000,robocape,5.65646969837,8.40589924532,5.65646969837,0.0,10.0,0.0,0.0,0.0,10.0,0.0,0.0,0.0,10.0,0.00652474467069,0.0256995045193,0.00705737688871,1.0,0.0,0.0,0.0,1.0,0.0,0.0,0.0,1.0,0.0167651367188,0.00119750976563,10.0542919922,0.1,0.0,0.0,0.0,0.1,0.0,0.0,0.0,0.1
1446035888183576811,23,1446035888179972887,robocape,5.66152228522,8.43322116768,5.66152228522,0.0,10.0,0.0,0.0,0.0,10.0,0.0,0.0,0.0,10.0,0.00559263828917,0.0260989786828,0.00772316716123,1.0,0.0,0.0,0.0,1.0,0.0,0.0,0.0,1.0,0.0239501953125,0.0047900390625,10.0435144043,0.1,0.0,0.0,0.0,0.1,0.0,0.0,0.0,0.1
1446035888216299769,24,1446035888212920904,robocape,5.66242173044,8.45806864355,5.66242173044,0.0,10.0,0.0,0.0,0.0,10.0,0.0,0.0,0.0,10.0,0.0034621094171,0.0247673981377,0.00745685105222,1.0,0.0,0.0,0.0,1.0,0.0,0.0,0.0,1.0,0.00239501953125,-0.00598754882813,10.0411193848,0.1,0.0,0.0,0.0,0.1,0.0,0.0,0.0,0.1
1446035888252746519,25,1446035888248409986,robocape,5.6612439224,8.48370538036,5.6612439224,0.0,10.0,0.0,0.0,0.0,10.0,0.0,0.0,0.0,10.0,0.00239684498107,0.0251668723012,0.00719053494321,1.0,0.0,0.0,0.0,1.0,0.0,0.0,0.0,1.0,0.0047900390625,0.00598754882813,10.0483044434,0.1,0.0,0.0,0.0,0.1,0.0,0.0,0.0,0.1
1446035888288961227,26,1446035888280034065,robocape,5.66180137132,8.5089601969,5.66180137132,0.0,10.0,0.0,0.0,0.0,10.0,0.0,0.0,0.0,10.0,0.0031957933081,0.0250337142467,0.00785632521573,1.0,0.0,0.0,0.0,1.0,0.0,0.0,0.0,1.0,0.0143701171875,-0.0155676269531,10.0435144043,0.1,0.0,0.0,0.0,0.1,0.0,0.0,0.0,0.1
1446035888323195436,27,1446035888319407939,robocape,5.66563986747,8.53495201868,5.66563986747,0.0,10.0,0.0,0.0,0.0,10.0,0.0,0.0,0.0,10.0,0.00492684801665,0.0254331884103,0.00772316716123,1.0,0.0,0.0,0.0,1.0,0.0,0.0,0.0,1.0,0.0155676269531,-0.0119750976563,10.055489502,0.1,0.0,0.0,0.0,0.1,0.0,0.0,0.0,0.1
1446035888351587394,28,1446035888347866058,robocape,5.67426193843,8.56091319386,5.67426193843,0.0,10.0,0.0,0.0,0.0,10.0,0.0,0.0,0.0,10.0,0.00745685105222,0.0254331884103,0.00759000910673,1.0,0.0,0.0,0.0,1.0,0.0,0.0,0.0,1.0,0.00718505859375,-0.01916015625,10.0255517578,0.1,0.0,0.0,0.0,0.1,0.0,0.0,0.0,0.1
1446035888385197811,29,1446035888380969047,robocape,5.68596744778,8.58705893239,5.68596744778,0.0,10.0,0.0,0.0,0.0,10.0,0.0,0.0,0.0,10.0,0.00905474770627,0.0255663464648,0.00772316716123,1.0,0.0,0.0,0.0,1.0,0.0,0.0,0.0,1.0,0.0167651367188,-0.0047900390625,10.0255517578,0.1,0.0,0.0,0.0,0.1,0.0,0.0,0.0,0.1
1446035888417892686,30,1446035888413448095,robocape,5.69892737455,8.61266357076,5.69892737455,0.0,10.0,0.0,0.0,0.0,10.0,0.0,0.0,0.0,10.0,0.00972053797879,0.0253000303558,0.00772316716123,1.0,0.0,0.0,0.0,1.0,0.0,0.0,0.0,1.0,0.0311352539063,-0.00119750976563,10.0303417969,0.1,0.0,0.0,0.0,0.1,0.0,0.0,0.0,0.1
1446035888453017061,31,1446035888449620962,robocape,5.70973333871,8.63831179134,5.70973333871,0.0,10.0,0.0,0.0,0.0,10.0,0.0,0.0,0.0,10.0,0.00865527354276,0.0253000303558,0.00732369299772,1.0,0.0,0.0,0.0,1.0,0.0,0.0,0.0,1.0,0.0215551757813,0.01916015625,10.0471069336,0.1,0.0,0.0,0.0,0.1,0.0,0.0,0.0,0.1
1446035888485766811,32,1446035888481504917,robocape,5.7150447735,8.66392140526,5.7150447735,0.0,10.0,0.0,0.0,0.0,10.0,0.0,0.0,0.0,10.0,0.00572579634367,0.0253000303558,0.00759000910673,1.0,0.0,0.0,0.0,1.0,0.0,0.0,0.0,1.0,0.0167651367188,0.0131726074219,10.0435144043,0.1,0.0,0.0,0.0,0.1,0.0,0.0,0.0,0.1
1446035888517080561,33,1446035888512701988,robocape,5.71677521876,8.6892976899,5.71677521876,0.0,10.0,0.0,0.0,0.0,10.0,0.0,0.0,0.0,10.0,0.00386158358061,0.0251668723012,0.00745685105222,1.0,0.0,0.0,0.0,1.0,0.0,0.0,0.0,1.0,0.0155676269531,0.0047900390625,10.0375268555,0.1,0.0,0.0,0.0,0.1,0.0,0.0,0.0,0.1
1446035888552735019,34,1446035888549273014,robocape,5.71872667251,8.71417056857,5.71872667251,0.0,10.0,0.0,0.0,0.0,10.0,0.0,0.0,0.0,10.0,0.00399474163512,0.0249005561922,0.00732369299772,1.0,0.0,0.0,0.0,1.0,0.0,0.0,0.0,1.0,-0.00119750976563,-0.00598754882813,10.0411193848,0.1,0.0,0.0,0.0,0.1,0.0,0.0,0.0,0.1
1446035888585386603,35,1446035888581348896,robocape,5.72237696543,8.73918146485,5.72237696543,0.0,10.0,0.0,0.0,0.0,10.0,0.0,0.0,0.0,10.0,0.00479368996214,0.0250337142467,0.00785632521573,1.0,0.0,0.0,0.0,1.0,0.0,0.0,0.0,1.0,0.0119750976563,-0.0215551757813,10.0279467773,0.1,0.0,0.0,0.0,0.1,0.0,0.0,0.0,0.1
1446035888618638228,36,1446035888613953113,robocape,5.72946163582,8.76421289329,5.72946163582,0.0,10.0,0.0,0.0,0.0,10.0,0.0,0.0,0.0,10.0,0.0066579027252,0.0250337142467,0.00745685105222,1.0,0.0,0.0,0.0,1.0,0.0,0.0,0.0,1.0,0.0107775878906,-0.0107775878906,10.039921875,0.1,0.0,0.0,0.0,0.1,0.0,0.0,0.0,0.1
1446035888652035269,37,1446035888648303985,robocape,5.73782627957,8.78996491073,5.73782627957,0.0,10.0,0.0,0.0,0.0,10.0,0.0,0.0,0.0,10.0,0.00732369299772,0.0254331884103,0.00745685105222,1.0,0.0,0.0,0.0,1.0,0.0,0.0,0.0,1.0,-0.00239501953125,0.009580078125,10.0219592285,0.1,0.0,0.0,0.0,0.1,0.0,0.0,0.0,0.1
1446035888685526061,38,1446035888681770086,robocape,5.74459804887,8.81624242066,5.74459804887,0.0,10.0,0.0,0.0,0.0,10.0,0.0,0.0,0.0,10.0,0.00652474467069,0.0256995045193,0.00719053494321,1.0,0.0,0.0,0.0,1.0,0.0,0.0,0.0,1.0,0.00838256835938,0.0215551757813,10.0423168945,0.1,0.0,0.0,0.0,0.1,0.0,0.0,0.0,0.1
1446035888718292103,39,1446035888714993000,robocape,5.74862272948,8.84198526471,5.74862272948,0.0,10.0,0.0,0.0,0.0,10.0,0.0,0.0,0.0,10.0,0.00506000607115,0.0254331884103,0.00732369299772,1.0,0.0,0.0,0.0,1.0,0.0,0.0,0.0,1.0,0.009580078125,0.0131726074219,10.0219592285,0.1,0.0,0.0,0.0,0.1,0.0,0.0,0.0,0.1
1446035888751504353,40,1446035888748220920,robocape,5.75138765513,8.86746035225,5.75138765513,0.0,10.0,0.0,0.0,0.0,10.0,0.0,0.0,0.0,10.0,0.00439421579863,0.0253000303558,0.00732369299772,1.0,0.0,0.0,0.0,1.0,0.0,0.0,0.0,1.0,0.009580078125,0.00119750976563,10.0423168945,0.1,0.0,0.0,0.0,0.1,0.0,0.0,0.0,0.1
1446035888784275228,41,1446035888780565023,robocape,5.75518482386,8.89340874827,5.75518482386,0.0,10.0,0.0,0.0,0.0,10.0,0.0,0.0,0.0,10.0,0.00492684801665,0.0255663464648,0.00732369299772,1.0,0.0,0.0,0.0,1.0,0.0,0.0,0.0,1.0,0.0131726074219,-0.00359252929688,10.0423168945,0.1,0.0,0.0,0.0,0.1,0.0,0.0,0.0,0.1
1446035888818147061,42,1446035888815112113,robocape,5.76164485653,8.91900223415,5.76164485653,0.0,10.0,0.0,0.0,0.0,10.0,0.0,0.0,0.0,10.0,0.00625842856169,0.0254331884103,0.00772316716123,1.0,0.0,0.0,0.0,1.0,0.0,0.0,0.0,1.0,0.0047900390625,-0.0047900390625,10.0279467773,0.1,0.0,0.0,0.0,0.1,0.0,0.0,0.0,0.1
1446035888851155144,43,1446035888847995996,robocape,5.77034248579,8.94445095294,5.77034248579,0.0,10.0,0.0,0.0,0.0,10.0,0.0,0.0,0.0,10.0,0.00732369299772,0.0254331884103,0.00838895743375,1.0,0.0,0.0,0.0,1.0,0.0,0.0,0.0,1.0,0.0119750976563,-0.00119750976563,10.039921875,0.1,0.0,0.0,0.0,0.1,0.0,0.0,0.0,0.1
1446035888884589894,44,1446035888881478071,robocape,5.77858000028,8.96998018154,5.77858000028,0.0,10.0,0.0,0.0,0.0,10.0,0.0,0.0,0.0,10.0,0.00719053494321,0.0254331884103,0.00772316716123,1.0,0.0,0.0,0.0,1.0,0.0,0.0,0.0,1.0,0.0047900390625,0.00718505859375,10.0387243652,0.1,0.0,0.0,0.0,0.1,0.0,0.0,0.0,0.1
1446035888917935353,45,1446035888914901971,robocape,5.78593407595,8.99567482571,5.78593407595,0.0,10.0,0.0,0.0,0.0,10.0,0.0,0.0,0.0,10.0,0.0066579027252,0.0255663464648,0.00812264132474,1.0,0.0,0.0,0.0,1.0,0.0,0.0,0.0,1.0,0.009580078125,0.0107775878906,10.0171691895,0.1,0.0,0.0,0.0,0.1,0.0,0.0,0.0,0.1
1446035888950605353,46,1446035888947534084,robocape,5.79173314598,9.021499566,5.79173314598,0.0,10.0,0.0,0.0,0.0,10.0,0.0,0.0,0.0,10.0,0.00599211245268,0.0255663464648,0.00719053494321,1.0,0.0,0.0,0.0,1.0,0.0,0.0,0.0,1.0,0.0155676269531,0.0167651367188,10.0590820312,0.1,0.0,0.0,0.0,0.1,0.0,0.0,0.0,0.1
1446035888981165353,47,1446035888977936983,robocape,5.79613682663,9.04674060734,5.79613682663,0.0,10.0,0.0,0.0,0.0,10.0,0.0,0.0,0.0,10.0,0.00519316412565,0.0253000303558,0.00759000910673,1.0,0.0,0.0,0.0,1.0,0.0,0.0,0.0,1.0,0.009580078125,0.009580078125,10.0387243652,0.1,0.0,0.0,0.0,0.1,0.0,0.0,0.0,0.1
1446035889014940936,48,1446035889011756896,robocape,5.79848119779,9.07199155056,5.79848119779,0.0,10.0,0.0,0.0,0.0,10.0,0.0,0.0,0.0,10.0,0.00412789968962,0.0253000303558,0.00745685105222,1.0,0.0,0.0,0.0,1.0,0.0,0.0,0.0,1.0,0.00838256835938,-0.00239501953125,10.0099841309,0.1,0.0,0.0,0.0,0.1,0.0,0.0,0.0,0.1
1446035889048213603,49,1446035889045098066,robocape,5.8010564484,9.09774187602,5.8010564484,0.0,10.0,0.0,0.0,0.0,10.0,0.0,0.0,0.0,10.0,0.00426105774413,0.0255663464648,0.00732369299772,1.0,0.0,0.0,0.0,1.0,0.0,0.0,0.0,1.0,0.0167651367188,0.0,10.0267492676,0.1,0.0,0.0,0.0,0.1,0.0,0.0,0.0,0.1
1446035889081566061,50,1446035889078144073,robocape,5.80422741766,9.12304721337,5.80422741766,0.0,10.0,0.0,0.0,0.0,10.0,0.0,0.0,0.0,10.0,0.00466053190764,0.0253000303558,0.0067910607797,1.0,0.0,0.0,0.0,1.0,0.0,0.0,0.0,1.0,0.00718505859375,-0.00239501953125,10.0363293457,0.1,0.0,0.0,0.0,0.1,0.0,0.0,0.0,0.1
1446035889114713769,51,1446035889111310958,robocape,5.81018701766,9.14768208801,5.81018701766,0.0,10.0,0.0,0.0,0.0,10.0,0.0,0.0,0.0,10.0,0.00599211245268,0.0250337142467,0.00759000910673,1.0,0.0,0.0,0.0,1.0,0.0,0.0,0.0,1.0,0.009580078125,0.00838256835938,10.0650695801,0.1,0.0,0.0,0.0,0.1,0.0,0.0,0.0,0.1
1446035889148547603,52,1446035889145514011,robocape,5.81839619062,9.17267437872,5.81839619062,0.0,10.0,0.0,0.0,0.0,10.0,0.0,0.0,0.0,10.0,0.00705737688871,0.0253000303558,0.00825579937925,1.0,0.0,0.0,0.0,1.0,0.0,0.0,0.0,1.0,0.0167651367188,-0.0251477050781,10.039921875,0.1,0.0,0.0,0.0,0.1,0.0,0.0,0.0,0.1
1446035889181170019,53,1446035889178083896,robocape,6.01334351444,9.21157880932,6.01334351444,0.0,10.0,0.0,0.0,0.0,10.0,0.0,0.0,0.0,10.0,0.121972777926,0.0247673981377,-0.0909469512262,1.0,0.0,0.0,0.0,1.0,0.0,0.0,0.0,1.0,0.0562829589844,-0.51732421875,9.96328125,0.1,0.0,0.0,0.0,0.1,0.0,0.0,0.0,0.1
1446035889215905311,54,1446035889211816072,robocape,6.4936539766,9.26604291184,6.4936539766,0.0,10.0,0.0,0.0,0.0,10.0,0.0,0.0,0.0,10.0,0.321044069409,0.00759000910673,-0.375106239538,1.0,0.0,0.0,0.0,1.0,0.0,0.0,0.0,1.0,-0.0131726074219,0.471818847656,10.0207617188,0.1,0.0,0.0,0.0,0.1,0.0,0.0,0.0,0.1
1446035889249347895,55,1446035889246197938,robocape,6.66768133366,9.3024979699,6.66768133366,0.0,10.0,0.0,0.0,0.0,10.0,0.0,0.0,0.0,10.0,0.135022267267,0.0102531701968,-0.223971847676,1.0,0.0,0.0,0.0,1.0,0.0,0.0,0.0,1.0,-0.298179931641,3.2536340332,10.0542919922,0.1,0.0,0.0,0.0,0.1,0.0,0.0,0.0,0.1
1446035889288697478,56,1446035889279613018,robocape,5.64203484501,9.25744052521,5.64203484501,0.0,10.0,0.0,0.0,0.0,10.0,0.0,0.0,0.0,10.0,-0.568984366895,0.00292947719909,0.206261826427,1.0,0.0,0.0,0.0,1.0,0.0,0.0,0.0,1.0,0.0239501953125,1.09691894531,10.0483044434,0.1,0.0,0.0,0.0,0.1,0.0,0.0,0.0,0.1
1446035889321287645,57,1446035889317850112,robocape,4.85994523708,9.24960603545,4.85994523708,0.0,10.0,0.0,0.0,0.0,10.0,0.0,0.0,0.0,10.0,-0.403735221256,0.00359526747161,-0.0185089695761,1.0,0.0,0.0,0.0,1.0,0.0,0.0,0.0,1.0,-0.300574951172,0.270637207031,9.85311035156,0.1,0.0,0.0,0.0,0.1,0.0,0.0,0.0,0.1
1446035889348497270,58,1446035889345299959,robocape,3.98050775696,9.21066561686,3.98050775696,0.0,10.0,0.0,0.0,0.0,10.0,0.0,0.0,0.0,10.0,-0.476972151233,-0.00506000607115,0.111320133565,1.0,0.0,0.0,0.0,1.0,0.0,0.0,0.0,1.0,0.0778381347656,-0.865799560547,9.97525634766,0.1,0.0,0.0,0.0,0.1,0.0,0.0,0.0,0.1
1446035889383001311,59,1446035889379909992,robocape,3.34802862266,9.19723347934,3.34802862266,0.0,10.0,0.0,0.0,0.0,10.0,0.0,0.0,0.0,10.0,-0.342083042021,0.00585895439817,0.0751011427402,1.0,0.0,0.0,0.0,1.0,0.0,0.0,0.0,1.0,0.250279541016,-1.51245483398,10.0351318359,0.1,0.0,0.0,0.0,0.1,0.0,0.0,0.0,0.1
1446035889420256311,60,1446035889416949987,robocape,3.08947584308,9.21912988499,3.08947584308,0.0,10.0,0.0,0.0,0.0,10.0,0.0,0.0,0.0,10.0,-0.13422331894,0.0217047628841,0.000133158054504,1.0,0.0,0.0,0.0,1.0,0.0,0.0,0.0,1.0,0.239501953125,-1.84536254883,9.98842895508,0.1,0.0,0.0,0.0,0.1,0.0,0.0,0.0,0.1
1446035889450074936,61,1446035889446609020,robocape,3.18204265127,9.25520234167,3.18204265127,0.0,10.0,0.0,0.0,0.0,10.0,0.0,0.0,0.0,10.0,0.048869006003,0.0300937203179,0.00545948023466,1.0,0.0,0.0,0.0,1.0,0.0,0.0,0.0,1.0,0.154478759766,-1.40108642578,9.97765136719,0.1,0.0,0.0,0.0,0.1,0.0,0.0,0.0,0.1
1446035889484866895,62,1446035889480828046,robocape,3.48211199431,9.31219047034,3.48211199431,0.0,10.0,0.0,0.0,0.0,10.0,0.0,0.0,0.0,10.0,0.157792294587,0.0416784710597,0.00545948023466,1.0,0.0,0.0,0.0,1.0,0.0,0.0,0.0,1.0,0.132923583984,-1.0765612793,9.96328125,0.1,0.0,0.0,0.0,0.1,0.0,0.0,0.0,0.1
1446035889518949770,63,1446035889515470027,robocape,3.87587319859,9.37124407123,3.87587319859,0.0,10.0,0.0,0.0,0.0,10.0,0.0,0.0,0.0,10.0,0.201867610628,0.0447411063133,0.0376837294246,1.0,0.0,0.0,0.0,1.0,0.0,0.0,0.0,1.0,0.047900390625,-0.379610595703,10.0279467773,0.1,0.0,0.0,0.0,0.1,0.0,0.0,0.0,0.1
1446035889551513936,64,1446035889547740936,robocape,4.20526339521,9.42900888757,4.20526339521,0.0,10.0,0.0,0.0,0.0,10.0,0.0,0.0,0.0,10.0,0.161787036222,0.0464721610219,0.0768321974488,1.0,0.0,0.0,0.0,1.0,0.0,0.0,0.0,1.0,0.120948486328,0.530496826172,10.0746496582,0.1,0.0,0.0,0.0,0.1,0.0,0.0,0.0,0.1
1446035889585912395,65,1446035889581912994,robocape,4.27537633561,9.45641753095,4.27537633561,0.0,10.0,0.0,0.0,0.0,10.0,0.0,0.0,0.0,10.0,0.00878843159726,0.0359526747161,0.178032318872,1.0,0.0,0.0,0.0,1.0,0.0,0.0,0.0,1.0,-0.180823974609,0.130528564453,10.003996582,0.1,0.0,0.0,0.0,0.1,0.0,0.0,0.0,0.1
1446035889616972853,66,1446035889613500118,robocape,4.26040439384,9.46912251589,4.26040439384,0.0,10.0,0.0,0.0,0.0,10.0,0.0,0.0,0.0,10.0,-0.0395479421877,0.0292947719909,0.200003397865,1.0,0.0,0.0,0.0,1.0,0.0,0.0,0.0,1.0,0.130528564453,-0.162861328125,9.9596887207,0.1,0.0,0.0,0.0,0.1,0.0,0.0,0.0,0.1
1446035889653162811,67,1446035889649503946,robocape,4.22692373454,9.48179384264,4.22692373454,0.0,10.0,0.0,0.0,0.0,10.0,0.0,0.0,0.0,10.0,-0.0471379512944,0.0283626656093,0.187353382687,1.0,0.0,0.0,0.0,1.0,0.0,0.0,0.0,1.0,-0.0299377441406,-0.730480957031,9.99202148437,0.1,0.0,0.0,0.0,0.1,0.0,0.0,0.0,0.1
1446035889684983520,68,1446035889680984020,robocape,4.37713044996,9.51428940225,4.37713044996,0.0,10.0,0.0,0.0,0.0,10.0,0.0,0.0,0.0,10.0,0.0635163919984,0.0344879361165,0.103330650295,1.0,0.0,0.0,0.0,1.0,0.0,0.0,0.0,1.0,0.108973388672,-0.8047265625,9.96926879883,0.1,0.0,0.0,0.0,0.1,0.0,0.0,0.0,0.1
1446035889718350561,69,1446035889714546918,robocape,4.72667935556,9.55441009219,4.72667935556,0.0,10.0,0.0,0.0,0.0,10.0,0.0,0.0,0.0,10.0,0.180162847744,0.035153726389,0.034354778062,1.0,0.0,0.0,0.0,1.0,0.0,0.0,0.0,1.0,-0.0383203125,-0.547261962891,10.0004040527,0.1,0.0,0.0,0.0,0.1,0.0,0.0,0.0,0.1
1446035889752791020,70,1446035889749069929,robocape,5.07549232368,9.589627491,5.07549232368,0.0,10.0,0.0,0.0,0.0,10.0,0.0,0.0,0.0,10.0,0.186953908524,0.0302268783724,-0.00466053190764,1.0,0.0,0.0,0.0,1.0,0.0,0.0,0.0,1.0,-0.0802331542969,-0.0047900390625,10.0183666992,0.1,0.0,0.0,0.0,0.1,0.0,0.0,0.0,0.1
1446035889786473145,71,1446035889782685041,robocape,5.45596756791,9.63853345691,5.45596756791,0.0,10.0,0.0,0.0,0.0,10.0,0.0,0.0,0.0,10.0,0.226901324875,0.0278300333913,-0.135554899485,1.0,0.0,0.0,0.0,1.0,0.0,0.0,0.0,1.0,-0.0131726074219,0.481398925781,10.0159716797,0.1,0.0,0.0,0.0,0.1,0.0,0.0,0.0,0.1
1446035889819269770,72,1446035889815937042,robocape,5.62084054142,9.67279092396,5.62084054142,0.0,10.0,0.0,0.0,0.0,10.0,0.0,0.0,0.0,10.0,0.107591708039,0.0221042370477,-0.0980043281149,1.0,0.0,0.0,0.0,1.0,0.0,0.0,0.0,1.0,-0.0335302734375,0.872984619141,10.0483044434,0.1,0.0,0.0,0.0,0.1,0.0,0.0,0.0,0.1
1446035889851505603,73,1446035889848026990,robocape,5.4923765359,9.69051484889,5.4923765359,0.0,10.0,0.0,0.0,0.0,10.0,0.0,0.0,0.0,10.0,-0.0568584892732,0.0173105470855,-0.0383495196971,1.0,0.0,0.0,0.0,1.0,0.0,0.0,0.0,1.0,-0.131726074219,0.76640625,10.0423168945,0.1,0.0,0.0,0.0,0.1,0.0,0.0,0.0,0.1
1446035889885910770,74,1446035889882723093,robocape,5.12040450336,9.70056148654,5.12040450336,0.0,10.0,0.0,0.0,0.0,10.0,0.0,0.0,0.0,10.0,-0.188684963232,0.0142479118319,-0.0170442309765,1.0,0.0,0.0,0.0,1.0,0.0,0.0,0.0,1.0,-0.107775878906,0.395178222656,10.0722546387,0.1,0.0,0.0,0.0,0.1,0.0,0.0,0.0,0.1
1446035889919209353,75,1446035889916121959,robocape,4.63321033007,9.70662251585,4.63321033007,0.0,10.0,0.0,0.0,0.0,10.0,0.0,0.0,0.0,10.0,-0.249138719977,0.0117179087963,-0.0193079179031,1.0,0.0,0.0,0.0,1.0,0.0,0.0,0.0,1.0,0.217946777344,0.0119750976563,10.0351318359,0.1,0.0,0.0,0.0,0.1,0.0,0.0,0.0,0.1
1446035889951441103,76,1446035889948293924,robocape,4.06923005276,9.70254771372,4.06923005276,0.0,10.0,0.0,0.0,0.0,10.0,0.0,0.0,0.0,10.0,-0.30186930956,0.0103863282513,0.049401638221,1.0,0.0,0.0,0.0,1.0,0.0,0.0,0.0,1.0,-0.123343505859,-0.425115966797,10.0435144043,0.1,0.0,0.0,0.0,0.1,0.0,0.0,0.0,0.1
1446035889984111020,77,1446035889980650901,robocape,3.56302851436,9.69293326524,3.56302851436,0.0,10.0,0.0,0.0,0.0,10.0,0.0,0.0,0.0,10.0,-0.284159288311,0.0106526443603,0.119575932945,1.0,0.0,0.0,0.0,1.0,0.0,0.0,0.0,1.0,0.243094482422,-1.30887817383,10.0087866211,0.1,0.0,0.0,0.0,0.1,0.0,0.0,0.0,0.1
1446035890017481020,78,1446035890014175891,robocape,3.34237084819,9.70274924575,3.34237084819,0.0,10.0,0.0,0.0,0.0,10.0,0.0,0.0,0.0,10.0,-0.137951744466,0.0215716048296,0.137818586412,1.0,0.0,0.0,0.0,1.0,0.0,0.0,0.0,1.0,0.0826281738281,-1.7974621582,9.95489868164,0.1,0.0,0.0,0.0,0.1,0.0,0.0,0.0,0.1
1446035890050746728,79,1446035890047724962,robocape,3.47124785223,9.73677317235,3.47124785223,0.0,10.0,0.0,0.0,0.0,10.0,0.0,0.0,0.0,10.0,0.0454068965859,0.03488741028,0.136220689758,1.0,0.0,0.0,0.0,1.0,0.0,0.0,0.0,1.0,0.223934326172,-1.94954589844,9.96807128906,0.1,0.0,0.0,0.0,0.1,0.0,0.0,0.0,0.1
1446035890084540437,80,1446035890081316947,robocape,4.05804822814,9.79280573741,4.05804822814,0.0,10.0,0.0,0.0,0.0,10.0,0.0,0.0,0.0,10.0,0.290684032982,0.0470047932399,0.107591708039,1.0,0.0,0.0,0.0,1.0,0.0,0.0,0.0,1.0,0.131726074219,-1.1879296875,9.97645385742,0.1,0.0,0.0,0.0,0.1,0.0,0.0,0.0,0.1
1446035890117051145,81,1446035890114002943,robocape,4.81327614598,9.84370402041,4.81327614598,0.0,10.0,0.0,0.0,0.0,10.0,0.0,0.0,0.0,10.0,0.383362038917,0.0450074224223,0.0866858934821,1.0,0.0,0.0,0.0,1.0,0.0,0.0,0.0,1.0,0.117355957031,-0.930465087891,9.94052856445,0.1,0.0,0.0,0.0,0.1,0.0,0.0,0.0,0.1
1446035890150493270,82,1446035890147407054,robocape,5.72349314072,9.89724032477,5.72349314072,0.0,10.0,0.0,0.0,0.0,10.0,0.0,0.0,0.0,10.0,0.487624795594,0.0392816260787,-0.0355532005526,1.0,0.0,0.0,0.0,1.0,0.0,0.0,0.0,1.0,-0.107775878906,0.0131726074219,10.0818347168,0.1,0.0,0.0,0.0,0.1,0.0,0.0,0.0,0.1
1446035890183589103,83,1446035890180424928,robocape,6.63206509591,9.95832876833,6.63206509591,0.0,10.0,0.0,0.0,0.0,10.0,0.0,0.0,0.0,10.0,0.512392193731,0.0312921428084,-0.168578097002,1.0,0.0,0.0,0.0,1.0,0.0,0.0,0.0,1.0,-0.323327636719,0.506546630859,10.1177600098,0.1,0.0,0.0,0.0,0.1,0.0,0.0,0.0,0.1
1446035890216929270,84,1446035890213650941,robocape,7.38198562855,10.0025674303,7.38198562855,0.0,10.0,0.0,0.0,0.0,10.0,0.0,0.0,0.0,10.0,0.425173668031,0.0234358175927,-0.138750692793,1.0,0.0,0.0,0.0,1.0,0.0,0.0,0.0,1.0,-0.0251477050781,0.789158935547,10.0818347168,0.1,0.0,0.0,0.0,0.1,0.0,0.0,0.0,0.1
1446035890249602353,85,1446035890246530055,robocape,7.91789228813,10.0387172125,7.91789228813,0.0,10.0,0.0,0.0,0.0,10.0,0.0,0.0,0.0,10.0,0.303733522324,0.0237021337017,-0.0849548387735,1.0,0.0,0.0,0.0,1.0,0.0,0.0,0.0,1.0,-0.00359252929688,1.44419677734,10.0111816406,0.1,0.0,0.0,0.0,0.1,0.0,0.0,0.0,0.1
1446035890289839687,86,1446035890279597997,robocape,7.95228628653,10.0617314992,7.95228628653,0.0,10.0,0.0,0.0,0.0,10.0,0.0,0.0,0.0,10.0,0.0239684498107,0.0250337142467,0.00199737081756,1.0,0.0,0.0,0.0,1.0,0.0,0.0,0.0,1.0,0.00718505859375,1.25978027344,9.9980090332,0.1,0.0,0.0,0.0,0.1,0.0,0.0,0.0,0.1
1446035890317300937,87,1446035890314189910,robocape,7.75942749577,10.0882818784,7.75942749577,0.0,10.0,0.0,0.0,0.0,10.0,0.0,0.0,0.0,10.0,-0.0962732734064,0.0262321367373,0.00466053190764,1.0,0.0,0.0,0.0,1.0,0.0,0.0,0.0,1.0,-0.00239501953125,1.06698120117,9.98603393555,0.1,0.0,0.0,0.0,0.1,0.0,0.0,0.0,0.1
1446035890349451603,88,1446035890346358060,robocape,7.37251582554,10.1130478733,7.37251582554,0.0,10.0,0.0,0.0,0.0,10.0,0.0,0.0,0.0,10.0,-0.199737081756,0.0250337142467,0.0105194863058,1.0,0.0,0.0,0.0,1.0,0.0,0.0,0.0,1.0,-0.0934057617188,0.989143066406,10.0471069336,0.1,0.0,0.0,0.0,0.1,0.0,0.0,0.0,0.1
1446035890381895937,89,1446035890378436088,robocape,6.7744541632,10.1250079413,6.7744541632,0.0,10.0,0.0,0.0,0.0,10.0,0.0,0.0,0.0,10.0,-0.315717747229,0.0198405501211,0.0354200424981,1.0,0.0,0.0,0.0,1.0,0.0,0.0,0.0,1.0,-0.0371228027344,1.04183349609,10.0171691895,0.1,0.0,0.0,0.0,0.1,0.0,0.0,0.0,0.1
1446035890414761187,90,1446035890411652088,robocape,6.01013302152,10.1305434427,6.01013302152,0.0,10.0,0.0,0.0,0.0,10.0,0.0,0.0,0.0,10.0,-0.398275741021,0.0126500151779,0.00732369299772,1.0,0.0,0.0,0.0,1.0,0.0,0.0,0.0,1.0,-0.0502954101563,-0.244291992188,10.0830322266,0.1,0.0,0.0,0.0,0.1,0.0,0.0,0.0,0.1
1446035890448753728,91,1446035890445688009,robocape,5.32243420893,10.1283308875,5.32243420893,0.0,10.0,0.0,0.0,0.0,10.0,0.0,0.0,0.0,10.0,-0.352336212217,0.00599211245268,-0.0259658206283,1.0,0.0,0.0,0.0,1.0,0.0,0.0,0.0,1.0,-0.0658630371094,-0.366437988281,10.0351318359,0.1,0.0,0.0,0.0,0.1,0.0,0.0,0.0,0.1
1446035890481638937,92,1446035890478303909,robocape,4.7674688443,10.1363661063,4.7674688443,0.0,10.0,0.0,0.0,0.0,10.0,0.0,0.0,0.0,10.0,-0.288952978274,0.0143810698864,0.00506000607115,1.0,0.0,0.0,0.0,1.0,0.0,0.0,0.0,1.0,0.0946032714844,-0.787961425781,9.92256591797,0.1,0.0,0.0,0.0,0.1,0.0,0.0,0.0,0.1
1446035890514758228,93,1446035890511677026,robocape,4.31751659322,10.1389785061,4.31751659322,0.0,10.0,0.0,0.0,0.0,10.0,0.0,0.0,0.0,10.0,-0.242613975306,0.0146473859954,0.0508663768205,1.0,0.0,0.0,0.0,1.0,0.0,0.0,0.0,1.0,-0.0263452148438,-0.896934814453,9.98124389648,0.1,0.0,0.0,0.0,0.1,0.0,0.0,0.0,0.1
1446035890548145228,94,1446035890545066118,robocape,4.09981600809,10.1554995741,4.09981600809,0.0,10.0,0.0,0.0,0.0,10.0,0.0,0.0,0.0,10.0,-0.117578562127,0.0211721306661,0.0314253008629,1.0,0.0,0.0,0.0,1.0,0.0,0.0,0.0,1.0,0.152083740234,-1.19870727539,10.0315393066,0.1,0.0,0.0,0.0,0.1,0.0,0.0,0.0,0.1
1446035890581426770,95,1446035890578150987,robocape,4.13186884879,10.185340563,4.13186884879,0.0,10.0,0.0,0.0,0.0,10.0,0.0,0.0,0.0,10.0,0.017710021249,0.0274305592278,0.00719053494321,1.0,0.0,0.0,0.0,1.0,0.0,0.0,0.0,1.0,0.0311352539063,-1.16876953125,10.0063916016,0.1,0.0,0.0,0.0,0.1,0.0,0.0,0.0,0.1
1446035890614604353,96,1446035890611500024,robocape,4.34053503574,10.2227553694,4.34053503574,0.0,10.0,0.0,0.0,0.0,10.0,0.0,0.0,0.0,10.0,0.109189604693,0.0323574072445,0.0139815957229,1.0,0.0,0.0,0.0,1.0,0.0,0.0,0.0,1.0,0.0874182128906,-0.920885009766,9.96807128906,0.1,0.0,0.0,0.0,0.1,0.0,0.0,0.0,0.1
1446035890648001354,97,1446035890644951105,robocape,4.65277231629,10.2685445176,4.65277231629,0.0,10.0,0.0,0.0,0.0,10.0,0.0,0.0,0.0,10.0,0.164849671476,0.0368847810976,0.00798948327024,1.0,0.0,0.0,0.0,1.0,0.0,0.0,0.0,1.0,0.00239501953125,-0.305364990234,10.0339343262,0.1,0.0,0.0,0.0,0.1,0.0,0.0,0.0,0.1
1446035890681425645,98,1446035890678200006,robocape,4.92685474703,10.3085413907,4.92685474703,0.0,10.0,0.0,0.0,0.0,10.0,0.0,0.0,0.0,10.0,0.145808069682,0.0336889877895,0.00452737385313,1.0,0.0,0.0,0.0,1.0,0.0,0.0,0.0,1.0,-0.028740234375,-0.0215551757813,10.0363293457,0.1,0.0,0.0,0.0,0.1,0.0,0.0,0.0,0.1
1446035890714599687,99,1446035890711584091,robocape,5.08712412542,10.3424043267,5.08712412542,0.0,10.0,0.0,0.0,0.0,10.0,0.0,0.0,0.0,10.0,0.085354312937,0.0306263525359,0.00972053797879,1.0,0.0,0.0,0.0,1.0,0.0,0.0,0.0,1.0,-0.0335302734375,0.299377441406,10.0435144043,0.1,0.0,0.0,0.0,0.1,0.0,0.0,0.0,0.1
1446035890747900979,100,1446035890744810104,robocape,5.07126833704,10.36181757,5.07126833704,0.0,10.0,0.0,0.0,0.0,10.0,0.0,0.0,0.0,10.0,-0.0121173829599,0.0245010820287,0.0372842552611,1.0,0.0,0.0,0.0,1.0,0.0,0.0,0.0,1.0,-0.0910107421875,0.0658630371094,10.0135766602,0.1,0.0,0.0,0.0,0.1,0.0,0.0,0.0,0.1
1446035890781611979,101,1446035890778250932,robocape,4.99537982116,10.3843999608,4.99537982116,0.0,10.0,0.0,0.0,0.0,10.0,0.0,0.0,0.0,10.0,-0.0378168874791,0.0237021337017,0.00599211245268,1.0,0.0,0.0,0.0,1.0,0.0,0.0,0.0,1.0,0.00718505859375,0.251477050781,10.0710571289,0.1,0.0,0.0,0.0,0.1,0.0,0.0,0.0,0.1
1446035890814714145,102,1446035890811662912,robocape,4.83047379974,10.4025449696,4.83047379974,0.0,10.0,0.0,0.0,0.0,10.0,0.0,0.0,0.0,10.0,-0.0849548387735,0.0211721306661,0.00772316716123,1.0,0.0,0.0,0.0,1.0,0.0,0.0,0.0,1.0,-0.0179626464844,-0.0359252929688,10.0147741699,0.1,0.0,0.0,0.0,0.1,0.0,0.0,0.0,0.1
1446035890848100687,103,1446035890845029115,robocape,4.6366508023,10.4142090778,4.6366508023,0.0,10.0,0.0,0.0,0.0,10.0,0.0,0.0,0.0,10.0,-0.101333279478,0.017976337358,0.0134489635049,1.0,0.0,0.0,0.0,1.0,0.0,0.0,0.0,1.0,0.0550854492188,-0.208366699219,9.98483642578,0.1,0.0,0.0,0.0,0.1,0.0,0.0,0.0,0.1
1446035890882061604,104,1446035890878777980,robocape,4.49163459888,10.4343030016,4.49163459888,0.0,10.0,0.0,0.0,0.0,10.0,0.0,0.0,0.0,10.0,-0.0696416625056,0.0203731823391,-0.0199737081756,1.0,0.0,0.0,0.0,1.0,0.0,0.0,0.0,1.0,-0.972377929688,-0.1149609375,10.0099841309,0.1,0.0,0.0,0.0,0.1,0.0,0.0,0.0,0.1
1446035890914478270,105,1446035890911433935,robocape,4.34883827049,10.4400978319,4.34883827049,0.0,10.0,0.0,0.0,0.0,10.0,0.0,0.0,0.0,10.0,-0.066312711143,0.0121173829599,-0.0316916169719,1.0,0.0,0.0,0.0,1.0,0.0,0.0,0.0,1.0,-2.20341796875,0.00598754882813,10.1704504395,0.1,0.0,0.0,0.0,0.1,0.0,0.0,0.0,0.1
1446035890948057979,106,1446035890944963932,robocape,4.17324865787,10.5020880197,4.17324865787,0.0,10.0,0.0,0.0,0.0,10.0,0.0,0.0,0.0,10.0,-0.0858869451551,0.0424774193868,-0.0218379209386,1.0,0.0,0.0,0.0,1.0,0.0,0.0,0.0,1.0,-2.37825439453,-0.320932617188,9.98962646484,0.1,0.0,0.0,0.0,0.1,0.0,0.0,0.0,0.1
1446035890981460979,107,1446035890978188037,robocape,3.97796722653,10.5032431876,3.97796722653,0.0,10.0,0.0,0.0,0.0,10.0,0.0,0.0,0.0,10.0,-0.0932106381528,0.00945422186978,-0.0366184649886,1.0,0.0,0.0,0.0,1.0,0.0,0.0,0.0,1.0,-2.79259277344,0.228724365234,10.673404541,0.1,0.0,0.0,0.0,0.1,0.0,0.0,0.0,0.1
1446035891014505062,108,1446035891011394977,robocape,3.72802848775,10.4541338799,3.72802848775,0.0,10.0,0.0,0.0,0.0,10.0,0.0,0.0,0.0,10.0,-0.119043300727,-0.017976337358,-0.0513990090385,1.0,0.0,0.0,0.0,1.0,0.0,0.0,0.0,1.0,-1.04901855469,0.228724365234,10.3333117676,0.1,0.0,0.0,0.0,0.1,0.0,0.0,0.0,0.1
1446035891047682812,109,1446035891044594049,robocape,3.2234521076,10.4395194712,3.2234521076,0.0,10.0,0.0,0.0,0.0,10.0,0.0,0.0,0.0,10.0,-0.267780847607,0.0034621094171,0.0266316109008,1.0,0.0,0.0,0.0,1.0,0.0,0.0,0.0,1.0,-2.19144287109,0.90052734375,10.2830163574,0.1,0.0,0.0,0.0,0.1,0.0,0.0,0.0,0.1
1446035891085711604,110,1446035891082446098,robocape,2.23050536017,10.6169746439,2.23050536017,0.0,10.0,0.0,0.0,0.0,10.0,0.0,0.0,0.0,10.0,-0.518783780347,0.102531701968,-0.00838895743375,1.0,0.0,0.0,0.0,1.0,0.0,0.0,0.0,1.0,-1.65735351563,0.74724609375,10.7620202637,0.1,0.0,0.0,0.0,0.1,0.0,0.0,0.0,0.1
1446035891118118145,111,1446035891114891052,robocape,0.805368778798,10.5828078343,0.805368778798,0.0,10.0,0.0,0.0,0.0,10.0,0.0,0.0,0.0,10.0,-0.736097725298,-0.0102531701968,-0.0580569117637,1.0,0.0,0.0,0.0,1.0,0.0,0.0,0.0,1.0,-3.95297973633,1.07895629883,8.57656494141,0.1,0.0,0.0,0.0,0.1,0.0,0.0,0.0,0.1
1446035891151381312,112,1446035891148185968,robocape,-0.962256963596,10.8315922195,-0.962256963596,0.0,10.0,0.0,0.0,0.0,10.0,0.0,0.0,0.0,10.0,-0.919190050241,0.14101437972,-0.0482032157304,1.0,0.0,0.0,0.0,1.0,0.0,0.0,0.0,1.0,-3.98651000977,0.659827880859,12.2876477051,0.1,0.0,0.0,0.0,0.1,0.0,0.0,0.0,0.1
1446035891184046604,113,1446035891180754899,robocape,-3.18012496076,10.88165458,-3.18012496076,0.0,10.0,0.0,0.0,0.0,10.0,0.0,0.0,0.0,10.0,-1.13810189185,0.0438089999318,-0.150601759644,1.0,0.0,0.0,0.0,1.0,0.0,0.0,0.0,1.0,-2.03576660156,1.11368408203,8.81247436523,0.1,0.0,0.0,0.0,0.1,0.0,0.0,0.0,0.1
1446035891217841729,114,1446035891214734077,robocape,-5.88914060592,10.7971423824,-5.88914060592,0.0,10.0,0.0,0.0,0.0,10.0,0.0,0.0,0.0,10.0,-1.39389851455,-0.015845808486,-0.187619698796,1.0,0.0,0.0,0.0,1.0,0.0,0.0,0.0,1.0,-4.70142333984,1.04662353516,10.9057214355,0.1,0.0,0.0,0.0,0.1,0.0,0.0,0.0,0.1
1446035891250951354,115,1446035891247824907,robocape,-9.47348552539,10.9265992,-9.47348552539,0.0,10.0,0.0,0.0,0.0,10.0,0.0,0.0,0.0,10.0,-1.86368013084,0.109589078857,-0.172040206419,1.0,0.0,0.0,0.0,1.0,0.0,0.0,0.0,1.0,-3.00335449219,0.758023681641,8.13468383789,0.1,0.0,0.0,0.0,0.1,0.0,0.0,0.0,0.1
1446035891291044479,116,1446035891283590078,robocape,-13.9094073656,11.1583951299,-13.9094073656,0.0,10.0,0.0,0.0,0.0,10.0,0.0,0.0,0.0,10.0,-2.33173069242,0.179363899417,-0.149669653262,1.0,0.0,0.0,0.0,1.0,0.0,0.0,0.0,1.0,-1.72561157227,0.884959716797,9.41601928711,0.1,0.0,0.0,0.0,0.1,0.0,0.0,0.0,0.1
1446035891317410187,117,1446035891314294099,robocape,-19.3827815931,11.2664033686,-19.3827815931,0.0,10.0,0.0,0.0,0.0,10.0,0.0,0.0,0.0,10.0,-2.91456349698,0.143544382755,-0.17177389031,1.0,0.0,0.0,0.0,1.0,0.0,0.0,0.0,1.0,1.33282836914,1.79506713867,7.82812133789,0.1,0.0,0.0,0.0,0.1,0.0,0.0,0.0,0.1
1446035891350561312,118,1446035891347423076,robocape,-25.9626155094,11.4035920369,-25.9626155094,0.0,10.0,0.0,0.0,0.0,10.0,0.0,0.0,0.0,10.0,-3.5906069397,0.161787036222,-0.0949416928613,1.0,0.0,0.0,0.0,1.0,0.0,0.0,0.0,1.0,-1.55556518555,2.13635742188,6.31566650391,0.1,0.0,0.0,0.0,0.1,0.0,0.0,0.0,0.1
1446035891383461271,119,1446035891380075931,robocape,-31.9190080701,11.0546170863,-31.9190080701,0.0,10.0,0.0,0.0,0.0,10.0,0.0,0.0,0.0,10.0,-3.2490565299,0.250869774685,-0.743021944132,1.0,0.0,0.0,0.0,1.0,0.0,0.0,0.0,1.0,-0.0239501953125,-18.3338745117,8.98731079102,0.1,0.0,0.0,0.0,0.1,0.0,0.0,0.0,0.1
1446035891416209146,120,1446035891413176059,robocape,-32.9322728098,10.9077101264,-32.9322728098,0.0,10.0,0.0,0.0,0.0,10.0,0.0,0.0,0.0,10.0,-0.335425139295,1.05700863665,-1.75835210972,1.0,0.0,0.0,0.0,1.0,0.0,0.0,0.0,1.0,4.4870690918,-17.9997692871,12.1056262207,0.1,0.0,0.0,0.0,0.1,0.0,0.0,0.0,0.1
1446035891450092354,121,1446035891446964979,robocape,-31.2971313759,11.2008850635,-31.2971313759,0.0,10.0,0.0,0.0,0.0,10.0,0.0,0.0,0.0,10.0,1.14915401037,1.23690516829,-1.65675251414,1.0,0.0,0.0,0.0,1.0,0.0,0.0,0.0,1.0,-2.64170654297,-7.0090246582,7.56347167969,0.1,0.0,0.0,0.0,0.1,0.0,0.0,0.0,0.1
1446035891481995646,122,1446035891478704929,robocape,-31.3204802467,11.8377140861,-31.3204802467,0.0,10.0,0.0,0.0,0.0,10.0,0.0,0.0,0.0,10.0,0.112784872165,1.02678175828,-1.01386542699,1.0,0.0,0.0,0.0,1.0,0.0,0.0,0.0,1.0,-2.20940551758,1.81063476563,8.33826049805,0.1,0.0,0.0,0.0,0.1,0.0,0.0,0.0,0.1
1446035891515516604,123,1446035891512176036,robocape,-32.6122288151,12.2641076758,-32.6122288151,0.0,10.0,0.0,0.0,0.0,10.0,0.0,0.0,0.0,10.0,-0.63476444582,0.835566792012,-0.884036323852,1.0,0.0,0.0,0.0,1.0,0.0,0.0,0.0,1.0,1.85374511719,0.0730480957031,9.19088745117,0.1,0.0,0.0,0.0,0.1,0.0,0.0,0.0,0.1
1446035891549309646,124,1446035891546106100,robocape,-33.4582214831,11.8549623855,-33.4582214831,0.0,10.0,0.0,0.0,0.0,10.0,0.0,0.0,0.0,10.0,-0.38788941277,0.513990090385,-1.16499981886,1.0,0.0,0.0,0.0,1.0,0.0,0.0,0.0,1.0,-1.93278076172,-3.71467529297,8.73104370117,0.1,0.0,0.0,0.0,0.1,0.0,0.0,0.0,0.1
1446035891582012396,125,1446035891578896999,robocape,-33.6195613375,12.0366141374,-33.6195613375,0.0,10.0,0.0,0.0,0.0,10.0,0.0,0.0,0.0,10.0,0.0266316109008,0.972186955933,-1.28098048433,1.0,0.0,0.0,0.0,1.0,0.0,0.0,0.0,1.0,-3.87514160156,-5.66541870117,9.16933227539,0.1,0.0,0.0,0.0,0.1,0.0,0.0,0.0,0.1
1446035891614860771,126,1446035891611787080,robocape,-33.7744223386,12.5212851569,-33.7744223386,0.0,10.0,0.0,0.0,0.0,10.0,0.0,0.0,0.0,10.0,0.0300937203179,1.1382350499,-1.2401009616,1.0,0.0,0.0,0.0,1.0,0.0,0.0,0.0,1.0,1.77111694336,-2.38783447266,10.3680395508,0.1,0.0,0.0,0.0,0.1,0.0,0.0,0.0,0.1
1446035891648394937,127,1446035891645340919,robocape,-34.0255267284,12.5612322105,-34.0255267284,0.0,10.0,0.0,0.0,0.0,10.0,0.0,0.0,0.0,10.0,-0.0533963798561,0.855673658242,-1.23757095856,1.0,0.0,0.0,0.0,1.0,0.0,0.0,0.0,1.0,4.90739501953,-2.73271728516,8.59692260742,0.1,0.0,0.0,0.0,0.1,0.0,0.0,0.0,0.1
1446035891681523354,128,1446035891678107023,robocape,-34.3620246843,12.6840432719,-34.3620246843,0.0,10.0,0.0,0.0,0.0,10.0,0.0,0.0,0.0,10.0,-0.0741690363587,1.09682289495,-1.51334128944,1.0,0.0,0.0,0.0,1.0,0.0,0.0,0.0,1.0,2.47764770508,-2.23455322266,10.9141040039,0.1,0.0,0.0,0.0,0.1,0.0,0.0,0.0,0.1
1446035891714569604,129,1446035891711471080,robocape,-34.8224002784,12.8864987258,-34.8224002784,0.0,10.0,0.0,0.0,0.0,10.0,0.0,0.0,0.0,10.0,-0.160322297623,1.14369453013,-1.50095759037,1.0,0.0,0.0,0.0,1.0,0.0,0.0,0.0,1.0,2.32197143555,-3.04287231445,11.1571984863,0.1,0.0,0.0,0.0,0.1,0.0,0.0,0.0,0.1
1446035891747927396,130,1446035891744906902,robocape,-35.329036879,12.7098445039,-35.329036879,0.0,10.0,0.0,0.0,0.0,10.0,0.0,0.0,0.0,10.0,-0.221175528531,0.923184791876,-1.52652393683,1.0,0.0,0.0,0.0,1.0,0.0,0.0,0.0,1.0,2.00702636719,-0.0754431152344,6.6294140625,0.1,0.0,0.0,0.0,0.1,0.0,0.0,0.0,0.1
1446035891781704229,131,1446035891778584957,robocape,-35.91646221,12.6672662908,-35.91646221,0.0,10.0,0.0,0.0,0.0,10.0,0.0,0.0,0.0,10.0,-0.276169805041,1.08617025059,-1.63105300962,1.0,0.0,0.0,0.0,1.0,0.0,0.0,0.0,1.0,3.56618408203,-1.62382324219,8.79451171875,0.1,0.0,0.0,0.0,0.1,0.0,0.0,0.0,0.1
1446035891815126604,132,1446035891812000989,robocape,-36.6386514258,13.0051415951,-36.6386514258,0.0,10.0,0.0,0.0,0.0,10.0,0.0,0.0,0.0,10.0,-0.360592011597,1.33544212862,-1.62266405219,1.0,0.0,0.0,0.0,1.0,0.0,0.0,0.0,1.0,-1.87889282227,-3.77694580078,10.7739953613,0.1,0.0,0.0,0.0,0.1,0.0,0.0,0.0,0.1
1446035891848178271,133,1446035891845128059,robocape,-37.1521350717,13.207097549,-37.1521350717,0.0,10.0,0.0,0.0,0.0,10.0,0.0,0.0,0.0,10.0,-0.254331884103,1.33184686115,-1.72572838637,1.0,0.0,0.0,0.0,1.0,0.0,0.0,0.0,1.0,0.797541503906,-2.7590625,11.5140563965,0.1,0.0,0.0,0.0,0.1,0.0,0.0,0.0,0.1
1446035891881232146,134,1446035891878179073,robocape,-37.3422065767,13.5987809683,-37.3422065767,0.0,10.0,0.0,0.0,0.0,10.0,0.0,0.0,0.0,10.0,-0.0825579937925,1.41134221969,-1.66061409772,1.0,0.0,0.0,0.0,1.0,0.0,0.0,0.0,1.0,-0.8813671875,-1.93158325195,8.75020385742,0.1,0.0,0.0,0.0,0.1,0.0,0.0,0.0,0.1
1446035891914924604,135,1446035891911787986,robocape,-37.426006436,13.4001467846,-37.426006436,0.0,10.0,0.0,0.0,0.0,10.0,0.0,0.0,0.0,10.0,-0.0656469208705,0.989497503019,-1.62519405522,1.0,0.0,0.0,0.0,1.0,0.0,0.0,0.0,1.0,-4.89901245117,-1.5364050293,8.38496337891,0.1,0.0,0.0,0.0,0.1,0.0,0.0,0.0,0.1
1446035891948414312,136,1446035891945224046,robocape,-37.953298389,13.5945846609,-37.953298389,0.0,10.0,0.0,0.0,0.0,10.0,0.0,0.0,0.0,10.0,-0.330764607388,1.15727665169,-1.51840129551,1.0,0.0,0.0,0.0,1.0,0.0,0.0,0.0,1.0,3.9853125,-2.48603027344,10.5656286621,0.1,0.0,0.0,0.0,0.1,0.0,0.0,0.0,0.1
1446035891981506146,137,1446035891978414058,robocape,-38.60506551,13.4290506586,-38.60506551,0.0,10.0,0.0,0.0,0.0,10.0,0.0,0.0,0.0,10.0,-0.429434725775,0.977246962005,-1.59563296712,1.0,0.0,0.0,0.0,1.0,0.0,0.0,0.0,1.0,4.65951049805,-2.24173828125,9.79443237305,0.1,0.0,0.0,0.0,0.1,0.0,0.0,0.0,0.1
1446035892014773937,138,1446035892011662960,robocape,-38.9183426625,13.3021947648,-38.9183426625,0.0,10.0,0.0,0.0,0.0,10.0,0.0,0.0,0.0,10.0,-0.251535564958,1.07871339954,-1.69709940465,1.0,0.0,0.0,0.0,1.0,0.0,0.0,0.0,1.0,-0.542471923828,-1.89326293945,9.67587890625,0.1,0.0,0.0,0.0,0.1,0.0,0.0,0.0,0.1
1446035892048333271,139,1446035892045062065,robocape,-39.1607305642,13.2767445041,-39.1607305642,0.0,10.0,0.0,0.0,0.0,10.0,0.0,0.0,0.0,10.0,-0.229830802074,1.09562447246,-1.64010775733,1.0,0.0,0.0,0.0,1.0,0.0,0.0,0.0,1.0,-0.244291992188,-1.73159912109,9.73814941406,0.1,0.0,0.0,0.0,0.1,0.0,0.0,0.0,0.1
1446035892081578188,140,1446035892078496932,robocape,-39.2921377892,13.2505647931,-39.2921377892,0.0,10.0,0.0,0.0,0.0,10.0,0.0,0.0,0.0,10.0,-0.180162847744,1.11120396484,-1.67592727399,1.0,0.0,0.0,0.0,1.0,0.0,0.0,0.0,1.0,-2.97461425781,-2.95784912109,10.4782104492,0.1,0.0,0.0,0.0,0.1,0.0,0.0,0.0,0.1
1446035892114625396,141,1446035892111529111,robocape,-39.682683173,13.5455880017,-39.682683173,0.0,10.0,0.0,0.0,0.0,10.0,0.0,0.0,0.0,10.0,-0.335691455404,1.17791615014,-1.49176968461,1.0,0.0,0.0,0.0,1.0,0.0,0.0,0.0,1.0,2.39861206055,-1.98786621094,11.6158447266,0.1,0.0,0.0,0.0,0.1,0.0,0.0,0.0,0.1
1446035892148139188,142,1446035892144892930,robocape,-39.9774427804,13.5453031652,-39.9774427804,0.0,10.0,0.0,0.0,0.0,10.0,0.0,0.0,0.0,10.0,-0.298274042089,1.02558333579,-1.55302238968,1.0,0.0,0.0,0.0,1.0,0.0,0.0,0.0,1.0,-1.54598510742,-2.28963867188,7.25930419922,0.1,0.0,0.0,0.0,0.1,0.0,0.0,0.0,0.1
1446035892181181354,143,1446035892178096055,robocape,-40.3671816177,13.8260436189,-40.3671816177,0.0,10.0,0.0,0.0,0.0,10.0,0.0,0.0,0.0,10.0,-0.352069896108,1.20840934462,-1.55621818299,1.0,0.0,0.0,0.0,1.0,0.0,0.0,0.0,1.0,2.13036987305,-4.38767578125,12.855267334,0.1,0.0,0.0,0.0,0.1,0.0,0.0,0.0,0.1
1446035892214714104,144,1446035892211327075,robocape,-40.6113317245,14.0471809878,-40.6113317245,0.0,10.0,0.0,0.0,0.0,10.0,0.0,0.0,0.0,10.0,-0.281362969167,1.0879013053,-1.44330015277,1.0,0.0,0.0,0.0,1.0,0.0,0.0,0.0,1.0,-0.540076904297,-3.94100463867,5.56722290039,0.1,0.0,0.0,0.0,0.1,0.0,0.0,0.0,0.1
1446035892248108813,145,1446035892244904041,robocape,-40.7023425755,14.126378799,-40.7023425755,0.0,10.0,0.0,0.0,0.0,10.0,0.0,0.0,0.0,10.0,-0.2039981395,1.00787331454,-1.46700228647,1.0,0.0,0.0,0.0,1.0,0.0,0.0,0.0,1.0,1.75075927734,-4.10985351563,10.556048584,0.1,0.0,0.0,0.0,0.1,0.0,0.0,0.0,0.1
1446035892286689146,146,1446035892278325080,robocape,-40.8168372807,14.5778644002,-40.8168372807,0.0,10.0,0.0,0.0,0.0,10.0,0.0,0.0,0.0,10.0,-0.204930245882,1.2579441409,-1.48098388219,1.0,0.0,0.0,0.0,1.0,0.0,0.0,0.0,1.0,2.08606201172,-3.57456665039,6.65096923828,0.1,0.0,0.0,0.0,0.1,0.0,0.0,0.0,0.1
1446035892316167438,147,1446035892312521934,robocape,-40.951614264,14.9154520509,-40.951614264,0.0,10.0,0.0,0.0,0.0,10.0,0.0,0.0,0.0,10.0,-0.221308686586,1.13983294655,-1.42971803121,1.0,0.0,0.0,0.0,1.0,0.0,0.0,0.0,1.0,0.626297607422,-4.08590332031,10.4039648437,0.1,0.0,0.0,0.0,0.1,0.0,0.0,0.0,0.1
1446035892348535688,148,1446035892345144987,robocape,-41.0694152075,15.0947650659,-41.0694152075,0.0,10.0,0.0,0.0,0.0,10.0,0.0,0.0,0.0,10.0,-0.221042370477,0.997353828235,-1.38417797657,1.0,0.0,0.0,0.0,1.0,0.0,0.0,0.0,1.0,-1.79386962891,-4.14937133789,10.4758154297,0.1,0.0,0.0,0.0,0.1,0.0,0.0,0.0,0.1
1446035892381691729,149,1446035892378259897,robocape,-41.100275412,15.234562848,-41.100275412,0.0,10.0,0.0,0.0,0.0,10.0,0.0,0.0,0.0,10.0,-0.176168106109,0.960735363246,-1.37538954497,1.0,0.0,0.0,0.0,1.0,0.0,0.0,0.0,1.0,-1.05620361328,-2.81414794922,10.5752087402,0.1,0.0,0.0,0.0,0.1,0.0,0.0,0.0,0.1
1446035892414933813,150,1446035892411493062,robocape,-41.3876425255,15.3832801352,-41.3876425255,0.0,10.0,0.0,0.0,0.0,10.0,0.0,0.0,0.0,10.0,-0.327169339916,0.892025807122,-1.28470890985,1.0,0.0,0.0,0.0,1.0,0.0,0.0,0.0,1.0,2.72193969727,-3.78892089844,9.17531982422,0.1,0.0,0.0,0.0,0.1,0.0,0.0,0.0,0.1
1446035892448136771,151,1446035892444895982,robocape,-41.633348613,15.4907266382,-41.633348613,0.0,10.0,0.0,0.0,0.0,10.0,0.0,0.0,0.0,10.0,-0.305464577032,0.932372697637,-1.37858533828,1.0,0.0,0.0,0.0,1.0,0.0,0.0,0.0,1.0,1.48730712891,-4.0966809082,11.7954711914,0.1,0.0,0.0,0.0,0.1,0.0,0.0,0.0,0.1
1446035892481167896,152,1446035892477937936,robocape,-41.6799068246,15.5002042834,-41.6799068246,0.0,10.0,0.0,0.0,0.0,10.0,0.0,0.0,0.0,10.0,-0.20279971701,0.847151542754,-1.34995635656,1.0,0.0,0.0,0.0,1.0,0.0,0.0,0.0,1.0,0.130528564453,-3.40452026367,8.49633178711,0.1,0.0,0.0,0.0,0.1,0.0,0.0,0.0,0.1
1446035892514692229,153,1446035892511416912,robocape,-41.7441798329,15.7435613429,-41.7441798329,0.0,10.0,0.0,0.0,0.0,10.0,0.0,0.0,0.0,10.0,-0.205196561991,0.984038022784,-1.33144738699,1.0,0.0,0.0,0.0,1.0,0.0,0.0,0.0,1.0,3.7937109375,-2.58542358398,10.7811804199,0.1,0.0,0.0,0.0,0.1,0.0,0.0,0.0,0.1
1446035892548007229,154,1446035892544658899,robocape,-41.7892918002,16.0870856306,-41.7892918002,0.0,10.0,0.0,0.0,0.0,10.0,0.0,0.0,0.0,10.0,-0.190149701832,1.01599595587,-1.28657312262,1.0,0.0,0.0,0.0,1.0,0.0,0.0,0.0,1.0,4.54335205078,-4.27391235352,8.21371948242,0.1,0.0,0.0,0.0,0.1,0.0,0.0,0.0,0.1
1446035892581877354,155,1446035892578862905,robocape,-41.7653988077,16.4302033646,-41.7653988077,0.0,10.0,0.0,0.0,0.0,10.0,0.0,0.0,0.0,10.0,-0.147405966336,1.02198806832,-1.29709260892,1.0,0.0,0.0,0.0,1.0,0.0,0.0,0.0,1.0,0.234711914063,-2.88839355469,10.055489502,0.1,0.0,0.0,0.0,0.1,0.0,0.0,0.0,0.1
1446035892614726771,156,1446035892611555099,robocape,-41.7673598426,16.7024839794,-41.7673598426,0.0,10.0,0.0,0.0,0.0,10.0,0.0,0.0,0.0,10.0,-0.165914935912,0.919190050241,-1.22452146922,1.0,0.0,0.0,0.0,1.0,0.0,0.0,0.0,1.0,-1.81183227539,-2.99856445313,8.29874267578,0.1,0.0,0.0,0.0,0.1,0.0,0.0,0.0,0.1
1446035892648310563,157,1446035892645029067,robocape,-42.0554204958,17.2004344252,-42.0554204958,0.0,10.0,0.0,0.0,0.0,10.0,0.0,0.0,0.0,10.0,-0.31664985361,1.00441120512,-1.14049873683,1.0,0.0,0.0,0.0,1.0,0.0,0.0,0.0,1.0,6.67731445313,-4.29786254883,12.9953759766,0.1,0.0,0.0,0.0,0.1,0.0,0.0,0.0,0.1
1446035892681358979,158,1446035892678267955,robocape,-42.2294230013,17.4921200627,-42.2294230013,0.0,10.0,0.0,0.0,0.0,10.0,0.0,0.0,0.0,10.0,-0.25366609383,0.956341147447,-1.25541413786,1.0,0.0,0.0,0.0,1.0,0.0,0.0,0.0,1.0,2.97221923828,-2.81893798828,5.71092407227,0.1,0.0,0.0,0.0,0.1,0.0,0.0,0.0,0.1
1446035892716104188,159,1446035892712899923,robocape,-42.2642825313,17.7405602184,-42.2642825313,0.0,10.0,0.0,0.0,0.0,10.0,0.0,0.0,0.0,10.0,-0.180828638016,0.884968430233,-1.19203090392,1.0,0.0,0.0,0.0,1.0,0.0,0.0,0.0,1.0,4.45234130859,-6.06059692383,9.4687097168,0.1,0.0,0.0,0.0,0.1,0.0,0.0,0.0,0.1
1446035892749815563,160,1446035892746613979,robocape,-42.187964273,18.0044234646,-42.187964273,0.0,10.0,0.0,0.0,0.0,10.0,0.0,0.0,0.0,10.0,-0.110254869129,0.946753767523,-1.26300414697,1.0,0.0,0.0,0.0,1.0,0.0,0.0,0.0,1.0,0.389190673828,-2.82013549805,10.1752404785,0.1,0.0,0.0,0.0,0.1,0.0,0.0,0.0,0.1
1446035892782934980,161,1446035892779776096,robocape,-42.263895617,18.4303328234,-42.263895617,0.0,10.0,0.0,0.0,0.0,10.0,0.0,0.0,0.0,10.0,-0.193212337085,0.942759025888,-1.11346765176,1.0,0.0,0.0,0.0,1.0,0.0,0.0,0.0,1.0,0.207169189453,-3.19735107422,9.89981323242,0.1,0.0,0.0,0.0,0.1,0.0,0.0,0.0,0.1
1446035892815159813,162,1446035892812045097,robocape,-42.3360873165,18.6138102523,-42.3360873165,0.0,10.0,0.0,0.0,0.0,10.0,0.0,0.0,0.0,10.0,-0.190948650159,0.886300010778,-1.25781098284,1.0,0.0,0.0,0.0,1.0,0.0,0.0,0.0,1.0,2.90036865234,-4.74692871094,11.153605957,0.1,0.0,0.0,0.0,0.1,0.0,0.0,0.0,0.1
1446035892850601521,163,1446035892847232103,robocape,-42.402090305,18.7050144911,-42.402090305,0.0,10.0,0.0,0.0,0.0,10.0,0.0,0.0,0.0,10.0,-0.197872868993,0.780838831611,-1.19828933248,1.0,0.0,0.0,0.0,1.0,0.0,0.0,0.0,1.0,1.52203491211,-3.41769287109,8.41370361328,0.1,0.0,0.0,0.0,0.1,0.0,0.0,0.0,0.1
1446035892886570605,164,1446035892883492946,robocape,-42.6249461568,18.8292040413,-42.6249461568,0.0,10.0,0.0,0.0,0.0,10.0,0.0,0.0,0.0,10.0,-0.28176244333,0.821851512398,-1.22878252696,1.0,0.0,0.0,0.0,1.0,0.0,0.0,0.0,1.0,1.06099365234,-3.62725708008,10.4362976074,0.1,0.0,0.0,0.0,0.1,0.0,0.0,0.0,0.1
1446035892916356521,165,1446035892913217067,robocape,-42.7073213022,18.9985659929,-42.7073213022,0.0,10.0,0.0,0.0,0.0,10.0,0.0,0.0,0.0,10.0,-0.203731823391,0.836498898394,-1.20188459995,1.0,0.0,0.0,0.0,1.0,0.0,0.0,0.0,1.0,1.66094604492,-2.96263916016,9.17891235352,0.1,0.0,0.0,0.0,0.1,0.0,0.0,0.0,0.1
1446035892950109396,166,1446035892946991920,robocape,-42.6278754614,19.2456872709,-42.6278754614,0.0,10.0,0.0,0.0,0.0,10.0,0.0,0.0,0.0,10.0,-0.110388027184,0.862198402913,-1.16207034166,1.0,0.0,0.0,0.0,1.0,0.0,0.0,0.0,1.0,3.15184570313,-2.52435058594,9.00048339844,0.1,0.0,0.0,0.0,0.1,0.0,0.0,0.0,0.1
1446035892985531271,167,1446035892982382059,robocape,-42.7361173962,19.4062362337,-42.7361173962,0.0,10.0,0.0,0.0,0.0,10.0,0.0,0.0,0.0,10.0,-0.220909212422,0.777776196358,-1.13104451496,1.0,0.0,0.0,0.0,1.0,0.0,0.0,0.0,1.0,1.59867553711,-4.74573120117,8.73822875977,0.1,0.0,0.0,0.0,0.1,0.0,0.0,0.0,0.1
1446035893018830146,168,1446035893015541076,robocape,-42.7731971951,19.5831967182,-42.7731971951,0.0,10.0,0.0,0.0,0.0,10.0,0.0,0.0,0.0,10.0,-0.17590179,0.819188351308,-1.16992666687,1.0,0.0,0.0,0.0,1.0,0.0,0.0,0.0,1.0,1.82380737305,-2.69200195313,10.6638244629,0.1,0.0,0.0,0.0,0.1,0.0,0.0,0.0,0.1
1446035893051777146,169,1446035893048418998,robocape,-42.88184883,19.8235763807,-42.88184883,0.0,10.0,0.0,0.0,0.0,10.0,0.0,0.0,0.0,10.0,-0.215982364405,0.81479413551,-1.10601080071,1.0,0.0,0.0,0.0,1.0,0.0,0.0,0.0,1.0,2.62134887695,-4.39486083984,9.29626831055,0.1,0.0,0.0,0.0,0.1,0.0,0.0,0.0,0.1
1446035893084826646,170,1446035893080852031,robocape,-42.9077779376,19.9328985309,-42.9077779376,0.0,10.0,0.0,0.0,0.0,10.0,0.0,0.0,0.0,10.0,-0.176034948054,0.741956679696,-1.12238924141,1.0,0.0,0.0,0.0,1.0,0.0,0.0,0.0,1.0,0.936452636719,-4.73615112305,8.49154174805,0.1,0.0,0.0,0.0,0.1,0.0,0.0,0.0,0.1
1446035893117646438,171,1446035893114571094,robocape,-42.9710781264,20.0220369826,-42.9710781264,0.0,10.0,0.0,0.0,0.0,10.0,0.0,0.0,0.0,10.0,-0.202000768683,0.696416625056,-1.07897971565,1.0,0.0,0.0,0.0,1.0,0.0,0.0,0.0,1.0,-0.360450439453,-3.33506469727,9.31063842773,0.1,0.0,0.0,0.0,0.1,0.0,0.0,0.0,0.1
1446035893151815605,172,1446035893148370981,robocape,-43.184776834,20.2683836144,-43.184776834,0.0,10.0,0.0,0.0,0.0,10.0,0.0,0.0,0.0,10.0,-0.27377296006,0.804008333095,-1.08270814117,1.0,0.0,0.0,0.0,1.0,0.0,0.0,0.0,1.0,2.72553222656,-4.59723999023,9.71419921875,0.1,0.0,0.0,0.0,0.1,0.0,0.0,0.0,0.1
1446035893184238688,173,1446035893181097030,robocape,-43.4854372164,20.5844464339,-43.4854372164,0.0,10.0,0.0,0.0,0.0,10.0,0.0,0.0,0.0,10.0,-0.31811459221,0.839961007811,-1.062734433,1.0,0.0,0.0,0.0,1.0,0.0,0.0,0.0,1.0,3.16980834961,-5.42950927734,8.25323730469,0.1,0.0,0.0,0.0,0.1,0.0,0.0,0.0,0.1
1446035893218203855,174,1446035893215040922,robocape,-43.5062234542,20.8805820126,-43.5062234542,0.0,10.0,0.0,0.0,0.0,10.0,0.0,0.0,0.0,10.0,-0.157392820424,0.868989463693,-1.10654343293,1.0,0.0,0.0,0.0,1.0,0.0,0.0,0.0,1.0,0.067060546875,-4.40444091797,9.60642333984,0.1,0.0,0.0,0.0,0.1,0.0,0.0,0.0,0.1
1446035893252890396,175,1446035893249294042,robocape,-43.4342694881,21.2320751798,-43.4342694881,0.0,10.0,0.0,0.0,0.0,10.0,0.0,0.0,0.0,10.0,-0.106792759712,0.849015755517,-1.02518386163,1.0,0.0,0.0,0.0,1.0,0.0,0.0,0.0,1.0,-1.09811645508,-4.24157958984,8.86636230469,0.1,0.0,0.0,0.0,0.1,0.0,0.0,0.0,0.1
1446035893289538521,176,1446035893283543109,robocape,-43.5250713185,21.3797920414,-43.5250713185,0.0,10.0,0.0,0.0,0.0,10.0,0.0,0.0,0.0,10.0,-0.219044999659,0.648746041543,-0.941560603398,1.0,0.0,0.0,0.0,1.0,0.0,0.0,0.0,1.0,-0.324525146484,-3.41769287109,9.35015625,0.1,0.0,0.0,0.0,0.1,0.0,0.0,0.0,0.1
1446035893319315063,177,1446035893315949916,robocape,-43.4395966197,21.5516848928,-43.4395966197,0.0,10.0,0.0,0.0,0.0,10.0,0.0,0.0,0.0,10.0,-0.112252239947,0.704406108326,-0.987500132201,1.0,0.0,0.0,0.0,1.0,0.0,0.0,0.0,1.0,-2.67763183594,-3.23686889648,9.48307983398,0.1,0.0,0.0,0.0,0.1,0.0,0.0,0.0,0.1
1446035893352249605,178,1446035893348947048,robocape,-43.2678136212,21.7466506778,-43.2678136212,0.0,10.0,0.0,0.0,0.0,10.0,0.0,0.0,0.0,10.0,-0.0511326929295,0.771118293632,-1.05461179167,1.0,0.0,0.0,0.0,1.0,0.0,0.0,0.0,1.0,-0.439486083984,-3.86436401367,9.13819702148,0.1,0.0,0.0,0.0,0.1,0.0,0.0,0.0,0.1
1446035893384777063,179,1446035893381536960,robocape,-43.1066110136,21.8515175138,-43.1066110136,0.0,10.0,0.0,0.0,0.0,10.0,0.0,0.0,0.0,10.0,-0.0712395591596,0.649145515707,-0.973918010642,1.0,0.0,0.0,0.0,1.0,0.0,0.0,0.0,1.0,1.12206665039,-4.60801757813,8.16821411133,0.1,0.0,0.0,0.0,0.1,0.0,0.0,0.0,0.1
1446035893418141438,180,1446035893414932012,robocape,-43.0969678639,22.1621225649,-43.0969678639,0.0,10.0,0.0,0.0,0.0,10.0,0.0,0.0,0.0,10.0,-0.140215431393,0.757536172073,-0.936101123163,1.0,0.0,0.0,0.0,1.0,0.0,0.0,0.0,1.0,-0.765208740234,-3.77095825195,8.71667358398,0.1,0.0,0.0,0.0,0.1,0.0,0.0,0.0,0.1
1446035893451255105,181,1446035893448062896,robocape,-43.2658429056,22.2882558986,-43.2658429056,0.0,10.0,0.0,0.0,0.0,10.0,0.0,0.0,0.0,10.0,-0.247807139432,0.654072363723,-0.963132208227,1.0,0.0,0.0,0.0,1.0,0.0,0.0,0.0,1.0,-0.0718505859375,-5.134921875,11.2410241699,0.1,0.0,0.0,0.0,0.1,0.0,0.0,0.0,0.1
1446035893484593688,182,1446035893481518030,robocape,-43.1867093846,22.5552852257,-43.1867093846,0.0,10.0,0.0,0.0,0.0,10.0,0.0,0.0,0.0,10.0,-0.0986701183874,0.749679846857,-0.955009566902,1.0,0.0,0.0,0.0,1.0,0.0,0.0,0.0,1.0,0.972377929688,-4.50982177734,5.80672485352,0.1,0.0,0.0,0.0,0.1,0.0,0.0,0.0,0.1
1446035893517942938,183,1446035893514903068,robocape,-43.1124670765,22.7114501446,-43.1124670765,0.0,10.0,0.0,0.0,0.0,10.0,0.0,0.0,0.0,10.0,-0.120108565163,0.609730731574,-0.865261038167,1.0,0.0,0.0,0.0,1.0,0.0,0.0,0.0,1.0,0.634680175781,-3.99010253906,7.80656616211,0.1,0.0,0.0,0.0,0.1,0.0,0.0,0.0,0.1
1446035893552155147,184,1446035893549021005,robocape,-43.2725783815,22.9713874131,-43.2725783815,0.0,10.0,0.0,0.0,0.0,10.0,0.0,0.0,0.0,10.0,-0.239285023944,0.6725813333,-0.856605764624,1.0,0.0,0.0,0.0,1.0,0.0,0.0,0.0,1.0,1.88488037109,-4.46311889648,8.67835327148,0.1,0.0,0.0,0.0,0.1,0.0,0.0,0.0,0.1
1446035893584110813,185,1446035893581058025,robocape,-43.2430156597,23.1627297955,-43.2430156597,0.0,10.0,0.0,0.0,0.0,10.0,0.0,0.0,0.0,10.0,-0.126500151779,0.693353989802,-0.93690007149,1.0,0.0,0.0,0.0,1.0,0.0,0.0,0.0,1.0,-0.28740234375,-6.34320922852,8.87594238281,0.1,0.0,0.0,0.0,0.1,0.0,0.0,0.0,0.1
1446035893617038355,186,1446035893613996028,robocape,-43.1091686828,23.5382348697,-43.1091686828,0.0,10.0,0.0,0.0,0.0,10.0,0.0,0.0,0.0,10.0,-0.068709556124,0.72491244872,-0.808802023057,1.0,0.0,0.0,0.0,1.0,0.0,0.0,0.0,1.0,-0.683778076172,-4.18409912109,9.5453503418,0.1,0.0,0.0,0.0,0.1,0.0,0.0,0.0,0.1
1446035893652194855,187,1446035893648837089,robocape,-43.0402552028,23.6655469447,-43.0402552028,0.0,10.0,0.0,0.0,0.0,10.0,0.0,0.0,0.0,10.0,-0.110388027184,0.616788108462,-0.885634220506,1.0,0.0,0.0,0.0,1.0,0.0,0.0,0.0,1.0,2.96024414063,-4.39007080078,7.54790405273,0.1,0.0,0.0,0.0,0.1,0.0,0.0,0.0,0.1
1446035893684254355,188,1446035893681138992,robocape,-43.0162883893,23.8159209124,-43.0162883893,0.0,10.0,0.0,0.0,0.0,10.0,0.0,0.0,0.0,10.0,-0.147006492172,0.558598038644,-0.785765679628,1.0,0.0,0.0,0.0,1.0,0.0,0.0,0.0,1.0,0.878972167969,-5.61632080078,7.7023828125,0.1,0.0,0.0,0.0,0.1,0.0,0.0,0.0,0.1
1446035893716923480,189,1446035893713826894,robocape,-43.1289351985,24.0419431399,-43.1289351985,0.0,10.0,0.0,0.0,0.0,10.0,0.0,0.0,0.0,10.0,-0.21611552246,0.596814400287,-0.766724077834,1.0,0.0,0.0,0.0,1.0,0.0,0.0,0.0,1.0,1.28971801758,-5.85462524414,8.93581787109,0.1,0.0,0.0,0.0,0.1,0.0,0.0,0.0,0.1
1446035893749973355,190,1446035893746887922,robocape,-43.0255872617,24.2762743829,-43.0255872617,0.0,10.0,0.0,0.0,0.0,10.0,0.0,0.0,0.0,10.0,-0.0933437962073,0.611728102391,-0.770053029196,1.0,0.0,0.0,0.0,1.0,0.0,0.0,0.0,1.0,1.34719848633,-4.52778442383,9.15376464844,0.1,0.0,0.0,0.0,0.1,0.0,0.0,0.0,0.1
1446035893782860938,191,1446035893779697895,robocape,-42.9989335766,24.3780248172,-42.9989335766,0.0,10.0,0.0,0.0,0.0,10.0,0.0,0.0,0.0,10.0,-0.151267549917,0.497079017463,-0.734499828644,1.0,0.0,0.0,0.0,1.0,0.0,0.0,0.0,1.0,1.61184814453,-4.4032434082,7.30480957031,0.1,0.0,0.0,0.0,0.1,0.0,0.0,0.0,0.1
1446035893816232397,192,1446035893813193082,robocape,-43.1133131716,24.6870782496,-43.1133131716,0.0,10.0,0.0,0.0,0.0,10.0,0.0,0.0,0.0,10.0,-0.21465078386,0.604537567448,-0.689492406222,1.0,0.0,0.0,0.0,1.0,0.0,0.0,0.0,1.0,1.63100830078,-4.42120605469,8.75140136719,0.1,0.0,0.0,0.0,0.1,0.0,0.0,0.0,0.1
1446035893849132355,193,1446035893846026897,robocape,-43.1892540969,24.8512786966,-43.1892540969,0.0,10.0,0.0,0.0,0.0,10.0,0.0,0.0,0.0,10.0,-0.184157589379,0.600010193595,-0.804940439476,1.0,0.0,0.0,0.0,1.0,0.0,0.0,0.0,1.0,-0.05748046875,-6.52044067383,8.55141723633,0.1,0.0,0.0,0.0,0.1,0.0,0.0,0.0,0.1
1446035893881814022,194,1446035893878407001,robocape,-43.2822484262,25.0229248044,-43.2822484262,0.0,10.0,0.0,0.0,0.0,10.0,0.0,0.0,0.0,10.0,-0.19600865623,0.588691758962,-0.779240934957,1.0,0.0,0.0,0.0,1.0,0.0,0.0,0.0,1.0,-0.566422119141,-4.95769042969,8.82564697266,0.1,0.0,0.0,0.0,0.1,0.0,0.0,0.0,0.1
1446035893915077480,195,1446035893911798000,robocape,-43.3759183405,25.1000852456,-43.3759183405,0.0,10.0,0.0,0.0,0.0,10.0,0.0,0.0,0.0,10.0,-0.204397613664,0.52890379249,-0.780173041339,1.0,0.0,0.0,0.0,1.0,0.0,0.0,0.0,1.0,-0.835861816406,-5.07025634766,6.51565063477,0.1,0.0,0.0,0.0,0.1,0.0,0.0,0.0,0.1
1446035893948720272,196,1446035893945420980,robocape,-43.2371813797,25.3540633034,-43.2371813797,0.0,10.0,0.0,0.0,0.0,10.0,0.0,0.0,0.0,10.0,-0.050200586548,0.680304500461,-0.813862029128,1.0,0.0,0.0,0.0,1.0,0.0,0.0,0.0,1.0,1.9124230957,-4.83075439453,9.95729370117,0.1,0.0,0.0,0.0,0.1,0.0,0.0,0.0,0.1
1446035893981526730,197,1446035893978423118,robocape,-43.1772988774,25.7134443354,-43.1772988774,0.0,10.0,0.0,0.0,0.0,10.0,0.0,0.0,0.0,10.0,-0.0946753767523,0.690158196494,-0.732635615881,1.0,0.0,0.0,0.0,1.0,0.0,0.0,0.0,1.0,0.277822265625,-4.41282348633,9.0819140625,0.1,0.0,0.0,0.0,0.1,0.0,0.0,0.0,0.1
1446035894014967188,198,1446035894011770963,robocape,-43.0617741081,26.1798476553,-43.0617741081,0.0,10.0,0.0,0.0,0.0,10.0,0.0,0.0,0.0,10.0,-0.0408795227327,0.793089372626,-0.766457761725,1.0,0.0,0.0,0.0,1.0,0.0,0.0,0.0,1.0,0.0502954101563,-4.61640014648,10.8242907715,0.1,0.0,0.0,0.0,0.1,0.0,0.0,0.0,0.1
1446035894048264188,199,1446035894045027971,robocape,-42.9597137501,26.4385185813,-42.9597137501,0.0,10.0,0.0,0.0,0.0,10.0,0.0,0.0,0.0,10.0,-0.0625842856169,0.664991324193,-0.779640409121,1.0,0.0,0.0,0.0,1.0,0.0,0.0,0.0,1.0,-0.102985839844,-4.48227905273,7.10961547852,0.1,0.0,0.0,0.0,0.1,0.0,0.0,0.0,0.1
1446035894081358147,200,1446035894078272104,robocape,-42.7441916987,26.7117816008,-42.7441916987,0.0,10.0,0.0,0.0,0.0,10.0,0.0,0.0,0.0,10.0,-0.00532632218016,0.640623400219,-0.731570351445,1.0,0.0,0.0,0.0,1.0,0.0,0.0,0.0,1.0,-0.358055419922,-3.21651123047,8.38975341797,0.1,0.0,0.0,0.0,0.1,0.0,0.0,0.0,0.1
1446035894114589480,201,1446035894111490011,robocape,-42.8423008276,26.6904050984,-42.8423008276,0.0,10.0,0.0,0.0,0.0,10.0,0.0,0.0,0.0,10.0,-0.198272343156,0.4671184552,-0.766990393943,1.0,0.0,0.0,0.0,1.0,0.0,0.0,0.0,1.0,1.30049560547,-4.18290161133,9.40763671875,0.1,0.0,0.0,0.0,0.1,0.0,0.0,0.0,0.1
1446035894148741897,202,1446035894145488023,robocape,-42.7123519973,26.7843509632,-42.7123519973,0.0,10.0,0.0,0.0,0.0,10.0,0.0,0.0,0.0,10.0,-0.0569916473277,0.559130670862,-0.779773567175,1.0,0.0,0.0,0.0,1.0,0.0,0.0,0.0,1.0,-0.967587890625,-3.97094238281,7.86644165039,0.1,0.0,0.0,0.0,0.1,0.0,0.0,0.0,0.1
1446035894181692314,203,1446035894178252935,robocape,-42.8450653636,26.8528958961,-42.8450653636,0.0,10.0,0.0,0.0,0.0,10.0,0.0,0.0,0.0,10.0,-0.206528142536,0.5247758928,-0.759134068727,1.0,0.0,0.0,0.0,1.0,0.0,0.0,0.0,1.0,0.570014648438,-3.51229614258,8.98850830078,0.1,0.0,0.0,0.0,0.1,0.0,0.0,0.0,0.1
1446035894214888855,204,1446035894211445093,robocape,-42.5952685202,26.8322216883,-42.5952685202,0.0,10.0,0.0,0.0,0.0,10.0,0.0,0.0,0.0,10.0,0.00479368996214,0.505601132952,-0.805206755585,1.0,0.0,0.0,0.0,1.0,0.0,0.0,0.0,1.0,1.8010546875,-4.38049072266,6.87969360352,0.1,0.0,0.0,0.0,0.1,0.0,0.0,0.0,0.1
1446035894248449397,205,1446035894245076894,robocape,-42.5844078697,26.7811500151,-42.5844078697,0.0,10.0,0.0,0.0,0.0,10.0,0.0,0.0,0.0,10.0,-0.143011750537,0.430100516048,-0.737961938061,1.0,0.0,0.0,0.0,1.0,0.0,0.0,0.0,1.0,2.62374389648,-4.84751953125,8.12989379883,0.1,0.0,0.0,0.0,0.1,0.0,0.0,0.0,0.1
1446035894288084689,206,1446035894278597116,robocape,-42.4938741814,27.1164785567,-42.4938741814,0.0,10.0,0.0,0.0,0.0,10.0,0.0,0.0,0.0,10.0,-0.0617853372898,0.670850278591,-0.708267691907,1.0,0.0,0.0,0.0,1.0,0.0,0.0,0.0,1.0,3.46200073242,-4.99481323242,8.15623901367,0.1,0.0,0.0,0.0,0.1,0.0,0.0,0.0,0.1
1446035894316614605,207,1446035894313417911,robocape,-42.4136343039,27.3442497548,-42.4136343039,0.0,10.0,0.0,0.0,0.0,10.0,0.0,0.0,0.0,10.0,-0.0805606229749,0.584297543163,-0.686962403186,1.0,0.0,0.0,0.0,1.0,0.0,0.0,0.0,1.0,-1.44299926758,-3.51469116211,8.20294189453,0.1,0.0,0.0,0.0,0.1,0.0,0.0,0.0,0.1
1446035894348385189,208,1446035894344969034,robocape,-42.4652672037,27.5171553609,-42.4652672037,0.0,10.0,0.0,0.0,0.0,10.0,0.0,0.0,0.0,10.0,-0.132891738395,0.623046537024,-0.783235676592,1.0,0.0,0.0,0.0,1.0,0.0,0.0,0.0,1.0,1.24181762695,-3.72665039063,8.94060791016,0.1,0.0,0.0,0.0,0.1,0.0,0.0,0.0,0.1
1446035894381727147,209,1446035894378603935,robocape,-42.5062486856,27.6699566609,-42.5062486856,0.0,10.0,0.0,0.0,0.0,10.0,0.0,0.0,0.0,10.0,-0.137685428357,0.580302801528,-0.742089837751,1.0,0.0,0.0,0.0,1.0,0.0,0.0,0.0,1.0,0.829874267578,-6.11328735352,6.98507446289,0.1,0.0,0.0,0.0,0.1,0.0,0.0,0.0,0.1
1446035894414930189,210,1446035894411670923,robocape,-42.476042071,27.7500140011,-42.476042071,0.0,10.0,0.0,0.0,0.0,10.0,0.0,0.0,0.0,10.0,-0.111320133565,0.515454828985,-0.71812138794,1.0,0.0,0.0,0.0,1.0,0.0,0.0,0.0,1.0,-1.15080688477,-5.10977416992,9.54295532227,0.1,0.0,0.0,0.0,0.1,0.0,0.0,0.0,0.1
1446035894448570147,211,1446035894444782018,robocape,-42.2266287108,27.8858817927,-42.2266287108,0.0,10.0,0.0,0.0,0.0,10.0,0.0,0.0,0.0,10.0,0.0195742340121,0.563258570552,-0.727042977592,1.0,0.0,0.0,0.0,1.0,0.0,0.0,0.0,1.0,0.267044677734,-3.57696166992,7.76465332031,0.1,0.0,0.0,0.0,0.1,0.0,0.0,0.0,0.1
1446035894481158272,212,1446035894478045940,robocape,-42.2879839909,28.0169557057,-42.2879839909,0.0,10.0,0.0,0.0,0.0,10.0,0.0,0.0,0.0,10.0,-0.141547011938,0.577639640438,-0.752476166002,1.0,0.0,0.0,0.0,1.0,0.0,0.0,0.0,1.0,0.791553955078,-5.39118896484,10.039921875,0.1,0.0,0.0,0.0,0.1,0.0,0.0,0.0,0.1
1446035894514585064,213,1446035894511475086,robocape,-42.5780825516,28.3311977975,-42.5780825516,0.0,10.0,0.0,0.0,0.0,10.0,0.0,0.0,0.0,10.0,-0.25100293274,0.681103448788,-0.723714026229,1.0,0.0,0.0,0.0,1.0,0.0,0.0,0.0,1.0,-0.0347277832031,-2.53393066406,8.00774780273,0.1,0.0,0.0,0.0,0.1,0.0,0.0,0.0,0.1
1446035894548429730,214,1446035894544668912,robocape,-42.8403268523,28.5304247574,-42.8403268523,0.0,10.0,0.0,0.0,0.0,10.0,0.0,0.0,0.0,10.0,-0.228898695692,0.667920801392,-0.798282536751,1.0,0.0,0.0,0.0,1.0,0.0,0.0,0.0,1.0,0.827479248047,-5.90252563477,9.07353149414,0.1,0.0,0.0,0.0,0.1,0.0,0.0,0.0,0.1
1446035894581231272,215,1446035894578124046,robocape,-42.7616065573,28.634760508,-42.7616065573,0.0,10.0,0.0,0.0,0.0,10.0,0.0,0.0,0.0,10.0,-0.0557932248372,0.601874406358,-0.788295682663,1.0,0.0,0.0,0.0,1.0,0.0,0.0,0.0,1.0,0.481398925781,-4.89661743164,7.80776367188,0.1,0.0,0.0,0.0,0.1,0.0,0.0,0.0,0.1
1446035894614729855,216,1446035894611579895,robocape,-42.5853289588,28.6965019086,-42.5853289588,0.0,10.0,0.0,0.0,0.0,10.0,0.0,0.0,0.0,10.0,0.0157126504315,0.637028132747,-0.868589989529,1.0,0.0,0.0,0.0,1.0,0.0,0.0,0.0,1.0,2.54590576172,-4.32181274414,8.18018920898,0.1,0.0,0.0,0.0,0.1,0.0,0.0,0.0,0.1
1446035894648417147,217,1446035894644690990,robocape,-42.442144212,28.8601673673,-42.442144212,0.0,10.0,0.0,0.0,0.0,10.0,0.0,0.0,0.0,10.0,-0.0430100516048,0.54368433654,-0.663792901702,1.0,0.0,0.0,0.0,1.0,0.0,0.0,0.0,1.0,1.49568969727,-2.76624755859,9.28189819336,0.1,0.0,0.0,0.0,0.1,0.0,0.0,0.0,0.1
1446035894681545439,218,1446035894678199052,robocape,-42.7140385995,28.8669755829,-42.7140385995,0.0,10.0,0.0,0.0,0.0,10.0,0.0,0.0,0.0,10.0,-0.258193467683,0.518916938402,-0.769254080869,1.0,0.0,0.0,0.0,1.0,0.0,0.0,0.0,1.0,1.71243896484,-2.31957641602,8.44483886719,0.1,0.0,0.0,0.0,0.1,0.0,0.0,0.0,0.1
1446035894715523939,219,1446035894711457967,robocape,-43.0326830826,28.9904203313,-43.0326830826,0.0,10.0,0.0,0.0,0.0,10.0,0.0,0.0,0.0,10.0,-0.275637172823,0.587227020362,-0.750611953239,1.0,0.0,0.0,0.0,1.0,0.0,0.0,0.0,1.0,1.30528564453,-4.8702722168,7.6640625,0.1,0.0,0.0,0.0,0.1,0.0,0.0,0.0,0.1
1446035894748446647,220,1446035894744817972,robocape,-43.22692501,28.9191650643,-43.22692501,0.0,10.0,0.0,0.0,0.0,10.0,0.0,0.0,0.0,10.0,-0.206261826427,0.537692224087,-0.848749439408,1.0,0.0,0.0,0.0,1.0,0.0,0.0,0.0,1.0,-0.119750976563,-7.91434204102,8.5035168457,0.1,0.0,0.0,0.0,0.1,0.0,0.0,0.0,0.1
1446035894782480147,221,1446035894778570890,robocape,-42.7154819421,28.9141178445,-42.7154819421,0.0,10.0,0.0,0.0,0.0,10.0,0.0,0.0,0.0,10.0,0.199737081756,0.622114430643,-0.890827384632,1.0,0.0,0.0,0.0,1.0,0.0,0.0,0.0,1.0,0.886157226563,-5.38759643555,7.5143737793,0.1,0.0,0.0,0.0,0.1,0.0,0.0,0.0,0.1
1446035894814730105,222,1446035894811551094,robocape,-42.4854140461,28.9405118155,-42.4854140461,0.0,10.0,0.0,0.0,0.0,10.0,0.0,0.0,0.0,10.0,0.00585895439817,0.501606391316,-0.721583497357,1.0,0.0,0.0,0.0,1.0,0.0,0.0,0.0,1.0,0.393980712891,-1.88248535156,10.9164990234,0.1,0.0,0.0,0.0,0.1,0.0,0.0,0.0,0.1
1446035894848075064,223,1446035894844893932,robocape,-42.6548345024,28.8944476157,-42.6548345024,0.0,10.0,0.0,0.0,0.0,10.0,0.0,0.0,0.0,10.0,-0.20812603919,0.482431631468,-0.76366144258,1.0,0.0,0.0,0.0,1.0,0.0,0.0,0.0,1.0,2.65128662109,-2.91114624023,6.78149780273,0.1,0.0,0.0,0.0,0.1,0.0,0.0,0.0,0.1
1446035894881263939,224,1446035894878170013,robocape,-42.9518228373,28.8004361941,-42.9518228373,0.0,10.0,0.0,0.0,0.0,10.0,0.0,0.0,0.0,10.0,-0.262720841536,0.517052725639,-0.8470183847,1.0,0.0,0.0,0.0,1.0,0.0,0.0,0.0,1.0,-1.75075927734,-7.62334716797,9.91298583984,0.1,0.0,0.0,0.0,0.1,0.0,0.0,0.0,0.1
1446035894914924647,225,1446035894911637067,robocape,-43.1103316831,28.8962186303,-43.1103316831,0.0,10.0,0.0,0.0,0.0,10.0,0.0,0.0,0.0,10.0,-0.194677075685,0.565122783315,-0.739959308879,1.0,0.0,0.0,0.0,1.0,0.0,0.0,0.0,1.0,-1.82380737305,-3.6751574707,9.31662597656,0.1,0.0,0.0,0.0,0.1,0.0,0.0,0.0,0.1
1446035894948095022,226,1446035894944870948,robocape,-43.0501083327,29.0719128245,-43.0501083327,0.0,10.0,0.0,0.0,0.0,10.0,0.0,0.0,0.0,10.0,-0.0443416321498,0.68176923906,-0.811465184147,1.0,0.0,0.0,0.0,1.0,0.0,0.0,0.0,1.0,1.75435180664,-4.75052124023,8.09875854492,0.1,0.0,0.0,0.0,0.1,0.0,0.0,0.0,0.1
1446035894981267647,227,1446035894978148937,robocape,-42.8320722446,29.1796580848,-42.8320722446,0.0,10.0,0.0,0.0,0.0,10.0,0.0,0.0,0.0,10.0,0.0336889877895,0.630636546131,-0.804274649204,1.0,0.0,0.0,0.0,1.0,0.0,0.0,0.0,1.0,0.772393798828,-4.98882568359,9.66390380859,0.1,0.0,0.0,0.0,0.1,0.0,0.0,0.0,0.1
1446035895014885314,228,1446035895011476993,robocape,-42.7502148211,29.1841651791,-42.7502148211,0.0,10.0,0.0,0.0,0.0,10.0,0.0,0.0,0.0,10.0,-0.0565921731642,0.544083810703,-0.787230418227,1.0,0.0,0.0,0.0,1.0,0.0,0.0,0.0,1.0,-1.35797607422,-3.63563964844,6.73359741211,0.1,0.0,0.0,0.0,0.1,0.0,0.0,0.0,0.1
1446035895049577939,229,1446035895045104026,robocape,-42.7843623436,29.3729746338,-42.7843623436,0.0,10.0,0.0,0.0,0.0,10.0,0.0,0.0,0.0,10.0,-0.0974716958969,0.663926059757,-0.780306199393,1.0,0.0,0.0,0.0,1.0,0.0,0.0,0.0,1.0,-0.0694555664063,-2.33634155273,9.39685913086,0.1,0.0,0.0,0.0,0.1,0.0,0.0,0.0,0.1
1446035895082336481,230,1446035895079279899,robocape,-43.0991590458,29.2505405175,-43.0991590458,0.0,10.0,0.0,0.0,0.0,10.0,0.0,0.0,0.0,10.0,-0.245010820287,0.57977016931,-0.941294287289,1.0,0.0,0.0,0.0,1.0,0.0,0.0,0.0,1.0,-0.257464599609,-4.7936315918,10.9164990234,0.1,0.0,0.0,0.0,0.1,0.0,0.0,0.0,0.1
1446035895116067231,231,1446035895112730026,robocape,-43.3891985182,29.4263123935,-43.3891985182,0.0,10.0,0.0,0.0,0.0,10.0,0.0,0.0,0.0,10.0,-0.205729194209,0.761930387872,-0.909602670317,1.0,0.0,0.0,0.0,1.0,0.0,0.0,0.0,1.0,-1.39270385742,-4.71220092773,7.5071887207,0.1,0.0,0.0,0.0,0.1,0.0,0.0,0.0,0.1
1446035895150456647,232,1446035895146327018,robocape,-43.5374776157,29.751974141,-43.5374776157,0.0,10.0,0.0,0.0,0.0,10.0,0.0,0.0,0.0,10.0,-0.120241723217,0.836498898394,-0.867391567039,1.0,0.0,0.0,0.0,1.0,0.0,0.0,0.0,1.0,2.07887695312,-5.54806274414,9.51900512695,0.1,0.0,0.0,0.0,0.1,0.0,0.0,0.0,0.1
1446035895183647522,233,1446035895180593967,robocape,-43.4441913784,29.6513134577,-43.4441913784,0.0,10.0,0.0,0.0,0.0,10.0,0.0,0.0,0.0,10.0,0.00506000607115,0.682568187387,-1.03503755766,1.0,0.0,0.0,0.0,1.0,0.0,0.0,0.0,1.0,0.659827880859,-2.86204833984,8.77774658203,0.1,0.0,0.0,0.0,0.1,0.0,0.0,0.0,0.1
1446035895216567731,234,1446035895212960958,robocape,-43.676032295,29.8769366025,-43.676032295,0.0,10.0,0.0,0.0,0.0,10.0,0.0,0.0,0.0,10.0,-0.18535601187,0.749546688803,-0.846352594427,1.0,0.0,0.0,0.0,1.0,0.0,0.0,0.0,1.0,0.723295898438,-4.35893554688,9.11304931641,0.1,0.0,0.0,0.0,0.1,0.0,0.0,0.0,0.1
1446035895249865814,235,1446035895246423959,robocape,-43.8222900501,30.2142223973,-43.8222900501,0.0,10.0,0.0,0.0,0.0,10.0,0.0,0.0,0.0,10.0,-0.118377510454,0.842757326956,-0.859402083769,1.0,0.0,0.0,0.0,1.0,0.0,0.0,0.0,1.0,-3.46080322266,-3.97812744141,9.95130615234,0.1,0.0,0.0,0.0,0.1,0.0,0.0,0.0,0.1
1446035895292341481,236,1446035895281820058,robocape,-44.0960067576,30.2666514932,-44.0960067576,0.0,10.0,0.0,0.0,0.0,10.0,0.0,0.0,0.0,10.0,-0.2054628781,0.704672424435,-0.927845323784,1.0,0.0,0.0,0.0,1.0,0.0,0.0,0.0,1.0,0.231119384766,-3.22369628906,7.96463745117,0.1,0.0,0.0,0.0,0.1,0.0,0.0,0.0,0.1
1446035895315666189,237,1446035895312352895,robocape,-44.351737299,30.3276043321,-44.351737299,0.0,10.0,0.0,0.0,0.0,10.0,0.0,0.0,0.0,10.0,-0.214783941915,0.662594479212,-0.865793670385,1.0,0.0,0.0,0.0,1.0,0.0,0.0,0.0,1.0,-1.24301513672,-4.19367919922,8.54063964844,0.1,0.0,0.0,0.0,0.1,0.0,0.0,0.0,0.1
1446035895352520439,238,1446035895348432064,robocape,-44.5914312717,30.2173980064,-44.5914312717,0.0,10.0,0.0,0.0,0.0,10.0,0.0,0.0,0.0,10.0,-0.191214966268,0.661129740612,-1.00347909874,1.0,0.0,0.0,0.0,1.0,0.0,0.0,0.0,1.0,1.24660766602,-4.47509399414,8.97653320313,0.1,0.0,0.0,0.0,0.1,0.0,0.0,0.0,0.1
1446035895385013939,239,1446035895381309032,robocape,-44.5959507534,30.226984465,-44.5959507534,0.0,10.0,0.0,0.0,0.0,10.0,0.0,0.0,0.0,10.0,-0.0689758722331,0.690291354549,-0.935568490945,1.0,0.0,0.0,0.0,1.0,0.0,0.0,0.0,1.0,-1.9196081543,-6.21268066406,8.43525878906,0.1,0.0,0.0,0.0,0.1,0.0,0.0,0.0,0.1
1446035895418001356,240,1446035895414810895,robocape,-44.7649390624,30.1136837683,-44.7649390624,0.0,10.0,0.0,0.0,0.0,10.0,0.0,0.0,0.0,10.0,-0.172040206419,0.618386005116,-0.954476934684,1.0,0.0,0.0,0.0,1.0,0.0,0.0,0.0,1.0,-2.75067993164,-4.0966809082,8.80528930664,0.1,0.0,0.0,0.0,0.1,0.0,0.0,0.0,0.1
1446035895453994189,241,1446035895448843002,robocape,-45.0614722962,30.1292022663,-45.0614722962,0.0,10.0,0.0,0.0,0.0,10.0,0.0,0.0,0.0,10.0,-0.245143978342,0.656602366759,-0.89255843934,1.0,0.0,0.0,0.0,1.0,0.0,0.0,0.0,1.0,-2.988984375,-3.85837646484,8.57297241211,0.1,0.0,0.0,0.0,0.1,0.0,0.0,0.0,0.1
1446035895485570856,242,1446035895481693029,robocape,-45.2073348922,29.9898847156,-45.2073348922,0.0,10.0,0.0,0.0,0.0,10.0,0.0,0.0,0.0,10.0,-0.175235999727,0.585495965654,-0.932239539582,1.0,0.0,0.0,0.0,1.0,0.0,0.0,0.0,1.0,-3.1458581543,-5.31574584961,8.98970581055,0.1,0.0,0.0,0.0,0.1,0.0,0.0,0.0,0.1
1446035895517031814,243,1446035895513782978,robocape,-45.2947721339,29.747543505,-45.2947721339,0.0,10.0,0.0,0.0,0.0,10.0,0.0,0.0,0.0,10.0,-0.10879013053,0.667787643337,-1.11493239036,1.0,0.0,0.0,0.0,1.0,0.0,0.0,0.0,1.0,0.995130615234,-7.38983276367,8.2041394043,0.1,0.0,0.0,0.0,0.1,0.0,0.0,0.0,0.1
1446035895552625064,244,1446035895548782110,robocape,-44.9549531115,30.0334744974,-44.9549531115,0.0,10.0,0.0,0.0,0.0,10.0,0.0,0.0,0.0,10.0,0.149669653262,0.898284235684,-0.948351664177,1.0,0.0,0.0,0.0,1.0,0.0,0.0,0.0,1.0,-1.31486572266,-5.31335083008,10.177635498,0.1,0.0,0.0,0.0,0.1,0.0,0.0,0.0,0.1
1446035895585655939,245,1446035895582215070,robocape,-45.0730182042,30.335121367,-45.0730182042,0.0,10.0,0.0,0.0,0.0,10.0,0.0,0.0,0.0,10.0,-0.139949115284,0.772716190286,-0.794021479007,1.0,0.0,0.0,0.0,1.0,0.0,0.0,0.0,1.0,5.52052001953,-3.18178344727,9.32021850586,0.1,0.0,0.0,0.0,0.1,0.0,0.0,0.0,0.1
1446035895618470648,246,1446035895614824056,robocape,-46.0459894356,30.9027735454,-46.0459894356,0.0,10.0,0.0,0.0,0.0,10.0,0.0,0.0,0.0,10.0,-0.577639640438,0.931706907364,-0.759666700945,1.0,0.0,0.0,0.0,1.0,0.0,0.0,0.0,1.0,1.12446166992,-3.33506469727,7.88560180664,0.1,0.0,0.0,0.0,0.1,0.0,0.0,0.0,0.1
1446035895652841314,247,1446035895649185895,robocape,-47.0978833252,30.852892895,-47.0978833252,0.0,10.0,0.0,0.0,0.0,10.0,0.0,0.0,0.0,10.0,-0.637294448856,0.737296147788,-1.02185491026,1.0,0.0,0.0,0.0,1.0,0.0,0.0,0.0,1.0,-1.5328125,-7.55149658203,7.14793579102,0.1,0.0,0.0,0.0,0.1,0.0,0.0,0.0,0.1
1446035895684387273,248,1446035895680922985,robocape,-46.3821923428,30.3533773538,-46.3821923428,0.0,10.0,0.0,0.0,0.0,10.0,0.0,0.0,0.0,10.0,0.403202589038,0.859934715987,-1.50042495815,1.0,0.0,0.0,0.0,1.0,0.0,0.0,0.0,1.0,2.36148925781,0.0526904296875,9.87107299805,0.1,0.0,0.0,0.0,0.1,0.0,0.0,0.0,0.1
1446035895719261939,249,1446035895715817928,robocape,-46.3653800612,30.6220354899,-46.3653800612,0.0,10.0,0.0,0.0,0.0,10.0,0.0,0.0,0.0,10.0,-0.106260127494,0.688693457894,-0.707601901634,1.0,0.0,0.0,0.0,1.0,0.0,0.0,0.0,1.0,0.546064453125,-6.34919677734,5.67978881836,0.1,0.0,0.0,0.0,0.1,0.0,0.0,0.0,0.1
1446035895752233356,250,1446035895748689889,robocape,-46.4364050997,30.5483576962,-46.4364050997,0.0,10.0,0.0,0.0,0.0,10.0,0.0,0.0,0.0,10.0,-0.129296470923,0.664591850029,-0.957406411883,1.0,0.0,0.0,0.0,1.0,0.0,0.0,0.0,1.0,-0.90052734375,-5.03073852539,9.49864746094,0.1,0.0,0.0,0.0,0.1,0.0,0.0,0.0,0.1
1446035895786190523,251,1446035895782035112,robocape,-46.2326534366,30.4594265595,-46.2326534366,0.0,10.0,0.0,0.0,0.0,10.0,0.0,0.0,0.0,10.0,-0.00159789665405,0.59601545196,-0.889362646032,1.0,0.0,0.0,0.0,1.0,0.0,0.0,0.0,1.0,3.07041503906,-3.87154907227,5.2079699707,0.1,0.0,0.0,0.0,0.1,0.0,0.0,0.0,0.1
1446035895817308314,252,1446035895814001083,robocape,-46.0954236358,30.6173775643,-46.0954236358,0.0,10.0,0.0,0.0,0.0,10.0,0.0,0.0,0.0,10.0,-0.0193079179031,0.713061381869,-0.825313621816,1.0,0.0,0.0,0.0,1.0,0.0,0.0,0.0,1.0,-0.409548339844,-5.15168701172,10.5309008789,0.1,0.0,0.0,0.0,0.1,0.0,0.0,0.0,0.1
1446035895850744023,253,1446035895847568988,robocape,-46.3316267538,30.5411315633,-46.3316267538,0.0,10.0,0.0,0.0,0.0,10.0,0.0,0.0,0.0,10.0,-0.247141349159,0.573644898803,-0.859535241823,1.0,0.0,0.0,0.0,1.0,0.0,0.0,0.0,1.0,-0.748443603516,-5.04989868164,7.98499511719,0.1,0.0,0.0,0.0,0.1,0.0,0.0,0.0,0.1
1446035895883583939,254,1446035895880386114,robocape,-46.4786864031,30.71122777,-46.4786864031,0.0,10.0,0.0,0.0,0.0,10.0,0.0,0.0,0.0,10.0,-0.202533400901,0.636096026365,-0.725445080938,1.0,0.0,0.0,0.0,1.0,0.0,0.0,0.0,1.0,-0.184416503906,-5.00199829102,10.3943847656,0.1,0.0,0.0,0.0,0.1,0.0,0.0,0.0,0.1
1446035895916784898,255,1446035895913659095,robocape,-46.558804189,30.7213492801,-46.558804189,0.0,10.0,0.0,0.0,0.0,10.0,0.0,0.0,0.0,10.0,-0.190282859886,0.521047467274,-0.719053494321,1.0,0.0,0.0,0.0,1.0,0.0,0.0,0.0,1.0,2.61296630859,-3.70629272461,6.57193359375,0.1,0.0,0.0,0.0,0.1,0.0,0.0,0.0,0.1
1446035895951099856,256,1446035895947695970,robocape,-46.8718676428,30.6506410328,-46.8718676428,0.0,10.0,0.0,0.0,0.0,10.0,0.0,0.0,0.0,10.0,-0.302668257888,0.54634749763,-0.812663606638,1.0,0.0,0.0,0.0,1.0,0.0,0.0,0.0,1.0,0.0371228027344,-8.56937988281,9.06395141602,0.1,0.0,0.0,0.0,0.1,0.0,0.0,0.0,0.1
1446035895983721814,257,1446035895980606079,robocape,-46.7778363036,30.8066249099,-46.7778363036,0.0,10.0,0.0,0.0,0.0,10.0,0.0,0.0,0.0,10.0,-0.107858024148,0.530768005253,-0.603339144957,1.0,0.0,0.0,0.0,1.0,0.0,0.0,0.0,1.0,1.14002929688,-4.49066162109,7.31319213867,0.1,0.0,0.0,0.0,0.1,0.0,0.0,0.0,0.1
1446035896017476564,258,1446035896014142036,robocape,-46.7429691986,30.8756956499,-46.7429691986,0.0,10.0,0.0,0.0,0.0,10.0,0.0,0.0,0.0,10.0,-0.127831732324,0.537292749923,-0.678307129643,1.0,0.0,0.0,0.0,1.0,0.0,0.0,0.0,1.0,1.6896862793,-5.53369262695,9.64833618164,0.1,0.0,0.0,0.0,0.1,0.0,0.0,0.0,0.1
1446035896050462148,259,1446035896047195911,robocape,-46.6784664987,30.702479208,-46.6784664987,0.0,10.0,0.0,0.0,0.0,10.0,0.0,0.0,0.0,10.0,-0.148471230772,0.359659905215,-0.671382910809,1.0,0.0,0.0,0.0,1.0,0.0,0.0,0.0,1.0,-0.655037841797,-4.79842163086,6.31087646484,0.1,0.0,0.0,0.0,0.1,0.0,0.0,0.0,0.1
1446035896083119189,260,1446035896079878091,robocape,-46.4087554394,30.7922703578,-46.4087554394,0.0,10.0,0.0,0.0,0.0,10.0,0.0,0.0,0.0,10.0,-0.0264984528463,0.455666862513,-0.564057518879,1.0,0.0,0.0,0.0,1.0,0.0,0.0,0.0,1.0,-1.14721435547,-6.36236938477,8.31071777344,0.1,0.0,0.0,0.0,0.1,0.0,0.0,0.0,0.1
1446035896115117439,261,1446035896112087965,robocape,-46.5800066065,30.7924425225,-46.5800066065,0.0,10.0,0.0,0.0,0.0,10.0,0.0,0.0,0.0,10.0,-0.273506643951,0.406265224292,-0.583099120673,1.0,0.0,0.0,0.0,1.0,0.0,0.0,0.0,1.0,0.311352539063,-4.31223266602,8.51189941406,0.1,0.0,0.0,0.0,0.1,0.0,0.0,0.0,0.1
1446035896149211939,262,1446035896146049976,robocape,-46.4651851703,31.1157803661,-46.4651851703,0.0,10.0,0.0,0.0,0.0,10.0,0.0,0.0,0.0,10.0,-0.0675111336335,0.638359713292,-0.576174901839,1.0,0.0,0.0,0.0,1.0,0.0,0.0,0.0,1.0,0.937650146484,-7.04015991211,8.84720214844,0.1,0.0,0.0,0.0,0.1,0.0,0.0,0.0,0.1
1446035896182583981,263,1446035896179434061,robocape,-46.1086358992,31.0985432174,-46.1086358992,0.0,10.0,0.0,0.0,0.0,10.0,0.0,0.0,0.0,10.0,-0.000932106381528,0.346876731983,-0.517185883693,1.0,0.0,0.0,0.0,1.0,0.0,0.0,0.0,1.0,0.0251477050781,-6.41865234375,5.68936889648,0.1,0.0,0.0,0.0,0.1,0.0,0.0,0.0,0.1
1446035896214947231,264,1446035896211735963,robocape,-45.8303768651,31.0369187815,-45.8303768651,0.0,10.0,0.0,0.0,0.0,10.0,0.0,0.0,0.0,10.0,-0.0344879361165,0.348474628637,-0.554470138954,1.0,0.0,0.0,0.0,1.0,0.0,0.0,0.0,1.0,1.11967163086,-5.36244873047,9.45074707031,0.1,0.0,0.0,0.0,0.1,0.0,0.0,0.0,0.1
1446035896248700565,265,1446035896245399951,robocape,-45.6266597089,31.1414391032,-45.6266597089,0.0,10.0,0.0,0.0,0.0,10.0,0.0,0.0,0.0,10.0,-0.0748348266312,0.389487309424,-0.466319506873,1.0,0.0,0.0,0.0,1.0,0.0,0.0,0.0,1.0,-0.507744140625,-5.17922973633,7.49042358398,0.1,0.0,0.0,0.0,0.1,0.0,0.0,0.0,0.1
1446035896287100106,266,1446035896278819084,robocape,-45.3396800909,31.0922698018,-45.3396800909,0.0,10.0,0.0,0.0,0.0,10.0,0.0,0.0,0.0,10.0,-0.0468716351854,0.286955607456,-0.470181090453,1.0,0.0,0.0,0.0,1.0,0.0,0.0,0.0,1.0,-0.967587890625,-5.03193603516,8.04966064453,0.1,0.0,0.0,0.0,0.1,0.0,0.0,0.0,0.1
1446035896317416690,267,1446035896314135074,robocape,-45.2952543818,31.1852558733,-45.2952543818,0.0,10.0,0.0,0.0,0.0,10.0,0.0,0.0,0.0,10.0,-0.138484376684,0.432763677138,-0.52211273171,1.0,0.0,0.0,0.0,1.0,0.0,0.0,0.0,1.0,1.48850463867,-6.55157592773,9.01844604492,0.1,0.0,0.0,0.0,0.1,0.0,0.0,0.0,0.1
1446035896348145231,268,1446035896344912052,robocape,-44.9325786596,31.4053926945,-44.9325786596,0.0,10.0,0.0,0.0,0.0,10.0,0.0,0.0,0.0,10.0,-0.0296942461544,0.292148771582,-0.252201355231,1.0,0.0,0.0,0.0,1.0,0.0,0.0,0.0,1.0,0.468226318359,-5.60793823242,8.05564819336,0.1,0.0,0.0,0.0,0.1,0.0,0.0,0.0,0.1
1446035896381357606,269,1446035896378161907,robocape,-44.5994225689,31.3207944693,-44.5994225689,0.0,10.0,0.0,0.0,0.0,10.0,0.0,0.0,0.0,10.0,-0.00625842856169,0.29001824271,-0.492684801665,1.0,0.0,0.0,0.0,1.0,0.0,0.0,0.0,1.0,2.1842578125,-4.06794067383,6.23184082031,0.1,0.0,0.0,0.0,0.1,0.0,0.0,0.0,0.1
1446035896414454940,270,1446035896411429882,robocape,-44.3563857464,31.2455690733,-44.3563857464,0.0,10.0,0.0,0.0,0.0,10.0,0.0,0.0,0.0,10.0,-0.0949416928613,0.180828638016,-0.358594640779,1.0,0.0,0.0,0.0,1.0,0.0,0.0,0.0,1.0,1.95313842773,-5.08462646484,8.507109375,0.1,0.0,0.0,0.0,0.1,0.0,0.0,0.0,0.1
1446035896447967231,271,1446035896444751024,robocape,-43.9337412376,31.2818329419,-43.9337412376,0.0,10.0,0.0,0.0,0.0,10.0,0.0,0.0,0.0,10.0,0.0559263828917,0.343281464511,-0.45233791115,1.0,0.0,0.0,0.0,1.0,0.0,0.0,0.0,1.0,-0.0610729980469,-5.72529418945,7.00303710938,0.1,0.0,0.0,0.0,0.1,0.0,0.0,0.0,0.1
1446035896481578731,272,1446035896478359937,robocape,-43.7269796504,31.3458471809,-43.7269796504,0.0,10.0,0.0,0.0,0.0,10.0,0.0,0.0,0.0,10.0,-0.0744353524677,0.310657741158,-0.392283628569,1.0,0.0,0.0,0.0,1.0,0.0,0.0,0.0,1.0,0.413140869141,-5.79235473633,9.53098022461,0.1,0.0,0.0,0.0,0.1,0.0,0.0,0.0,0.1
1446035896514507440,273,1446035896511399984,robocape,-43.4949046557,31.5503978835,-43.4949046557,0.0,10.0,0.0,0.0,0.0,10.0,0.0,0.0,0.0,10.0,-0.0314253008629,0.423575771377,-0.406664698455,1.0,0.0,0.0,0.0,1.0,0.0,0.0,0.0,1.0,0.205971679688,-3.6823425293,7.24972412109,0.1,0.0,0.0,0.0,0.1,0.0,0.0,0.0,0.1
1446035896547982481,274,1446035896544754028,robocape,-43.1685303053,31.4412600258,-43.1685303053,0.0,10.0,0.0,0.0,0.0,10.0,0.0,0.0,0.0,10.0,0.0292947719909,0.332229345987,-0.553804348682,1.0,0.0,0.0,0.0,1.0,0.0,0.0,0.0,1.0,0.0155676269531,-5.49297729492,6.64977172852,0.1,0.0,0.0,0.0,0.1,0.0,0.0,0.0,0.1
1446035896581553815,275,1446035896578325986,robocape,-42.92298233,31.5452923979,-42.92298233,0.0,10.0,0.0,0.0,0.0,10.0,0.0,0.0,0.0,10.0,0.0237021337017,0.490953746956,-0.568052260514,1.0,0.0,0.0,0.0,1.0,0.0,0.0,0.0,1.0,-0.722098388672,-9.10825927734,9.55133789063,0.1,0.0,0.0,0.0,0.1,0.0,0.0,0.0,0.1
1446035896614764023,276,1446035896611696004,robocape,-42.8314399824,31.8003777851,-42.8314399824,0.0,10.0,0.0,0.0,0.0,10.0,0.0,0.0,0.0,10.0,-0.111719607729,0.412789968962,-0.351004631672,1.0,0.0,0.0,0.0,1.0,0.0,0.0,0.0,1.0,-1.27415039063,-5.04031860352,8.45561645508,0.1,0.0,0.0,0.0,0.1,0.0,0.0,0.0,0.1
1446035896648209523,277,1446035896645015001,robocape,-43.0030662692,31.8631907062,-43.0030662692,0.0,10.0,0.0,0.0,0.0,10.0,0.0,0.0,0.0,10.0,-0.248206613595,0.358860956888,-0.443016847335,1.0,0.0,0.0,0.0,1.0,0.0,0.0,0.0,1.0,-0.549656982422,-3.73982299805,8.43046875,0.1,0.0,0.0,0.0,0.1,0.0,0.0,0.0,0.1
1446035896681325398,278,1446035896678147077,robocape,-43.344829542,31.8430524365,-43.344829542,0.0,10.0,0.0,0.0,0.0,10.0,0.0,0.0,0.0,10.0,-0.277368227532,0.484429002285,-0.65633605065,1.0,0.0,0.0,0.0,1.0,0.0,0.0,0.0,1.0,1.34959350586,-8.71188354492,8.46040649414,0.1,0.0,0.0,0.0,0.1,0.0,0.0,0.0,0.1
1446035896714946481,279,1446035896711908102,robocape,-42.8541907169,31.9977960582,-42.8541907169,0.0,10.0,0.0,0.0,0.0,10.0,0.0,0.0,0.0,10.0,0.138484376684,0.45500107224,-0.470713722672,1.0,0.0,0.0,0.0,1.0,0.0,0.0,0.0,1.0,-1.51125732422,-6.03185668945,8.48076416016,0.1,0.0,0.0,0.0,0.1,0.0,0.0,0.0,0.1
1446035896749312481,280,1446035896746042966,robocape,-42.8051316033,32.1497174821,-42.8051316033,0.0,10.0,0.0,0.0,0.0,10.0,0.0,0.0,0.0,10.0,-0.084821680719,0.48576058283,-0.512525351786,1.0,0.0,0.0,0.0,1.0,0.0,0.0,0.0,1.0,0.279019775391,-2.91833129883,8.660390625,0.1,0.0,0.0,0.0,0.1,0.0,0.0,0.0,0.1
1446035896781941815,281,1446035896778326034,robocape,-42.9652645478,32.0161467912,-42.9652645478,0.0,10.0,0.0,0.0,0.0,10.0,0.0,0.0,0.0,10.0,-0.163118616767,0.467384771309,-0.724779290665,1.0,0.0,0.0,0.0,1.0,0.0,0.0,0.0,1.0,0.370030517578,-4.80081665039,8.47956665039,0.1,0.0,0.0,0.0,0.1,0.0,0.0,0.0,0.1
1446035896814709856,282,1446035896811453104,robocape,-43.1421700145,32.0773728063,-43.1421700145,0.0,10.0,0.0,0.0,0.0,10.0,0.0,0.0,0.0,10.0,-0.215050258024,0.440486844299,-0.53276537607,1.0,0.0,0.0,0.0,1.0,0.0,0.0,0.0,1.0,1.18553466797,-6.08574462891,7.59580444336,0.1,0.0,0.0,0.0,0.1,0.0,0.0,0.0,0.1
1446035896847879731,283,1446035896844731092,robocape,-43.0694718417,32.1317073673,-43.0694718417,0.0,10.0,0.0,0.0,0.0,10.0,0.0,0.0,0.0,10.0,-0.0639158661619,0.473643199871,-0.572712792422,1.0,0.0,0.0,0.0,1.0,0.0,0.0,0.0,1.0,0.893342285156,-5.76002197266,7.76944335938,0.1,0.0,0.0,0.0,0.1,0.0,0.0,0.0,0.1
1446035896881207356,284,1446035896878129959,robocape,-42.8731014889,32.3433459461,-42.8731014889,0.0,10.0,0.0,0.0,0.0,10.0,0.0,0.0,0.0,10.0,0.0199737081756,0.562725938334,-0.547013287902,1.0,0.0,0.0,0.0,1.0,0.0,0.0,0.0,1.0,-0.834664306641,-5.08821899414,9.07113647461,0.1,0.0,0.0,0.0,0.1,0.0,0.0,0.0,0.1
1446035896914309106,285,1446035896911298990,robocape,-42.9287980551,32.5296919742,-42.9287980551,0.0,10.0,0.0,0.0,0.0,10.0,0.0,0.0,0.0,10.0,-0.0952080089703,0.600010193595,-0.6119944185,1.0,0.0,0.0,0.0,1.0,0.0,0.0,0.0,1.0,0.962797851563,-5.01397338867,7.90715698242,0.1,0.0,0.0,0.0,0.1,0.0,0.0,0.0,0.1
1446035896947946357,286,1446035896944647073,robocape,-42.9614012432,32.4924660908,-42.9614012432,0.0,10.0,0.0,0.0,0.0,10.0,0.0,0.0,0.0,10.0,-0.127964890378,0.417583658924,-0.579104379038,1.0,0.0,0.0,0.0,1.0,0.0,0.0,0.0,1.0,-0.451461181641,-4.79243408203,7.3155871582,0.1,0.0,0.0,0.0,0.1,0.0,0.0,0.0,0.1
1446035896981440190,287,1446035896978192090,robocape,-42.7840788146,32.288223235,-42.7840788146,0.0,10.0,0.0,0.0,0.0,10.0,0.0,0.0,0.0,10.0,0.0135821215594,0.419181555578,-0.716257175177,1.0,0.0,0.0,0.0,1.0,0.0,0.0,0.0,1.0,0.347277832031,-3.77455078125,7.06770263672,0.1,0.0,0.0,0.0,0.1,0.0,0.0,0.0,0.1
1446035897014700648,288,1446035897011431932,robocape,-42.5985734317,32.2095244816,-42.5985734317,0.0,10.0,0.0,0.0,0.0,10.0,0.0,0.0,0.0,10.0,0.0186421276306,0.462591081347,-0.668187117501,1.0,0.0,0.0,0.0,1.0,0.0,0.0,0.0,1.0,-1.8741027832,-6.39110961914,5.94563598633,0.1,0.0,0.0,0.0,0.1,0.0,0.0,0.0,0.1
1446035897048236482,289,1446035897044684886,robocape,-42.4820664745,32.4094097291,-42.4820664745,0.0,10.0,0.0,0.0,0.0,10.0,0.0,0.0,0.0,10.0,-0.0577905956547,0.469515300181,-0.449541592005,1.0,0.0,0.0,0.0,1.0,0.0,0.0,0.0,1.0,-1.98547119141,-3.30153442383,9.06874145508,0.1,0.0,0.0,0.0,0.1,0.0,0.0,0.0,0.1
1446035897081704440,290,1446035897078233957,robocape,-42.8547356676,32.2439273031,-42.8547356676,0.0,10.0,0.0,0.0,0.0,10.0,0.0,0.0,0.0,10.0,-0.322109333845,0.342615674239,-0.600143351649,1.0,0.0,0.0,0.0,1.0,0.0,0.0,0.0,1.0,-2.13036987305,-5.0930090332,7.06770263672,0.1,0.0,0.0,0.0,0.1,0.0,0.0,0.0,0.1
1446035897114657273,291,1446035897111248970,robocape,-43.1848180401,32.1194492288,-43.1848180401,0.0,10.0,0.0,0.0,0.0,10.0,0.0,0.0,0.0,10.0,-0.304532470651,0.353135160545,-0.576174901839,1.0,0.0,0.0,0.0,1.0,0.0,0.0,0.0,1.0,-0.950822753906,-5.56722290039,9.38368652344,0.1,0.0,0.0,0.0,0.1,0.0,0.0,0.0,0.1
1446035897148101982,292,1446035897144663095,robocape,-43.0810236096,32.1370769993,-43.0810236096,0.0,10.0,0.0,0.0,0.0,10.0,0.0,0.0,0.0,10.0,-0.0178431793035,0.522512205874,-0.652607625124,1.0,0.0,0.0,0.0,1.0,0.0,0.0,0.0,1.0,-0.147293701172,-5.21994506836,9.34895874023,0.1,0.0,0.0,0.0,0.1,0.0,0.0,0.0,0.1
1446035897181309398,293,1446035897178051948,robocape,-43.0910997031,32.4557515143,-43.0910997031,0.0,10.0,0.0,0.0,0.0,10.0,0.0,0.0,0.0,10.0,-0.102664860023,0.573378582694,-0.467517929363,1.0,0.0,0.0,0.0,1.0,0.0,0.0,0.0,1.0,-1.03943847656,-8.05205566406,8.14905395508,0.1,0.0,0.0,0.0,0.1,0.0,0.0,0.0,0.1
1446035897214406398,294,1446035897211265087,robocape,-42.8544708192,32.6697952436,-42.8544708192,0.0,10.0,0.0,0.0,0.0,10.0,0.0,0.0,0.0,10.0,0.0464721610219,0.564856467206,-0.538091698251,1.0,0.0,0.0,0.0,1.0,0.0,0.0,0.0,1.0,-0.803529052734,-4.66190551758,8.26760742188,0.1,0.0,0.0,0.0,0.1,0.0,0.0,0.0,0.1
1446035897248052857,295,1446035897244903087,robocape,-42.7917942831,32.6473911912,-42.7917942831,0.0,10.0,0.0,0.0,0.0,10.0,0.0,0.0,0.0,10.0,-0.0922785317712,0.377103610355,-0.512791667895,1.0,0.0,0.0,0.0,1.0,0.0,0.0,0.0,1.0,0.335302734375,-5.32532592773,5.441484375,0.1,0.0,0.0,0.0,0.1,0.0,0.0,0.0,0.1
1446035897288164357,296,1446035897278064966,robocape,-42.8962973367,32.6529760929,-42.8962973367,0.0,10.0,0.0,0.0,0.0,10.0,0.0,0.0,0.0,10.0,-0.203332349228,0.34088461953,-0.447677379242,1.0,0.0,0.0,0.0,1.0,0.0,0.0,0.0,1.0,0.0395178222656,-6.17436035156,9.03760620117,0.1,0.0,0.0,0.0,0.1,0.0,0.0,0.0,0.1
1446035897317178357,297,1446035897314049005,robocape,-43.0615618297,32.7675861785,-43.0615618297,0.0,10.0,0.0,0.0,0.0,10.0,0.0,0.0,0.0,10.0,-0.276169805041,0.291083507146,-0.298939832361,1.0,0.0,0.0,0.0,1.0,0.0,0.0,0.0,1.0,-0.725690917969,-6.08215209961,6.37554199219,0.1,0.0,0.0,0.0,0.1,0.0,0.0,0.0,0.1
1446035897348175982,298,1446035897345123052,robocape,-42.8988729313,32.9365557487,-42.8988729313,0.0,10.0,0.0,0.0,0.0,10.0,0.0,0.0,0.0,10.0,-0.101066963369,0.300804045124,-0.260190838501,1.0,0.0,0.0,0.0,1.0,0.0,0.0,0.0,1.0,-2.26568847656,-7.18026855469,7.87482421875,0.1,0.0,0.0,0.0,0.1,0.0,0.0,0.0,0.1
1446035897381257607,299,1446035897378211975,robocape,-42.5589910573,32.9774037657,-42.5589910573,0.0,10.0,0.0,0.0,0.0,10.0,0.0,0.0,0.0,10.0,-0.0609863889628,0.125701203452,-0.156860188206,1.0,0.0,0.0,0.0,1.0,0.0,0.0,0.0,1.0,0.775986328125,-5.6366784668,7.32995727539,0.1,0.0,0.0,0.0,0.1,0.0,0.0,0.0,0.1
1446035897415631065,300,1446035897411765098,robocape,-42.0602889093,33.2890523756,-42.0602889093,0.0,10.0,0.0,0.0,0.0,10.0,0.0,0.0,0.0,10.0,0.035153726389,0.239285023944,-0.0644484983799,1.0,0.0,0.0,0.0,1.0,0.0,0.0,0.0,1.0,-2.23215820313,-4.87985229492,6.64617919922,0.1,0.0,0.0,0.0,0.1,0.0,0.0,0.0,0.1
1446035897449116898,301,1446035897446073055,robocape,-41.9241644016,33.4296089911,-41.9241644016,0.0,10.0,0.0,0.0,0.0,10.0,0.0,0.0,0.0,10.0,-0.118510668509,0.262321367373,-0.227300799038,1.0,0.0,0.0,0.0,1.0,0.0,0.0,0.0,1.0,-2.17108520508,-6.86412597656,9.85670288086,0.1,0.0,0.0,0.0,0.1,0.0,0.0,0.0,0.1
1446035897481643982,302,1446035897478462934,robocape,-41.4968739571,33.6442323226,-41.4968739571,0.0,10.0,0.0,0.0,0.0,10.0,0.0,0.0,0.0,10.0,-0.0617853372898,0.0780306199393,0.0536626959651,1.0,0.0,0.0,0.0,1.0,0.0,0.0,0.0,1.0,-1.15080688477,-4.32899780273,6.55397094727,0.1,0.0,0.0,0.0,0.1,0.0,0.0,0.0,0.1
1446035897516611482,303,1446035897513149023,robocape,-41.3296107217,33.6686928462,-41.3296107217,0.0,10.0,0.0,0.0,0.0,10.0,0.0,0.0,0.0,10.0,-0.14753912439,0.112784872165,-0.137552270303,1.0,0.0,0.0,0.0,1.0,0.0,0.0,0.0,1.0,-1.93757080078,-4.23918457031,9.07951904297,0.1,0.0,0.0,0.0,0.1,0.0,0.0,0.0,0.1
1446035897549570690,304,1446035897546410083,robocape,-40.6493914147,33.8507310462,-40.6493914147,0.0,10.0,0.0,0.0,0.0,10.0,0.0,0.0,0.0,10.0,0.124502780961,0.15433018517,-0.052064799311,1.0,0.0,0.0,0.0,1.0,0.0,0.0,0.0,1.0,-0.302969970703,-6.68809204102,7.97302001953,0.1,0.0,0.0,0.0,0.1,0.0,0.0,0.0,0.1
1446035897583284065,305,1446035897579905986,robocape,-39.9708265846,33.7686745837,-39.9708265846,0.0,10.0,0.0,0.0,0.0,10.0,0.0,0.0,0.0,10.0,0.0942759025888,-0.0130494893414,-0.0637827081074,1.0,0.0,0.0,0.0,1.0,0.0,0.0,0.0,1.0,1.839375,-7.29882202148,7.53233642578,0.1,0.0,0.0,0.0,0.1,0.0,0.0,0.0,0.1
1446035897614522148,306,1446035897611299037,robocape,-39.4133225591,33.8955048709,-39.4133225591,0.0,10.0,0.0,0.0,0.0,10.0,0.0,0.0,0.0,10.0,0.0547279604011,0.112119081892,-0.0383495196971,1.0,0.0,0.0,0.0,1.0,0.0,0.0,0.0,1.0,-0.78556640625,-6.25100097656,7.92751464844,0.1,0.0,0.0,0.0,0.1,0.0,0.0,0.0,0.1
1446035897647912274,307,1446035897644682884,robocape,-39.1290522082,33.8496171814,-39.1290522082,0.0,10.0,0.0,0.0,0.0,10.0,0.0,0.0,0.0,10.0,-0.083223784065,0.0548611184556,-0.10879013053,1.0,0.0,0.0,0.0,1.0,0.0,0.0,0.0,1.0,-0.547261962891,-6.72401733398,8.73822875977,0.1,0.0,0.0,0.0,0.1,0.0,0.0,0.0,0.1
1446035897681518607,308,1446035897678400993,robocape,-38.6046014464,33.4906928932,-38.6046014464,0.0,10.0,0.0,0.0,0.0,10.0,0.0,0.0,0.0,10.0,0.121706461817,0.0528637476381,-0.365918333777,1.0,0.0,0.0,0.0,1.0,0.0,0.0,0.0,1.0,1.03584594727,-7.86524414063,7.02818481445,0.1,0.0,0.0,0.0,0.1,0.0,0.0,0.0,0.1
1446035897714699399,309,1446035897711321115,robocape,-38.2251512967,33.477438072,-38.2251512967,0.0,10.0,0.0,0.0,0.0,10.0,0.0,0.0,0.0,10.0,0.0652474467069,0.22823290542,-0.295610880999,1.0,0.0,0.0,0.0,1.0,0.0,0.0,0.0,1.0,0.516126708984,-3.95776977539,10.9320666504,0.1,0.0,0.0,0.0,0.1,0.0,0.0,0.0,0.1
1446035897747958815,310,1446035897744816064,robocape,-38.079841597,33.2973773738,-38.079841597,0.0,10.0,0.0,0.0,0.0,10.0,0.0,0.0,0.0,10.0,-0.0565921731642,0.162186510386,-0.354733057199,1.0,0.0,0.0,0.0,1.0,0.0,0.0,0.0,1.0,-1.69567382813,-4.41402099609,6.71802978516,0.1,0.0,0.0,0.0,0.1,0.0,0.0,0.0,0.1
1446035897782607065,311,1446035897778578042,robocape,-38.1035798828,33.0677979178,-38.1035798828,0.0,10.0,0.0,0.0,0.0,10.0,0.0,0.0,0.0,10.0,-0.0557932248372,0.306130367305,-0.580968591801,1.0,0.0,0.0,0.0,1.0,0.0,0.0,0.0,1.0,-0.475411376953,-6.97309936523,12.2086120605,0.1,0.0,0.0,0.0,0.1,0.0,0.0,0.0,0.1
1446035897814605732,312,1446035897811310052,robocape,-37.7402001945,32.752737836,-37.7402001945,0.0,10.0,0.0,0.0,0.0,10.0,0.0,0.0,0.0,10.0,0.177366528599,0.311057215321,-0.663393427539,1.0,0.0,0.0,0.0,1.0,0.0,0.0,0.0,1.0,1.63460083008,-3.57217163086,7.03297485352,0.1,0.0,0.0,0.0,0.1,0.0,0.0,0.0,0.1
1446035897848226982,313,1446035897844882011,robocape,-37.5516187334,32.567292297,-37.5516187334,0.0,10.0,0.0,0.0,0.0,10.0,0.0,0.0,0.0,10.0,0.176567580272,0.536626959651,-0.85087996828,1.0,0.0,0.0,0.0,1.0,0.0,0.0,0.0,1.0,-0.505349121094,-3.40571777344,9.83514770508,0.1,0.0,0.0,0.0,0.1,0.0,0.0,0.0,0.1
1446035897881356732,314,1446035897878087997,robocape,-37.9693841762,32.5178277217,-37.9693841762,0.0,10.0,0.0,0.0,0.0,10.0,0.0,0.0,0.0,10.0,-0.109455920802,0.683500293769,-0.930242168765,1.0,0.0,0.0,0.0,1.0,0.0,0.0,0.0,1.0,-2.97700927734,-7.26050170898,8.55620727539,0.1,0.0,0.0,0.0,0.1,0.0,0.0,0.0,0.1
1446035897915040690,315,1446035897911742925,robocape,-38.4690087185,32.5126328638,-38.4690087185,0.0,10.0,0.0,0.0,0.0,10.0,0.0,0.0,0.0,10.0,-0.13009541925,0.766590919779,-0.995489615472,1.0,0.0,0.0,0.0,1.0,0.0,0.0,0.0,1.0,-0.222736816406,-4.76369384766,7.86883666992,0.1,0.0,0.0,0.0,0.1,0.0,0.0,0.0,0.1
1446035897947934940,316,1446035897944664001,robocape,-39.1551764084,32.3378143042,-39.1551764084,0.0,10.0,0.0,0.0,0.0,10.0,0.0,0.0,0.0,10.0,-0.241948185034,0.703207685835,-1.05554389805,1.0,0.0,0.0,0.0,1.0,0.0,0.0,0.0,1.0,-1.01309326172,-2.77822265625,7.75507324219,0.1,0.0,0.0,0.0,0.1,0.0,0.0,0.0,0.1
1446035897981303815,317,1446035897978183984,robocape,-39.9726861664,32.3892397929,-39.9726861664,0.0,10.0,0.0,0.0,0.0,10.0,0.0,0.0,0.0,10.0,-0.258326625738,0.939030600362,-1.15035243286,1.0,0.0,0.0,0.0,1.0,0.0,0.0,0.0,1.0,0.701740722656,-5.41513916016,11.3056896973,0.1,0.0,0.0,0.0,0.1,0.0,0.0,0.0,0.1
1446035898014633565,318,1446035898011481046,robocape,-40.6511300322,32.3141754634,-40.6511300322,0.0,10.0,0.0,0.0,0.0,10.0,0.0,0.0,0.0,10.0,-0.192679704867,0.905075296463,-1.20334933855,1.0,0.0,0.0,0.0,1.0,0.0,0.0,0.0,1.0,0.00718505859375,-4.10506347656,8.94300292969,0.1,0.0,0.0,0.0,0.1,0.0,0.0,0.0,0.1
1446035898047839982,319,1446035898044594049,robocape,-41.3698317353,32.2995704713,-41.3698317353,0.0,10.0,0.0,0.0,0.0,10.0,0.0,0.0,0.0,10.0,-0.221708160749,0.951281141376,-1.20148512579,1.0,0.0,0.0,0.0,1.0,0.0,0.0,0.0,1.0,-1.20828735352,-3.16382080078,9.13939453125,0.1,0.0,0.0,0.0,0.1,0.0,0.0,0.0,0.1
1446035898081121357,320,1446035898078023910,robocape,-42.1280851227,32.3018296427,-42.1280851227,0.0,10.0,0.0,0.0,0.0,10.0,0.0,0.0,0.0,10.0,-0.260590312664,0.958205360211,-1.18683773979,1.0,0.0,0.0,0.0,1.0,0.0,0.0,0.0,1.0,-1.8741027832,-4.32420776367,8.70948852539,0.1,0.0,0.0,0.0,0.1,0.0,0.0,0.0,0.1
1446035898114319399,321,1446035898111227989,robocape,-42.6114883045,32.4882732253,-42.6114883045,0.0,10.0,0.0,0.0,0.0,10.0,0.0,0.0,0.0,10.0,-0.0828243099015,1.11799502562,-1.21333619264,1.0,0.0,0.0,0.0,1.0,0.0,0.0,0.0,1.0,2.78301269531,-3.66078735352,8.37658081055,0.1,0.0,0.0,0.0,0.1,0.0,0.0,0.0,0.1
1446035898147978690,322,1446035898144659996,robocape,-43.141800921,32.684432336,-43.141800921,0.0,10.0,0.0,0.0,0.0,10.0,0.0,0.0,0.0,10.0,-0.240483446434,0.845953120264,-0.88310421747,1.0,0.0,0.0,0.0,1.0,0.0,0.0,0.0,1.0,-0.681383056641,-2.11480224609,7.6293347168,0.1,0.0,0.0,0.0,0.1,0.0,0.0,0.0,0.1
1446035898182902024,323,1446035898179390907,robocape,-44.0442897556,32.7410745399,-44.0442897556,0.0,10.0,0.0,0.0,0.0,10.0,0.0,0.0,0.0,10.0,-0.570582263549,0.527838528054,-0.623712327297,1.0,0.0,0.0,0.0,1.0,0.0,0.0,0.0,1.0,1.39749389648,-5.77319458008,7.46767089844,0.1,0.0,0.0,0.0,0.1,0.0,0.0,0.0,0.1
1446035898214870440,324,1446035898211262941,robocape,-44.4816692745,33.1260300909,-44.4816692745,0.0,10.0,0.0,0.0,0.0,10.0,0.0,0.0,0.0,10.0,-0.300271412906,0.694152938129,-0.53542853716,1.0,0.0,0.0,0.0,1.0,0.0,0.0,0.0,1.0,-2.85606079102,-7.30720458984,9.26633056641,0.1,0.0,0.0,0.0,0.1,0.0,0.0,0.0,0.1
1446035898248178149,325,1446035898244767904,robocape,-44.3055490962,33.6167208959,-44.3055490962,0.0,10.0,0.0,0.0,0.0,10.0,0.0,0.0,0.0,10.0,-0.0697748205601,0.491752695283,-0.215716048296,1.0,0.0,0.0,0.0,1.0,0.0,0.0,0.0,1.0,-0.458646240234,-4.00088012695,9.46631469727,0.1,0.0,0.0,0.0,0.1,0.0,0.0,0.0,0.1
1446035898289968690,326,1446035898279339075,robocape,-43.9227837037,33.9288343257,-43.9227837037,0.0,10.0,0.0,0.0,0.0,10.0,0.0,0.0,0.0,10.0,-0.0600542825813,0.199603923701,-0.0259658206283,1.0,0.0,0.0,0.0,1.0,0.0,0.0,0.0,1.0,-2.13875244141,-5.38639892578,7.23655151367,0.1,0.0,0.0,0.0,0.1,0.0,0.0,0.0,0.1
1446035898317770066,327,1446035898314440965,robocape,-43.6137406644,34.2657926762,-43.6137406644,0.0,10.0,0.0,0.0,0.0,10.0,0.0,0.0,0.0,10.0,-0.118377510454,0.167379674511,0.0352868844435,1.0,0.0,0.0,0.0,1.0,0.0,0.0,0.0,1.0,0.354462890625,-7.50000366211,6.99106201172,0.1,0.0,0.0,0.0,0.1,0.0,0.0,0.0,0.1
1446035898347878982,328,1446035898344715118,robocape,-43.0769623639,34.5264076176,-43.0769623639,0.0,10.0,0.0,0.0,0.0,10.0,0.0,0.0,0.0,10.0,-0.0033289513626,0.119709090999,0.0360858327706,1.0,0.0,0.0,0.0,1.0,0.0,0.0,0.0,1.0,1.42862915039,-7.93709472656,7.99457519531,0.1,0.0,0.0,0.0,0.1,0.0,0.0,0.0,0.1
1446035898381280857,329,1446035898378107070,robocape,-42.2728313254,34.7482491044,-42.2728313254,0.0,10.0,0.0,0.0,0.0,10.0,0.0,0.0,0.0,10.0,0.0735032460862,-0.034088461953,0.187752856851,1.0,0.0,0.0,0.0,1.0,0.0,0.0,0.0,1.0,-0.882564697266,-7.16350341797,6.29051879883,0.1,0.0,0.0,0.0,0.1,0.0,0.0,0.0,0.1
1446035898414486857,330,1446035898411423921,robocape,-41.5872692634,34.8831260803,-41.5872692634,0.0,10.0,0.0,0.0,0.0,10.0,0.0,0.0,0.0,10.0,0.0573911214912,0.0243679239742,0.0607200728538,1.0,0.0,0.0,0.0,1.0,0.0,0.0,0.0,1.0,-1.41186401367,-5.07265136719,8.16941162109,0.1,0.0,0.0,0.0,0.1,0.0,0.0,0.0,0.1
1446035898447711607,331,1446035898444680929,robocape,-40.8177614636,35.0068321738,-40.8177614636,0.0,10.0,0.0,0.0,0.0,10.0,0.0,0.0,0.0,10.0,0.0588558600908,-0.0664458691975,0.165249145639,1.0,0.0,0.0,0.0,1.0,0.0,0.0,0.0,1.0,0.684975585938,-5.21635253906,7.16829345703,0.1,0.0,0.0,0.0,0.1,0.0,0.0,0.0,0.1
1446035898481122482,332,1446035898477994918,robocape,-40.2107357363,35.0125097425,-40.2107357363,0.0,10.0,0.0,0.0,0.0,10.0,0.0,0.0,0.0,10.0,-0.0243679239742,-0.108257498312,0.127165942051,1.0,0.0,0.0,0.0,1.0,0.0,0.0,0.0,1.0,-1.6513659668,-8.32389038086,7.84249145508,0.1,0.0,0.0,0.0,0.1,0.0,0.0,0.0,0.1
1446035898514863899,333,1446035898511774063,robocape,-39.5473333808,34.9437572758,-39.5473333808,0.0,10.0,0.0,0.0,0.0,10.0,0.0,0.0,0.0,10.0,0.0249005561922,-0.11145329162,0.0780306199393,1.0,0.0,0.0,0.0,1.0,0.0,0.0,0.0,1.0,-0.0922082519531,-4.53975952148,8.47836914063,0.1,0.0,0.0,0.0,0.1,0.0,0.0,0.0,0.1
1446035898547863316,334,1446035898544740915,robocape,-38.8867105834,35.2852970578,-38.8867105834,0.0,10.0,0.0,0.0,0.0,10.0,0.0,0.0,0.0,10.0,0.00359526747161,0.0202400242846,0.264851370408,1.0,0.0,0.0,0.0,1.0,0.0,0.0,0.0,1.0,-0.407153320313,-7.57424926758,7.26050170898,0.1,0.0,0.0,0.0,0.1,0.0,0.0,0.0,0.1
1446035898583098107,335,1446035898579941987,robocape,-38.4287581422,35.5043423663,-38.4287581422,0.0,10.0,0.0,0.0,0.0,10.0,0.0,0.0,0.0,10.0,-0.0785632521573,0.0178431793035,0.174570209455,1.0,0.0,0.0,0.0,1.0,0.0,0.0,0.0,1.0,1.58430541992,-4.36013305664,6.38631958008,0.1,0.0,0.0,0.0,0.1,0.0,0.0,0.0,0.1
1446035898616048774,336,1446035898612786054,robocape,-37.7571912474,35.184392902,-37.7571912474,0.0,10.0,0.0,0.0,0.0,10.0,0.0,0.0,0.0,10.0,0.085354312937,-0.137818586412,-0.0768321974488,1.0,0.0,0.0,0.0,1.0,0.0,0.0,0.0,1.0,-1.0693762207,-6.73718994141,6.53002075195,0.1,0.0,0.0,0.0,0.1,0.0,0.0,0.0,0.1
1446035898649180982,337,1446035898646032094,robocape,-37.2706175627,35.4050384337,-37.2706175627,0.0,10.0,0.0,0.0,0.0,10.0,0.0,0.0,0.0,10.0,-0.0367516230431,0.0528637476381,0.144210173028,1.0,0.0,0.0,0.0,1.0,0.0,0.0,0.0,1.0,-5.86181030273,-10.750045166,9.7369519043,0.1,0.0,0.0,0.0,0.1,0.0,0.0,0.0,0.1
1446035898683142149,338,1446035898679939985,robocape,-36.0812175891,35.5730065628,-36.0812175891,0.0,10.0,0.0,0.0,0.0,10.0,0.0,0.0,0.0,10.0,0.362855698523,0.0596548084178,0.0990695925509,1.0,0.0,0.0,0.0,1.0,0.0,0.0,0.0,1.0,-1.95912597656,-4.74573120117,7.50599121094,0.1,0.0,0.0,0.0,0.1,0.0,0.0,0.0,0.1
1446035898715561232,339,1446035898712040901,robocape,-36.3840755006,35.6022090307,-36.3840755006,0.0,10.0,0.0,0.0,0.0,10.0,0.0,0.0,0.0,10.0,-0.294012984345,0.221841318804,-0.224903954057,1.0,0.0,0.0,0.0,1.0,0.0,0.0,0.0,1.0,-0.566422119141,-6.69407958984,6.54319335938,0.1,0.0,0.0,0.0,0.1,0.0,0.0,0.0,0.1
1446035898749618566,340,1446035898746514081,robocape,-36.7696680199,35.7187252417,-36.7696680199,0.0,10.0,0.0,0.0,0.0,10.0,0.0,0.0,0.0,10.0,-0.272441379515,0.364453595177,-0.329699342952,1.0,0.0,0.0,0.0,1.0,0.0,0.0,0.0,1.0,-4.31103515625,-7.38743774414,8.92144775391,0.1,0.0,0.0,0.0,0.1,0.0,0.0,0.0,0.1
1446035898783632857,341,1446035898780050039,robocape,-36.5197689712,36.2149145395,-36.5197689712,0.0,10.0,0.0,0.0,0.0,10.0,0.0,0.0,0.0,10.0,0.132891738395,0.626908120605,-0.334493032914,1.0,0.0,0.0,0.0,1.0,0.0,0.0,0.0,1.0,-4.65831298828,-7.57784179688,8.05924072266,0.1,0.0,0.0,0.0,0.1,0.0,0.0,0.0,0.1
1446035898850684399,342,1446035898819895029,robocape,-36.4262702701,36.4670959417,-36.4262702701,0.0,10.0,0.0,0.0,0.0,10.0,0.0,0.0,0.0,10.0,0.0885501062451,0.576041743784,-0.476972151233,1.0,0.0,0.0,0.0,1.0,0.0,0.0,0.0,1.0,1.72201904297,-5.82588500977,7.10961547852,0.1,0.0,0.0,0.0,0.1,0.0,0.0,0.0,0.1
1446035898874170149,343,1446035898870925903,robocape,-36.3877488057,36.777252494,-36.3877488057,0.0,10.0,0.0,0.0,0.0,10.0,0.0,0.0,0.0,10.0,0.0263652947918,0.553804348682,-0.39854205713,1.0,0.0,0.0,0.0,1.0,0.0,0.0,0.0,1.0,-5.18641479492,-3.50151855469,10.1249450684,0.1,0.0,0.0,0.0,0.1,0.0,0.0,0.0,0.1
1446035898897365316,344,1446035898894246101,robocape,-36.1761667008,36.8220954504,-36.1761667008,0.0,10.0,0.0,0.0,0.0,10.0,0.0,0.0,0.0,10.0,0.0541953281831,0.338487774549,-0.350871473618,1.0,0.0,0.0,0.0,1.0,0.0,0.0,0.0,1.0,-3.2572265625,-4.49784667969,8.68553833008,0.1,0.0,0.0,0.0,0.1,0.0,0.0,0.0,0.1
1446035898925041024,345,1446035898917679071,robocape,-36.1742871934,36.9512019956,-36.1742871934,0.0,10.0,0.0,0.0,0.0,10.0,0.0,0.0,0.0,10.0,-0.111320133565,0.298806674307,-0.228099747365,1.0,0.0,0.0,0.0,1.0,0.0,0.0,0.0,1.0,-2.57704101563,-1.15080688477,8.70948852539,0.1,0.0,0.0,0.0,0.1,0.0,0.0,0.0,0.1
1446035898950747191,346,1446035898946882963,robocape,-36.0571408683,36.7094925054,-36.0571408683,0.0,10.0,0.0,0.0,0.0,10.0,0.0,0.0,0.0,10.0,-0.0423442613323,0.139815957229,-0.341816725912,1.0,0.0,0.0,0.0,1.0,0.0,0.0,0.0,1.0,-4.50503173828,-5.32173339844,9.05317382813,0.1,0.0,0.0,0.0,0.1,0.0,0.0,0.0,0.1
1446035898983983691,347,1446035898980446100,robocape,-35.447048149,36.7307430331,-35.447048149,0.0,10.0,0.0,0.0,0.0,10.0,0.0,0.0,0.0,10.0,0.252867145503,0.296143513217,-0.31811459221,1.0,0.0,0.0,0.0,1.0,0.0,0.0,0.0,1.0,-4.1421862793,-5.69415893555,13.6288586426,0.1,0.0,0.0,0.0,0.1,0.0,0.0,0.0,0.1
1446035899015174816,348,1446035899012032032,robocape,-34.4776313644,36.8404584526,-34.4776313644,0.0,10.0,0.0,0.0,0.0,10.0,0.0,0.0,0.0,10.0,0.378568348955,0.235157124254,-0.163651248985,1.0,0.0,0.0,0.0,1.0,0.0,0.0,0.0,1.0,-6.91921142578,-0.673000488281,7.60897705078,0.1,0.0,0.0,0.0,0.1,0.0,0.0,0.0,0.1
1446035899048363483,349,1446035899045191049,robocape,-34.5791358379,36.7220674464,-34.5791358379,0.0,10.0,0.0,0.0,0.0,10.0,0.0,0.0,0.0,10.0,-0.192013914595,0.130894367577,-0.225836060439,1.0,0.0,0.0,0.0,1.0,0.0,0.0,0.0,1.0,3.47277832031,-0.924477539063,9.47469726563,0.1,0.0,0.0,0.0,0.1,0.0,0.0,0.0,0.1
1446035899081325774,350,1446035899078249931,robocape,-34.823548724,36.4854968834,-34.823548724,0.0,10.0,0.0,0.0,0.0,10.0,0.0,0.0,0.0,10.0,-0.0486026898939,0.382429932535,-0.664858166138,1.0,0.0,0.0,0.0,1.0,0.0,0.0,0.0,1.0,2.27047851563,-5.65583862305,9.30105834961,0.1,0.0,0.0,0.0,0.1,0.0,0.0,0.0,0.1
1446035899114861858,351,1446035899111584901,robocape,-34.4725714545,35.9698241957,-34.4725714545,0.0,10.0,0.0,0.0,0.0,10.0,0.0,0.0,0.0,10.0,0.396411528258,0.434228415737,-0.986035393602,1.0,0.0,0.0,0.0,1.0,0.0,0.0,0.0,1.0,-3.43206298828,-3.57576416016,13.1354846191,0.1,0.0,0.0,0.0,0.1,0.0,0.0,0.0,0.1
1446035899147798899,352,1446035899144668102,robocape,-34.5686144187,35.8781427238,-34.5686144187,0.0,10.0,0.0,0.0,0.0,10.0,0.0,0.0,0.0,10.0,0.296276671271,0.839827849756,-1.16966035076,1.0,0.0,0.0,0.0,1.0,0.0,0.0,0.0,1.0,-5.67859130859,-1.26217529297,14.5114233398,0.1,0.0,0.0,0.0,0.1,0.0,0.0,0.0,0.1
1446035899181041316,353,1446035899177962064,robocape,-34.7924135155,35.6635071435,-34.7924135155,0.0,10.0,0.0,0.0,0.0,10.0,0.0,0.0,0.0,10.0,0.256462412975,0.845154171937,-1.29389681561,1.0,0.0,0.0,0.0,1.0,0.0,0.0,0.0,1.0,0.4215234375,-2.04534667969,8.38376586914,0.1,0.0,0.0,0.0,0.1,0.0,0.0,0.0,0.1
1446035899214573316,354,1446035899211306095,robocape,-34.4166286338,35.3227142957,-34.4166286338,0.0,10.0,0.0,0.0,0.0,10.0,0.0,0.0,0.0,10.0,0.688826615949,0.969790110952,-1.59150506743,1.0,0.0,0.0,0.0,1.0,0.0,0.0,0.0,1.0,3.61168945313,-3.65240478516,13.0564489746,0.1,0.0,0.0,0.0,0.1,0.0,0.0,0.0,0.1
1446035899247845941,355,1446035899244808912,robocape,-32.9184686055,34.4675250199,-32.9184686055,0.0,10.0,0.0,0.0,0.0,10.0,0.0,0.0,0.0,10.0,1.46167596429,0.992293822164,-2.15276626717,1.0,0.0,0.0,0.0,1.0,0.0,0.0,0.0,1.0,1.0346484375,-3.83682128906,10.4159399414,0.1,0.0,0.0,0.0,0.1,0.0,0.0,0.0,0.1
1446035899286092649,356,1446035899278538942,robocape,-29.8256925064,33.6240059353,-29.8256925064,0.0,10.0,0.0,0.0,0.0,10.0,0.0,0.0,0.0,10.0,2.44025450684,1.14728979761,-2.52973671947,1.0,0.0,0.0,0.0,1.0,0.0,0.0,0.0,1.0,-1.1532019043,-4.39965087891,10.479407959,0.1,0.0,0.0,0.0,0.1,0.0,0.0,0.0,0.1
1446035899316734233,357,1446035899313530921,robocape,-24.2180891216,32.5795117799,-24.2180891216,0.0,10.0,0.0,0.0,0.0,10.0,0.0,0.0,0.0,10.0,3.77023715523,0.916526889151,-2.66036477093,1.0,0.0,0.0,0.0,1.0,0.0,0.0,0.0,1.0,-0.182021484375,-3.94938720703,10.362052002,0.1,0.0,0.0,0.0,0.1,0.0,0.0,0.0,0.1
1446035899347883899,358,1446035899344660043,robocape,-17.3970372546,31.950629309,-17.3970372546,0.0,10.0,0.0,0.0,0.0,10.0,0.0,0.0,0.0,10.0,4.36318997193,0.880574214435,-2.55237358873,1.0,0.0,0.0,0.0,1.0,0.0,0.0,0.0,1.0,-0.231119384766,-3.28955932617,7.68681518555,0.1,0.0,0.0,0.0,0.1,0.0,0.0,0.0,0.1
1446035899381513274,359,1446035899378074884,robocape,-10.375624577,30.9016579948,-10.375624577,0.0,10.0,0.0,0.0,0.0,10.0,0.0,0.0,0.0,10.0,4.36318997193,0.348607786691,-2.34664439452,1.0,0.0,0.0,0.0,1.0,0.0,0.0,0.0,1.0,-2.54949829102,-2.38783447266,1.33043334961,0.1,0.0,0.0,0.0,0.1,0.0,0.0,0.0,0.1
1446035899414919274,360,1446035899411300897,robocape,-3.06912962612,30.1303702089,-3.06912962612,0.0,10.0,0.0,0.0,0.0,10.0,0.0,0.0,0.0,10.0,4.36318997193,0.22556974433,-1.89497227365,1.0,0.0,0.0,0.0,1.0,0.0,0.0,0.0,1.0,-3.28716430664,-1.3412109375,1.81542480469,0.1,0.0,0.0,0.0,0.1,0.0,0.0,0.0,0.1
1446035899448107608,361,1446035899444679021,robocape,4.59106693558,28.8834851216,4.59106693558,0.0,10.0,0.0,0.0,0.0,10.0,0.0,0.0,0.0,10.0,4.36318997193,-0.228366063474,-1.28910312565,1.0,0.0,0.0,0.0,1.0,0.0,0.0,0.0,1.0,-2.34592163086,-1.0310559082,-2.37466186523,0.1,0.0,0.0,0.0,0.1,0.0,0.0,0.0,0.1
1446035899481442566,362,1446035899478187084,robocape,13.7907623631,27.6896959848,13.7907623631,0.0,10.0,0.0,0.0,0.0,10.0,0.0,0.0,0.0,10.0,4.36318997193,-0.268712953989,0.727708767864,1.0,0.0,0.0,0.0,1.0,0.0,0.0,0.0,1.0,7.46407836914,19.6194012451,4.15655639648,0.1,0.0,0.0,0.0,0.1,0.0,0.0,0.0,0.1
1446035899514764899,363,1446035899511370897,robocape,14.6034290506,32.0820631247,14.6034290506,0.0,10.0,0.0,0.0,0.0,10.0,0.0,0.0,0.0,10.0,-1.71507574201,2.68712953989,3.6055206418,1.0,0.0,0.0,0.0,1.0,0.0,0.0,0.0,1.0,11.6194372559,19.6194012451,16.2909228516,0.1,0.0,0.0,0.0,0.1,0.0,0.0,0.0,0.1
1446035899547943483,364,1446035899544790983,robocape,11.1040692185,36.5823540096,11.1040692185,0.0,10.0,0.0,0.0,0.0,10.0,0.0,0.0,0.0,10.0,-4.0059269117,2.46462243081,3.27542182469,1.0,0.0,0.0,0.0,1.0,0.0,0.0,0.0,1.0,-5.26784545898,5.18401977539,5.10977416992,0.1,0.0,0.0,0.0,0.1,0.0,0.0,0.0,0.1
1446035899581182774,365,1446035899578084945,robocape,6.08952641442,38.7911365872,6.08952641442,0.0,10.0,0.0,0.0,0.0,10.0,0.0,0.0,0.0,10.0,-4.15213445554,1.00081593765,2.33399437935,1.0,0.0,0.0,0.0,1.0,0.0,0.0,0.0,1.0,-2.92910888672,-0.573607177734,3.78772338867,0.1,0.0,0.0,0.0,0.1,0.0,0.0,0.0,0.1
1446035899614995483,366,1446035899611737966,robocape,0.741889231372,39.9807158964,0.741889231372,0.0,10.0,0.0,0.0,0.0,10.0,0.0,0.0,0.0,10.0,-3.61510802173,0.432763677138,1.26753152082,1.0,0.0,0.0,0.0,1.0,0.0,0.0,0.0,1.0,-0.934057617188,-1.47054199219,7.27487182617,0.1,0.0,0.0,0.0,0.1,0.0,0.0,0.0,0.1
1446035899647890733,367,1446035899644784927,robocape,-4.10456030091,40.3820755485,-4.10456030091,0.0,10.0,0.0,0.0,0.0,10.0,0.0,0.0,0.0,10.0,-2.95890512913,0.0756337749583,0.656202892596,1.0,0.0,0.0,0.0,1.0,0.0,0.0,0.0,1.0,0.138911132813,-0.905317382813,6.75874511719,0.1,0.0,0.0,0.0,0.1,0.0,0.0,0.0,0.1
1446035899682931316,368,1446035899679807901,robocape,-8.41758729271,40.6834813695,-8.41758729271,0.0,10.0,0.0,0.0,0.0,10.0,0.0,0.0,0.0,10.0,-2.49564825751,0.102931176132,0.322375649954,1.0,0.0,0.0,0.0,1.0,0.0,0.0,0.0,1.0,-4.27031982422,-0.314945068359,10.1033898926,0.1,0.0,0.0,0.0,0.1,0.0,0.0,0.0,0.1
1446035899715812066,369,1446035899711466073,robocape,-12.2607457721,41.113882247,-12.2607457721,0.0,10.0,0.0,0.0,0.0,10.0,0.0,0.0,0.0,10.0,-2.2322616257,0.203465507282,0.255263990484,1.0,0.0,0.0,0.0,1.0,0.0,0.0,0.0,1.0,-0.483793945313,0.441881103516,9.52140014648,0.1,0.0,0.0,0.0,0.1,0.0,0.0,0.0,0.1
1446035899749289941,370,1446035899746166944,robocape,-16.0087211404,41.2648075423,-16.0087211404,0.0,10.0,0.0,0.0,0.0,10.0,0.0,0.0,0.0,10.0,-2.21628265916,0.0328900394625,0.266449267062,1.0,0.0,0.0,0.0,1.0,0.0,0.0,0.0,1.0,-0.434696044922,0.395178222656,10.0111816406,0.1,0.0,0.0,0.0,0.1,0.0,0.0,0.0,0.1
1446035899782680483,371,1446035899779512882,robocape,-19.8637526512,41.3291537838,-19.8637526512,0.0,10.0,0.0,0.0,0.0,10.0,0.0,0.0,0.0,10.0,-2.23612320929,0.016644756813,0.17177389031,1.0,0.0,0.0,0.0,1.0,0.0,0.0,0.0,1.0,-2.95904663086,0.213156738281,9.24597290039,0.1,0.0,0.0,0.0,0.1,0.0,0.0,0.0,0.1
1446035899816037483,372,1446035899812871932,robocape,-23.8035003681,41.1714006838,-23.8035003681,0.0,10.0,0.0,0.0,0.0,10.0,0.0,0.0,0.0,10.0,-2.21135581115,-0.0292947719909,-0.00412789968962,1.0,0.0,0.0,0.0,1.0,0.0,0.0,0.0,1.0,0.142503662109,-0.102985839844,8.56937988281,0.1,0.0,0.0,0.0,0.1,0.0,0.0,0.0,0.1
1446035899848182108,373,1446035899845128059,robocape,-27.8154448037,41.1638766364,-27.8154448037,0.0,10.0,0.0,0.0,0.0,10.0,0.0,0.0,0.0,10.0,-2.14970363191,0.179630215526,-0.186820750469,1.0,0.0,0.0,0.0,1.0,0.0,0.0,0.0,1.0,1.10051147461,-0.258662109375,10.3584594727,0.1,0.0,0.0,0.0,0.1,0.0,0.0,0.0,0.1
1446035899881727775,374,1446035899878551006,robocape,-31.7541699964,40.9261204725,-31.7541699964,0.0,10.0,0.0,0.0,0.0,10.0,0.0,0.0,0.0,10.0,-2.07553459555,0.158591242914,-0.346743573928,1.0,0.0,0.0,0.0,1.0,0.0,0.0,0.0,1.0,-1.62142822266,-0.529299316406,8.25802734375,0.1,0.0,0.0,0.0,0.1,0.0,0.0,0.0,0.1
1446035899921892400,375,1446035899918678998,robocape,-35.6490292424,40.5393899327,-35.6490292424,0.0,10.0,0.0,0.0,0.0,10.0,0.0,0.0,0.0,10.0,-2.01081978106,0.213851835533,-0.518251148129,1.0,0.0,0.0,0.0,1.0,0.0,0.0,0.0,1.0,1.82021484375,-0.916094970703,7.61735961914,0.1,0.0,0.0,0.0,0.1,0.0,0.0,0.0,0.1
1446035899948427691,376,1446035899945274114,robocape,-39.2374160492,40.263380971,-39.2374160492,0.0,10.0,0.0,0.0,0.0,10.0,0.0,0.0,0.0,10.0,-1.76061579665,0.47244477738,-0.694019780075,1.0,0.0,0.0,0.0,1.0,0.0,0.0,0.0,1.0,-0.259859619141,-2.81534545898,10.9045239258,0.1,0.0,0.0,0.0,0.1,0.0,0.0,0.0,0.1
1446035899985121191,377,1446035899980942964,robocape,-41.9877713298,39.7382766801,-41.9877713298,0.0,10.0,0.0,0.0,0.0,10.0,0.0,0.0,0.0,10.0,-1.01879227501,0.844488381664,-1.24556044183,1.0,0.0,0.0,0.0,1.0,0.0,0.0,0.0,1.0,0.787961425781,-5.134921875,14.4503503418,0.1,0.0,0.0,0.0,0.1,0.0,0.0,0.0,0.1
1446035900018300108,378,1446035900014167070,robocape,-42.7206215822,38.6298798751,-42.7206215822,0.0,10.0,0.0,0.0,0.0,10.0,0.0,0.0,0.0,10.0,0.438489473482,1.18057931123,-2.00735767165,1.0,0.0,0.0,0.0,1.0,0.0,0.0,0.0,1.0,1.71722900391,-6.79467041016,12.3618933105,0.1,0.0,0.0,0.0,0.1,0.0,0.0,0.0,0.1
1446035900050948400,379,1446035900047868013,robocape,-40.8442248225,36.9728811956,-40.8442248225,0.0,10.0,0.0,0.0,0.0,10.0,0.0,0.0,0.0,10.0,2.0695424831,1.2994894539,-2.62614315093,1.0,0.0,0.0,0.0,1.0,0.0,0.0,0.0,1.0,-2.17827026367,-6.39230712891,11.9810852051,0.1,0.0,0.0,0.0,0.1,0.0,0.0,0.0,0.1
1446035900084089483,380,1446035900079112052,robocape,-36.0945105762,34.8896127068,-36.0945105762,0.0,10.0,0.0,0.0,0.0,10.0,0.0,0.0,0.0,10.0,3.5373437179,0.944756396706,-2.81522758832,1.0,0.0,0.0,0.0,1.0,0.0,0.0,0.0,1.0,6.56115600586,-4.37570068359,8.07600585937,0.1,0.0,0.0,0.0,0.1,0.0,0.0,0.0,0.1
1446035900118832233,381,1446035900115617990,robocape,-29.3757480339,32.9839642259,-29.3757480339,0.0,10.0,0.0,0.0,0.0,10.0,0.0,0.0,0.0,10.0,4.36318997193,0.570182789386,-2.54944411153,1.0,0.0,0.0,0.0,1.0,0.0,0.0,0.0,1.0,-0.382005615234,-3.18298095703,5.57560546875,0.1,0.0,0.0,0.0,0.1,0.0,0.0,0.0,0.1
1446035900150282941,382,1446035900147239923,robocape,-22.2176718315,31.3027990834,-22.2176718315,0.0,10.0,0.0,0.0,0.0,10.0,0.0,0.0,0.0,10.0,4.36318997193,0.214917099969,-2.15596206047,1.0,0.0,0.0,0.0,1.0,0.0,0.0,0.0,1.0,-2.98299682617,-1.99145874023,0.9580078125,0.1,0.0,0.0,0.0,0.1,0.0,0.0,0.0,0.1
1446035900184731150,383,1446035900181602954,robocape,-14.6074461003,29.4925257501,-14.6074461003,0.0,10.0,0.0,0.0,0.0,10.0,0.0,0.0,0.0,10.0,4.36318997193,-0.282161917494,-1.63211827406,1.0,0.0,0.0,0.0,1.0,0.0,0.0,0.0,1.0,-1.20828735352,-0.969982910156,-0.869392089844,0.1,0.0,0.0,0.0,0.1,0.0,0.0,0.0,0.1
1446035900217801066,384,1446035900213752031,robocape,-6.67953036929,28.3238894874,-6.67953036929,0.0,10.0,0.0,0.0,0.0,10.0,0.0,0.0,0.0,10.0,4.36318997193,-0.20133497841,-1.08124340257,1.0,0.0,0.0,0.0,1.0,0.0,0.0,0.0,1.0,-0.923280029297,-0.288599853516,-2.97341674805,0.1,0.0,0.0,0.0,0.1,0.0,0.0,0.0,0.1
1446035900251291358,385,1446035900248030900,robocape,3.02233168644,28.5474947456,3.02233168644,0.0,10.0,0.0,0.0,0.0,10.0,0.0,0.0,0.0,10.0,4.36318997193,0.143544382755,1.2432967549,1.0,0.0,0.0,0.0,1.0,0.0,0.0,0.0,1.0,19.6194012451,19.6194012451,10.2015856934,0.1,0.0,0.0,0.0,0.1,0.0,0.0,0.0,0.1
1446035900291150566,386,1446035900280839920,robocape,3.46470145052,33.6974651338,3.46470145052,0.0,10.0,0.0,0.0,0.0,10.0,0.0,0.0,0.0,10.0,-1.42172854794,2.59112258259,2.98060989202,1.0,0.0,0.0,0.0,1.0,0.0,0.0,0.0,1.0,8.34065551758,19.6194012451,14.3689196777,0.1,0.0,0.0,0.0,0.1,0.0,0.0,0.0,0.1
1446035900318737275,387,1446035900315221071,robocape,-1.49850325603,37.7534260565,-1.49850325603,0.0,10.0,0.0,0.0,0.0,10.0,0.0,0.0,0.0,10.0,-4.15346603609,1.7929732039,2.68779533016,1.0,0.0,0.0,0.0,1.0,0.0,0.0,0.0,1.0,-9.5034375,4.0583605957,2.73151977539,0.1,0.0,0.0,0.0,0.1,0.0,0.0,0.0,0.1
1446035900350468025,388,1446035900346971988,robocape,-7.52408095405,40.4984209427,-7.52408095405,0.0,10.0,0.0,0.0,0.0,10.0,0.0,0.0,0.0,10.0,-4.34268363154,1.01386542699,1.99484081452,1.0,0.0,0.0,0.0,1.0,0.0,0.0,0.0,1.0,-7.06530761719,2.22377563477,8.3957409668,0.1,0.0,0.0,0.0,0.1,0.0,0.0,0.0,0.1
1446035900384772650,389,1446035900381515026,robocape,-13.8788565019,42.3766929447,-13.8788565019,0.0,10.0,0.0,0.0,0.0,10.0,0.0,0.0,0.0,10.0,-4.36332312999,0.479502154269,1.68018833173,1.0,0.0,0.0,0.0,1.0,0.0,0.0,0.0,1.0,-0.556842041016,2.28245361328,6.0929296875,0.1,0.0,0.0,0.0,0.1,0.0,0.0,0.0,0.1
1446035900417173608,390,1446035900413650035,robocape,-20.0621716813,43.992648082,-20.0621716813,0.0,10.0,0.0,0.0,0.0,10.0,0.0,0.0,0.0,10.0,-4.36332312999,0.206528142536,1.68511517975,1.0,0.0,0.0,0.0,1.0,0.0,0.0,0.0,1.0,2.13635742188,2.54949829102,4.34097290039,0.1,0.0,0.0,0.0,0.1,0.0,0.0,0.0,0.1
1446035900450902192,391,1446035900447534084,robocape,-26.1264463698,45.5661053419,-26.1264463698,0.0,10.0,0.0,0.0,0.0,10.0,0.0,0.0,0.0,10.0,-4.36332312999,0.102398543914,1.61294351421,1.0,0.0,0.0,0.0,1.0,0.0,0.0,0.0,1.0,-3.37338500977,3.06682250977,2.43453735352,0.1,0.0,0.0,0.0,0.1,0.0,0.0,0.0,0.1
1446035900484551317,392,1446035900481483936,robocape,-31.9392334734,46.5851893382,-31.9392334734,0.0,10.0,0.0,0.0,0.0,10.0,0.0,0.0,0.0,10.0,-4.36332312999,-0.292947719909,1.49616390041,1.0,0.0,0.0,0.0,1.0,0.0,0.0,0.0,1.0,-3.6823425293,3.49792602539,-0.920885009766,0.1,0.0,0.0,0.0,0.1,0.0,0.0,0.0,0.1
1446035900517357233,393,1446035900514208078,robocape,-38.0490376697,47.040599679,-38.0490376697,0.0,10.0,0.0,0.0,0.0,10.0,0.0,0.0,0.0,10.0,-4.36332312999,-0.392416786623,1.00094909571,1.0,0.0,0.0,0.0,1.0,0.0,0.0,0.0,1.0,-2.06690185547,0.161663818359,-0.0335302734375,0.1,0.0,0.0,0.0,0.1,0.0,0.0,0.0,0.1
