%time,field.header.seq,field.header.stamp,field.header.frame_id,field.orientation.x,field.orientation.y,field.orientation.z,field.orientation.w,field.orientation_covariance0,field.orientation_covariance1,field.orientation_covariance2,field.orientation_covariance3,field.orientation_covariance4,field.orientation_covariance5,field.orientation_covariance6,field.orientation_covariance7,field.orientation_covariance8,field.angular_velocity.x,field.angular_velocity.y,field.angular_velocity.z,field.angular_velocity_covariance0,field.angular_velocity_covariance1,field.angular_velocity_covariance2,field.angular_velocity_covariance3,field.angular_velocity_covariance4,field.angular_velocity_covariance5,field.angular_velocity_covariance6,field.angular_velocity_covariance7,field.angular_velocity_covariance8,field.linear_acceleration.x,field.linear_acceleration.y,field.linear_acceleration.z,field.linear_acceleration_covariance0,field.linear_acceleration_covariance1,field.linear_acceleration_covariance2,field.linear_acceleration_covariance3,field.linear_acceleration_covariance4,field.linear_acceleration_covariance5,field.linear_acceleration_covariance6,field.linear_acceleration_covariance7,field.linear_acceleration_covariance8
1446036639310934489,1,1446036639301992893,robocape,4.4416330573,4.1239012974,27.8319324867,0.0,10.0,0.0,0.0,0.0,10.0,0.0,0.0,0.0,10.0,0.0382163616426,0.0110521185238,0.00972053797879,1.0,0.0,0.0,0.0,1.0,0.0,0.0,0.0,1.0,-0.00598754882813,0.257464599609,10.0435144043,0.1,0.0,0.0,0.0,0.1,0.0,0.0,0.0,0.1
1446036639335457989,2,1446036639332438945,robocape,4.46318870686,4.13443854303,27.7842692653,0.0,10.0,0.0,0.0,0.0,10.0,0.0,0.0,0.0,10.0,0.0173105470855,0.0099868540878,0.00932106381528,1.0,0.0,0.0,0.0,1.0,0.0,0.0,0.0,1.0,0.00718505859375,0.398770751953,10.0255517578,0.1,0.0,0.0,0.0,0.1,0.0,0.0,0.0,0.1
1446036639368546114,3,1446036639365381002,robocape,4.44243900431,4.1410421602,27.7298551033,0.0,10.0,0.0,0.0,0.0,10.0,0.0,0.0,0.0,10.0,-0.00466053190764,0.00759000910673,0.00545948023466,1.0,0.0,0.0,0.0,1.0,0.0,0.0,0.0,1.0,0.00838256835938,0.405955810547,10.024354248,0.1,0.0,0.0,0.0,0.1,0.0,0.0,0.0,0.1
1446036639405419781,4,1446036639402275085,robocape,4.40321297039,4.14744396292,27.6750609172,0.0,10.0,0.0,0.0,0.0,10.0,0.0,0.0,0.0,10.0,-0.0143810698864,0.00745685105222,0.00506000607115,1.0,0.0,0.0,0.0,1.0,0.0,0.0,0.0,1.0,0.0143701171875,0.162861328125,10.0411193848,0.1,0.0,0.0,0.0,0.1,0.0,0.0,0.0,0.1
1446036639435285364,5,1446036639432167053,robocape,4.3785277643,4.15527197007,27.6241006671,0.0,10.0,0.0,0.0,0.0,10.0,0.0,0.0,0.0,10.0,-0.00692421883421,0.00838895743375,0.00705737688871,1.0,0.0,0.0,0.0,1.0,0.0,0.0,0.0,1.0,0.0443078613281,0.0443078613281,10.0590820312,0.1,0.0,0.0,0.0,0.1,0.0,0.0,0.0,0.1
1446036639468469281,6,1446036639465394973,robocape,4.38002170492,4.16475804341,27.5771370132,0.0,10.0,0.0,0.0,0.0,10.0,0.0,0.0,0.0,10.0,0.0066579027252,0.00945422186978,0.00918790576077,1.0,0.0,0.0,0.0,1.0,0.0,0.0,0.0,1.0,0.0335302734375,0.116158447266,10.0459094238,0.1,0.0,0.0,0.0,0.1,0.0,0.0,0.0,0.1
1446036639502189656,7,1446036639498869895,robocape,4.40902501575,4.17489074626,27.5283000506,0.0,10.0,0.0,0.0,0.0,10.0,0.0,0.0,0.0,10.0,0.0211721306661,0.00972053797879,0.00812264132474,1.0,0.0,0.0,0.0,1.0,0.0,0.0,0.0,1.0,0.0107775878906,0.215551757813,10.0530944824,0.1,0.0,0.0,0.0,0.1,0.0,0.0,0.0,0.1
1446036639535584156,8,1446036639532129049,robocape,4.44637737194,4.18606700785,27.4647435232,0.0,10.0,0.0,0.0,0.0,10.0,0.0,0.0,0.0,10.0,0.0260989786828,0.00958737992429,-0.000133158054504,1.0,0.0,0.0,0.0,1.0,0.0,0.0,0.0,1.0,0.0155676269531,0.299377441406,10.0279467773,0.1,0.0,0.0,0.0,0.1,0.0,0.0,0.0,0.1
1446036639568729406,9,1446036639565448045,robocape,4.46342845925,4.19891574265,27.3713330502,0.0,10.0,0.0,0.0,0.0,10.0,0.0,0.0,0.0,10.0,0.0165115987585,0.00905474770627,-0.016911072922,1.0,0.0,0.0,0.0,1.0,0.0,0.0,0.0,1.0,-0.01916015625,0.526904296875,10.060279541,0.1,0.0,0.0,0.0,0.1,0.0,0.0,0.0,0.1
1446036639602497114,10,1446036639599286079,robocape,4.3750130685,4.20157663969,27.3166497845,0.0,10.0,0.0,0.0,0.0,10.0,0.0,0.0,0.0,10.0,-0.0402137324602,0.00545948023466,0.00426105774413,1.0,0.0,0.0,0.0,1.0,0.0,0.0,0.0,1.0,0.028740234375,0.180823974609,10.0542919922,0.1,0.0,0.0,0.0,0.1,0.0,0.0,0.0,0.1
1446036639635476989,11,1446036639632225990,robocape,4.30386732707,4.20672138114,27.2593437794,0.0,10.0,0.0,0.0,0.0,10.0,0.0,0.0,0.0,10.0,-0.0311589847539,0.0066579027252,0.00266316109008,1.0,0.0,0.0,0.0,1.0,0.0,0.0,0.0,1.0,0.0335302734375,-0.00239501953125,10.039921875,0.1,0.0,0.0,0.0,0.1,0.0,0.0,0.0,0.1
1446036639668548948,12,1446036639665419101,robocape,4.29016360774,4.21516376272,27.2131970998,0.0,10.0,0.0,0.0,0.0,10.0,0.0,0.0,0.0,10.0,-0.00146473859954,0.00892158965177,0.00878843159726,1.0,0.0,0.0,0.0,1.0,0.0,0.0,0.0,1.0,0.047900390625,-0.0946032714844,10.0411193848,0.1,0.0,0.0,0.0,0.1,0.0,0.0,0.0,0.1
1446036639702183739,13,1446036639699112892,robocape,4.35471697582,4.22901295228,27.1653979377,0.0,10.0,0.0,0.0,0.0,10.0,0.0,0.0,0.0,10.0,0.0396811002422,0.0117179087963,0.00785632521573,1.0,0.0,0.0,0.0,1.0,0.0,0.0,0.0,1.0,0.00598754882813,0.0347277832031,10.0183666992,0.1,0.0,0.0,0.0,0.1,0.0,0.0,0.0,0.1
1446036639735288698,14,1446036639732126951,robocape,4.42782291409,4.24225921872,27.1302328268,0.0,10.0,0.0,0.0,0.0,10.0,0.0,0.0,0.0,10.0,0.0438089999318,0.0119842249054,0.0147805440499,1.0,0.0,0.0,0.0,1.0,0.0,0.0,0.0,1.0,0.0275427246094,0.293389892578,10.0471069336,0.1,0.0,0.0,0.0,0.1,0.0,0.0,0.0,0.1
1446036639768865406,15,1446036639765614986,robocape,4.47373381717,4.25495535915,27.0813542637,0.0,10.0,0.0,0.0,0.0,10.0,0.0,0.0,0.0,10.0,0.0300937203179,0.0110521185238,0.00705737688871,1.0,0.0,0.0,0.0,1.0,0.0,0.0,0.0,1.0,-0.0167651367188,0.36404296875,10.0578845215,0.1,0.0,0.0,0.0,0.1,0.0,0.0,0.0,0.1
1446036639802117364,16,1446036639799091100,robocape,4.46317243753,4.26275544963,27.031029168,0.0,10.0,0.0,0.0,0.0,10.0,0.0,0.0,0.0,10.0,0.000532632218016,0.00838895743375,0.00612527050718,1.0,0.0,0.0,0.0,1.0,0.0,0.0,0.0,1.0,-0.00239501953125,0.409548339844,10.0387243652,0.1,0.0,0.0,0.0,0.1,0.0,0.0,0.0,0.1
1446036639836571948,17,1446036639833403110,robocape,4.41574807793,4.2684038817,26.9824604572,0.0,10.0,0.0,0.0,0.0,10.0,0.0,0.0,0.0,10.0,-0.0189084437396,0.00732369299772,0.00692421883421,1.0,0.0,0.0,0.0,1.0,0.0,0.0,0.0,1.0,0.0431103515625,0.209564208984,10.0375268555,0.1,0.0,0.0,0.0,0.1,0.0,0.0,0.0,0.1
1446036639869536864,18,1446036639866569042,robocape,4.37519273367,4.2757548781,26.9288443747,0.0,10.0,0.0,0.0,0.0,10.0,0.0,0.0,0.0,10.0,-0.0151800182135,0.00798948327024,0.00399474163512,1.0,0.0,0.0,0.0,1.0,0.0,0.0,0.0,1.0,0.0347277832031,0.113763427734,10.0315393066,0.1,0.0,0.0,0.0,0.1,0.0,0.0,0.0,0.1
1446036639902963198,19,1446036639899358987,robocape,4.36080578252,4.28229399639,26.8783560217,0.0,10.0,0.0,0.0,0.0,10.0,0.0,0.0,0.0,10.0,-0.00159789665405,0.00772316716123,0.00572579634367,1.0,0.0,0.0,0.0,1.0,0.0,0.0,0.0,1.0,0.0179626464844,0.0526904296875,10.039921875,0.1,0.0,0.0,0.0,0.1,0.0,0.0,0.0,0.1
1446036639935830114,20,1446036639932853937,robocape,4.38219073137,4.29331454978,26.8315142647,0.0,10.0,0.0,0.0,0.0,10.0,0.0,0.0,0.0,10.0,0.0170442309765,0.0102531701968,0.00759000910673,1.0,0.0,0.0,0.0,1.0,0.0,0.0,0.0,1.0,0.0443078613281,0.104183349609,10.0351318359,0.1,0.0,0.0,0.0,0.1,0.0,0.0,0.0,0.1
1446036639976700864,21,1446036639973134994,robocape,4.44545801596,4.30755416617,26.7562916776,0.0,10.0,0.0,0.0,0.0,10.0,0.0,0.0,0.0,10.0,0.0400805744057,0.0106526443603,-0.00812264132474,1.0,0.0,0.0,0.0,1.0,0.0,0.0,0.0,1.0,0.01916015625,0.383203125,10.0435144043,0.1,0.0,0.0,0.0,0.1,0.0,0.0,0.0,0.1
1446036640003709198,22,1446036640000528097,robocape,4.42428093675,4.3127736062,26.7124827577,0.0,10.0,0.0,0.0,0.0,10.0,0.0,0.0,0.0,10.0,-0.00532632218016,0.00732369299772,0.00905474770627,1.0,0.0,0.0,0.0,1.0,0.0,0.0,0.0,1.0,0.0275427246094,0.410745849609,10.055489502,0.1,0.0,0.0,0.0,0.1,0.0,0.0,0.0,0.1
1446036640037444031,23,1446036640034163951,robocape,4.3783071686,4.31759226806,26.6648792142,0.0,10.0,0.0,0.0,0.0,10.0,0.0,0.0,0.0,10.0,-0.018242653467,0.00692421883421,0.0067910607797,1.0,0.0,0.0,0.0,1.0,0.0,0.0,0.0,1.0,0.0311352539063,0.220341796875,10.0435144043,0.1,0.0,0.0,0.0,0.1,0.0,0.0,0.0,0.1
1446036640071082864,24,1446036640068095922,robocape,4.3477511729,4.32335375146,26.6150100593,0.0,10.0,0.0,0.0,0.0,10.0,0.0,0.0,0.0,10.0,-0.0101200121423,0.00732369299772,0.00545948023466,1.0,0.0,0.0,0.0,1.0,0.0,0.0,0.0,1.0,-0.0227526855469,0.0946032714844,10.0518969727,0.1,0.0,0.0,0.0,0.1,0.0,0.0,0.0,0.1
1446036640106209073,25,1446036640102159023,robocape,4.32874443872,4.33090168977,26.603098992,0.0,10.0,0.0,0.0,0.0,10.0,0.0,0.0,0.0,10.0,-0.00545948023466,0.0099868540878,0.0262321367373,1.0,0.0,0.0,0.0,1.0,0.0,0.0,0.0,1.0,0.0263452148438,0.211959228516,10.0471069336,0.1,0.0,0.0,0.0,0.1,0.0,0.0,0.0,0.1
1446036640139647656,26,1446036640136265993,robocape,4.32138598169,4.34028402492,26.5903139273,0.0,10.0,0.0,0.0,0.0,10.0,0.0,0.0,0.0,10.0,0.00066579027252,0.0109189604693,0.0256995045193,1.0,0.0,0.0,0.0,1.0,0.0,0.0,0.0,1.0,0.0455053710938,-0.330512695313,10.0614770508,0.1,0.0,0.0,0.0,0.1,0.0,0.0,0.0,0.1
1446036640173801948,27,1446036640169488906,robocape,4.43335047346,4.35371067039,26.5613723274,0.0,10.0,0.0,0.0,0.0,10.0,0.0,0.0,0.0,10.0,0.0639158661619,0.0123836990689,0.0170442309765,1.0,0.0,0.0,0.0,1.0,0.0,0.0,0.0,1.0,0.00239501953125,0.340092773437,10.0471069336,0.1,0.0,0.0,0.0,0.1,0.0,0.0,0.0,0.1
1446036640205053156,28,1446036640202081918,robocape,4.52770003706,4.36862938636,26.5012985331,0.0,10.0,0.0,0.0,0.0,10.0,0.0,0.0,0.0,10.0,0.0559263828917,0.0117179087963,-0.000266316109008,1.0,0.0,0.0,0.0,1.0,0.0,0.0,0.0,1.0,-0.0395178222656,0.570014648438,10.0027990723,0.1,0.0,0.0,0.0,0.1,0.0,0.0,0.0,0.1
1446036640238290698,29,1446036640235045909,robocape,4.49178422419,4.37383498459,26.4520562951,0.0,10.0,0.0,0.0,0.0,10.0,0.0,0.0,0.0,10.0,-0.0127831732324,0.00705737688871,0.00545948023466,1.0,0.0,0.0,0.0,1.0,0.0,0.0,0.0,1.0,0.0167651367188,0.658630371094,10.0351318359,0.1,0.0,0.0,0.0,0.1,0.0,0.0,0.0,0.1
1446036640272896406,30,1446036640268927097,robocape,4.38954123316,4.38234507431,26.3920590272,0.0,10.0,0.0,0.0,0.0,10.0,0.0,0.0,0.0,10.0,-0.0472711093489,0.00825579937925,-0.000932106381528,1.0,0.0,0.0,0.0,1.0,0.0,0.0,0.0,1.0,-0.0694555664063,0.261057128906,10.0387243652,0.1,0.0,0.0,0.0,0.1,0.0,0.0,0.0,0.1
1446036640307033614,31,1446036640302438974,robocape,4.30069935842,4.38510606181,26.3390773085,0.0,10.0,0.0,0.0,0.0,10.0,0.0,0.0,0.0,10.0,-0.0406132066237,0.00559263828917,0.00306263525359,1.0,0.0,0.0,0.0,1.0,0.0,0.0,0.0,1.0,0.0203576660156,0.0,10.0375268555,0.1,0.0,0.0,0.0,0.1,0.0,0.0,0.0,0.1
1446036640339561615,32,1446036640335773944,robocape,4.32719190915,4.39581755472,26.2720472595,0.0,10.0,0.0,0.0,0.0,10.0,0.0,0.0,0.0,10.0,0.0203731823391,0.00918790576077,-0.00466053190764,1.0,0.0,0.0,0.0,1.0,0.0,0.0,0.0,1.0,0.0622705078125,-0.24908203125,10.0674645996,0.1,0.0,0.0,0.0,0.1,0.0,0.0,0.0,0.1
1446036640372618073,33,1446036640369081020,robocape,4.36738058531,4.40578781108,26.2312891033,0.0,10.0,0.0,0.0,0.0,10.0,0.0,0.0,0.0,10.0,0.0266316109008,0.0099868540878,0.00972053797879,1.0,0.0,0.0,0.0,1.0,0.0,0.0,0.0,1.0,0.0167651367188,0.28740234375,10.0746496582,0.1,0.0,0.0,0.0,0.1,0.0,0.0,0.0,0.1
1446036640406182115,34,1446036640402771949,robocape,4.36296320019,4.40986320835,26.2208545717,0.0,10.0,0.0,0.0,0.0,10.0,0.0,0.0,0.0,10.0,0.00213052887206,0.00825579937925,0.0263652947918,1.0,0.0,0.0,0.0,1.0,0.0,0.0,0.0,1.0,-0.107775878906,0.494571533203,10.0063916016,0.1,0.0,0.0,0.0,0.1,0.0,0.0,0.0,0.1
1446036640440190656,35,1446036640437045097,robocape,4.37254372901,4.4187363203,26.1930093845,0.0,10.0,0.0,0.0,0.0,10.0,0.0,0.0,0.0,10.0,0.0101200121423,0.0099868540878,0.016644756813,1.0,0.0,0.0,0.0,1.0,0.0,0.0,0.0,1.0,-0.00239501953125,-0.0419128417969,10.0506994629,0.1,0.0,0.0,0.0,0.1,0.0,0.0,0.0,0.1
1446036640471946948,36,1446036640468250989,robocape,4.42592540029,4.42994585777,26.1610317286,0.0,10.0,0.0,0.0,0.0,10.0,0.0,0.0,0.0,10.0,0.033289513626,0.0110521185238,0.0143810698864,1.0,0.0,0.0,0.0,1.0,0.0,0.0,0.0,1.0,0.0203576660156,0.241896972656,10.0818347168,0.1,0.0,0.0,0.0,0.1,0.0,0.0,0.0,0.1
1446036640506777615,37,1446036640503684043,robocape,4.44951934759,4.43902891651,26.1217116128,0.0,10.0,0.0,0.0,0.0,10.0,0.0,0.0,0.0,10.0,0.017976337358,0.00958737992429,0.0102531701968,1.0,0.0,0.0,0.0,1.0,0.0,0.0,0.0,1.0,-0.00598754882813,0.366437988281,10.0423168945,0.1,0.0,0.0,0.0,0.1,0.0,0.0,0.0,0.1
1446036640538412490,38,1446036640534964084,robocape,4.43726532315,4.4468193747,26.0744479913,0.0,10.0,0.0,0.0,0.0,10.0,0.0,0.0,0.0,10.0,-0.000532632218016,0.00852211548825,0.00572579634367,1.0,0.0,0.0,0.0,1.0,0.0,0.0,0.0,1.0,0.00838256835938,0.422720947266,10.0722546387,0.1,0.0,0.0,0.0,0.1,0.0,0.0,0.0,0.1
1446036640571943240,39,1446036640568748950,robocape,4.40009701271,4.45349002923,26.025756352,0.0,10.0,0.0,0.0,0.0,10.0,0.0,0.0,0.0,10.0,-0.0135821215594,0.00785632521573,0.00479368996214,1.0,0.0,0.0,0.0,1.0,0.0,0.0,0.0,1.0,0.0215551757813,0.209564208984,10.0339343262,0.1,0.0,0.0,0.0,0.1,0.0,0.0,0.0,0.1
1446036640606362281,40,1446036640603307008,robocape,4.36829706521,4.45969520694,25.976459318,0.0,10.0,0.0,0.0,0.0,10.0,0.0,0.0,0.0,10.0,-0.0107858024148,0.00759000910673,0.00439421579863,1.0,0.0,0.0,0.0,1.0,0.0,0.0,0.0,1.0,0.0119750976563,0.125738525391,10.0411193848,0.1,0.0,0.0,0.0,0.1,0.0,0.0,0.0,0.1
1446036640638738573,41,1446036640635652065,robocape,4.35718849586,4.46648598793,25.9318665569,0.0,10.0,0.0,0.0,0.0,10.0,0.0,0.0,0.0,10.0,-0.000133158054504,0.00812264132474,0.00692421883421,1.0,0.0,0.0,0.0,1.0,0.0,0.0,0.0,1.0,0.0275427246094,0.0910107421875,10.0159716797,0.1,0.0,0.0,0.0,0.1,0.0,0.0,0.0,0.1
1446036640672004573,42,1446036640669029951,robocape,4.37125161521,4.4754847961,25.8879176429,0.0,10.0,0.0,0.0,0.0,10.0,0.0,0.0,0.0,10.0,0.0130494893414,0.00932106381528,0.00719053494321,1.0,0.0,0.0,0.0,1.0,0.0,0.0,0.0,1.0,0.0227526855469,0.122145996094,10.0267492676,0.1,0.0,0.0,0.0,0.1,0.0,0.0,0.0,0.1
1446036640705608740,43,1446036640702368974,robocape,4.39113078535,4.48390046041,25.8476990481,0.0,10.0,0.0,0.0,0.0,10.0,0.0,0.0,0.0,10.0,0.0159789665405,0.00918790576077,0.00918790576077,1.0,0.0,0.0,0.0,1.0,0.0,0.0,0.0,1.0,-0.00239501953125,0.204774169922,10.0471069336,0.1,0.0,0.0,0.0,0.1,0.0,0.0,0.0,0.1
1446036640737445573,44,1446036640734366893,robocape,4.41687414787,4.4932921135,25.8049920336,0.0,10.0,0.0,0.0,0.0,10.0,0.0,0.0,0.0,10.0,0.0191747598486,0.00958737992429,0.00772316716123,1.0,0.0,0.0,0.0,1.0,0.0,0.0,0.0,1.0,0.0215551757813,0.144898681641,10.0495019531,0.1,0.0,0.0,0.0,0.1,0.0,0.0,0.0,0.1
1446036640771113740,45,1446036640768086910,robocape,4.44233223721,4.50207024101,25.7519706712,0.0,10.0,0.0,0.0,0.0,10.0,0.0,0.0,0.0,10.0,0.0194410759576,0.00878843159726,0.00199737081756,1.0,0.0,0.0,0.0,1.0,0.0,0.0,0.0,1.0,0.047900390625,0.219144287109,10.0447119141,0.1,0.0,0.0,0.0,0.1,0.0,0.0,0.0,0.1
1446036640804542906,46,1446036640801501989,robocape,4.45959325187,4.51297483096,25.6808926136,0.0,10.0,0.0,0.0,0.0,10.0,0.0,0.0,0.0,10.0,0.015845808486,0.00905474770627,-0.00812264132474,1.0,0.0,0.0,0.0,1.0,0.0,0.0,0.0,1.0,-0.0347277832031,0.566422119141,10.0171691895,0.1,0.0,0.0,0.0,0.1,0.0,0.0,0.0,0.1
1446036640837623698,47,1446036640834434032,robocape,4.42089882094,4.51889806159,25.6324388453,0.0,10.0,0.0,0.0,0.0,10.0,0.0,0.0,0.0,10.0,-0.0143810698864,0.00745685105222,0.00412789968962,1.0,0.0,0.0,0.0,1.0,0.0,0.0,0.0,1.0,0.0167651367188,0.213156738281,10.0363293457,0.1,0.0,0.0,0.0,0.1,0.0,0.0,0.0,0.1
1446036640871766698,48,1446036640868783950,robocape,4.38116800689,4.52419175012,25.5824328665,0.0,10.0,0.0,0.0,0.0,10.0,0.0,0.0,0.0,10.0,-0.0149137021044,0.00705737688871,0.0031957933081,1.0,0.0,0.0,0.0,1.0,0.0,0.0,0.0,1.0,0.0562829589844,0.0742456054688,10.0686621094,0.1,0.0,0.0,0.0,0.1,0.0,0.0,0.0,0.1
1446036640903757365,49,1446036640900554895,robocape,4.37776900207,4.53357673307,25.5287725493,0.0,10.0,0.0,0.0,0.0,10.0,0.0,0.0,0.0,10.0,0.00426105774413,0.00905474770627,0.00106526443603,1.0,0.0,0.0,0.0,1.0,0.0,0.0,0.0,1.0,0.01916015625,0.164058837891,10.0387243652,0.1,0.0,0.0,0.0,0.1,0.0,0.0,0.0,0.1
1446036640936825906,50,1446036640933623075,robocape,4.3822076999,4.54182719511,25.4851486866,0.0,10.0,0.0,0.0,0.0,10.0,0.0,0.0,0.0,10.0,0.00798948327024,0.00892158965177,0.00652474467069,1.0,0.0,0.0,0.0,1.0,0.0,0.0,0.0,1.0,0.0323327636719,0.122145996094,10.0471069336,0.1,0.0,0.0,0.0,0.1,0.0,0.0,0.0,0.1
1446036640970004615,51,1446036640966975927,robocape,4.39573638253,4.55107117358,25.4446134509,0.0,10.0,0.0,0.0,0.0,10.0,0.0,0.0,0.0,10.0,0.0126500151779,0.00958737992429,0.00812264132474,1.0,0.0,0.0,0.0,1.0,0.0,0.0,0.0,1.0,0.0467028808594,0.183218994141,10.0459094238,0.1,0.0,0.0,0.0,0.1,0.0,0.0,0.0,0.1
1446036641002425740,52,1446036640999435901,robocape,4.40144124996,4.56070431708,25.4084358771,0.0,10.0,0.0,0.0,0.0,10.0,0.0,0.0,0.0,10.0,0.00838895743375,0.0099868540878,0.0103863282513,1.0,0.0,0.0,0.0,1.0,0.0,0.0,0.0,1.0,0.00239501953125,0.271834716797,10.0734521484,0.1,0.0,0.0,0.0,0.1,0.0,0.0,0.0,0.1
1446036641035839615,53,1446036641032463073,robocape,4.3816784643,4.56639102772,25.4089918578,0.0,10.0,0.0,0.0,0.0,10.0,0.0,0.0,0.0,10.0,-0.00639158661619,0.00958737992429,0.0304931944814,1.0,0.0,0.0,0.0,1.0,0.0,0.0,0.0,1.0,0.0107775878906,-0.101788330078,10.0375268555,0.1,0.0,0.0,0.0,0.1,0.0,0.0,0.0,0.1
1446036641069116240,54,1446036641066111087,robocape,4.44624160779,4.57867385469,25.376405689,0.0,10.0,0.0,0.0,0.0,10.0,0.0,0.0,0.0,10.0,0.0391484680242,0.0115847507418,0.0123836990689,1.0,0.0,0.0,0.0,1.0,0.0,0.0,0.0,1.0,0.0179626464844,0.170046386719,10.0351318359,0.1,0.0,0.0,0.0,0.1,0.0,0.0,0.0,0.1
1446036641102652240,55,1446036641099596977,robocape,4.49557206195,4.58989183581,25.3558729333,0.0,10.0,0.0,0.0,0.0,10.0,0.0,0.0,0.0,10.0,0.0307595105904,0.0115847507418,0.0189084437396,1.0,0.0,0.0,0.0,1.0,0.0,0.0,0.0,1.0,0.0155676269531,0.350870361328,10.0351318359,0.1,0.0,0.0,0.0,0.1,0.0,0.0,0.0,0.1
1446036641135397740,56,1446036641132283926,robocape,4.53606519222,4.60054869241,25.3130602593,0.0,10.0,0.0,0.0,0.0,10.0,0.0,0.0,0.0,10.0,0.0270310850643,0.0102531701968,0.0066579027252,1.0,0.0,0.0,0.0,1.0,0.0,0.0,0.0,1.0,-0.0299377441406,0.376018066406,10.019564209,0.1,0.0,0.0,0.0,0.1,0.0,0.0,0.0,0.1
1446036641170220615,57,1446036641165668010,robocape,4.52585796262,4.60709383853,25.2714193787,0.0,10.0,0.0,0.0,0.0,10.0,0.0,0.0,0.0,10.0,0.000399474163512,0.00812264132474,0.00719053494321,1.0,0.0,0.0,0.0,1.0,0.0,0.0,0.0,1.0,0.0215551757813,0.361647949219,10.0459094238,0.1,0.0,0.0,0.0,0.1,0.0,0.0,0.0,0.1
1446036641203235990,58,1446036641200251102,robocape,4.50007438137,4.61413350058,25.2244732063,0.0,10.0,0.0,0.0,0.0,10.0,0.0,0.0,0.0,10.0,-0.00759000910673,0.00812264132474,0.00412789968962,1.0,0.0,0.0,0.0,1.0,0.0,0.0,0.0,1.0,0.0335302734375,0.246687011719,10.0734521484,0.1,0.0,0.0,0.0,0.1,0.0,0.0,0.0,0.1
1446036641236731740,59,1446036641233599901,robocape,4.4900655555,4.62156939759,25.167164065,0.0,10.0,0.0,0.0,0.0,10.0,0.0,0.0,0.0,10.0,0.00106526443603,0.00785632521573,-0.00159789665405,1.0,0.0,0.0,0.0,1.0,0.0,0.0,0.0,1.0,0.00838256835938,0.142503662109,10.0518969727,0.1,0.0,0.0,0.0,0.1,0.0,0.0,0.0,0.1
1446036641268871407,60,1446036641265849113,robocape,4.52776061034,4.63618180568,25.0518331962,0.0,10.0,0.0,0.0,0.0,10.0,0.0,0.0,0.0,10.0,0.0283626656093,0.00892158965177,-0.033555829735,1.0,0.0,0.0,0.0,1.0,0.0,0.0,0.0,1.0,-0.0383203125,0.552052001953,10.0183666992,0.1,0.0,0.0,0.0,0.1,0.0,0.0,0.0,0.1
1446036641302326073,61,1446036641299154043,robocape,4.41542587588,4.63561253833,25.0032963611,0.0,10.0,0.0,0.0,0.0,10.0,0.0,0.0,0.0,10.0,-0.0529969056926,0.00399474163512,0.00279631914458,1.0,0.0,0.0,0.0,1.0,0.0,0.0,0.0,1.0,0.0526904296875,0.170046386719,10.0518969727,0.1,0.0,0.0,0.0,0.1,0.0,0.0,0.0,0.1
1446036641335143323,62,1446036641332096099,robocape,4.31259214977,4.6376212705,24.9803718462,0.0,10.0,0.0,0.0,0.0,10.0,0.0,0.0,0.0,10.0,-0.049135322112,0.00652474467069,0.016644756813,1.0,0.0,0.0,0.0,1.0,0.0,0.0,0.0,1.0,0.0586779785156,-0.0047900390625,10.0518969727,0.1,0.0,0.0,0.0,0.1,0.0,0.0,0.0,0.1
1446036641368761657,63,1446036641365756034,robocape,4.36025585413,4.64863955112,24.9394346944,0.0,10.0,0.0,0.0,0.0,10.0,0.0,0.0,0.0,10.0,0.0304931944814,0.0105194863058,0.00692421883421,1.0,0.0,0.0,0.0,1.0,0.0,0.0,0.0,1.0,-0.0167651367188,-0.258662109375,10.0147741699,0.1,0.0,0.0,0.0,0.1,0.0,0.0,0.0,0.1
1446036641402163990,64,1446036641399004936,robocape,4.47910399161,4.66227956658,24.9025297141,0.0,10.0,0.0,0.0,0.0,10.0,0.0,0.0,0.0,10.0,0.0677774497425,0.0121173829599,0.00918790576077,1.0,0.0,0.0,0.0,1.0,0.0,0.0,0.0,1.0,0.05748046875,0.132923583984,10.0123791504,0.1,0.0,0.0,0.0,0.1,0.0,0.0,0.0,0.1
1446036641435578782,65,1446036641432584047,robocape,4.5582477798,4.67369676944,24.8738746381,0.0,10.0,0.0,0.0,0.0,10.0,0.0,0.0,0.0,10.0,0.0467384771309,0.0113184346328,0.0135821215594,1.0,0.0,0.0,0.0,1.0,0.0,0.0,0.0,1.0,0.0407153320313,0.452658691406,10.0435144043,0.1,0.0,0.0,0.0,0.1,0.0,0.0,0.0,0.1
1446036641468802532,66,1446036641465686082,robocape,4.57225211004,4.68343663083,24.830748791,0.0,10.0,0.0,0.0,0.0,10.0,0.0,0.0,0.0,10.0,0.0131826473959,0.00972053797879,0.00545948023466,1.0,0.0,0.0,0.0,1.0,0.0,0.0,0.0,1.0,-0.0419128417969,0.566422119141,9.99681152344,0.1,0.0,0.0,0.0,0.1,0.0,0.0,0.0,0.1
1446036641502237740,67,1446036641499164104,robocape,4.5136205676,4.69048388427,24.7761140201,0.0,10.0,0.0,0.0,0.0,10.0,0.0,0.0,0.0,10.0,-0.0245010820287,0.00772316716123,-0.00106526443603,1.0,0.0,0.0,0.0,1.0,0.0,0.0,0.0,1.0,-0.0155676269531,0.401165771484,10.0471069336,0.1,0.0,0.0,0.0,0.1,0.0,0.0,0.0,0.1
1446036641536230740,68,1446036641533062934,robocape,4.41183387579,4.69048791376,24.732437666,0.0,10.0,0.0,0.0,0.0,10.0,0.0,0.0,0.0,10.0,-0.0476705835124,0.00452737385313,0.00492684801665,1.0,0.0,0.0,0.0,1.0,0.0,0.0,0.0,1.0,0.0215551757813,0.179626464844,10.0506994629,0.1,0.0,0.0,0.0,0.1,0.0,0.0,0.0,0.1
1446036641568523948,69,1446036641565576076,robocape,4.37242753341,4.69649916738,24.6860096438,0.0,10.0,0.0,0.0,0.0,10.0,0.0,0.0,0.0,10.0,-0.0149137021044,0.00759000910673,0.0033289513626,1.0,0.0,0.0,0.0,1.0,0.0,0.0,0.0,1.0,-0.0047900390625,-0.104183349609,10.0279467773,0.1,0.0,0.0,0.0,0.1,0.0,0.0,0.0,0.1
1446036641602018740,70,1446036641599005937,robocape,4.39269460836,4.7047523294,24.659773256,0.0,10.0,0.0,0.0,0.0,10.0,0.0,0.0,0.0,10.0,0.015579492377,0.00972053797879,0.0143810698864,1.0,0.0,0.0,0.0,1.0,0.0,0.0,0.0,1.0,0.0371228027344,-0.0730480957031,10.0303417969,0.1,0.0,0.0,0.0,0.1,0.0,0.0,0.0,0.1
1446036641635740990,71,1446036641632699966,robocape,4.47477605501,4.71779216163,24.6301661333,0.0,10.0,0.0,0.0,0.0,10.0,0.0,0.0,0.0,10.0,0.0482032157304,0.0121173829599,0.0125168571234,1.0,0.0,0.0,0.0,1.0,0.0,0.0,0.0,1.0,0.0299377441406,0.119750976563,10.0303417969,0.1,0.0,0.0,0.0,0.1,0.0,0.0,0.0,0.1
1446036641668447240,72,1446036641665491104,robocape,4.53607333838,4.72900829348,24.6096856511,0.0,10.0,0.0,0.0,0.0,10.0,0.0,0.0,0.0,10.0,0.0370179391521,0.0115847507418,0.01744370514,1.0,0.0,0.0,0.0,1.0,0.0,0.0,0.0,1.0,0.00598754882813,0.347277832031,10.0590820312,0.1,0.0,0.0,0.0,0.1,0.0,0.0,0.0,0.1
1446036641702183073,73,1446036641699140071,robocape,4.56587448188,4.73840361259,24.5700738538,0.0,10.0,0.0,0.0,0.0,10.0,0.0,0.0,0.0,10.0,0.0213052887206,0.00972053797879,0.00692421883421,1.0,0.0,0.0,0.0,1.0,0.0,0.0,0.0,1.0,-0.0215551757813,0.453856201172,10.0255517578,0.1,0.0,0.0,0.0,0.1,0.0,0.0,0.0,0.1
1446036641735507115,74,1446036641732446908,robocape,4.53002422054,4.7435226048,24.5280370246,0.0,10.0,0.0,0.0,0.0,10.0,0.0,0.0,0.0,10.0,-0.0130494893414,0.00732369299772,0.00545948023466,1.0,0.0,0.0,0.0,1.0,0.0,0.0,0.0,1.0,0.0227526855469,0.365240478516,10.055489502,0.1,0.0,0.0,0.0,0.1,0.0,0.0,0.0,0.1
1446036641768555865,75,1446036641765496969,robocape,4.47873053763,4.7479650018,24.4852268089,0.0,10.0,0.0,0.0,0.0,10.0,0.0,0.0,0.0,10.0,-0.0211721306661,0.00692421883421,0.00492684801665,1.0,0.0,0.0,0.0,1.0,0.0,0.0,0.0,1.0,0.0227526855469,0.184416503906,10.0327368164,0.1,0.0,0.0,0.0,0.1,0.0,0.0,0.0,0.1
1446036641802595574,76,1446036641799226999,robocape,4.44837206014,4.75331894985,24.4461633396,0.0,10.0,0.0,0.0,0.0,10.0,0.0,0.0,0.0,10.0,-0.0103863282513,0.00759000910673,0.00692421883421,1.0,0.0,0.0,0.0,1.0,0.0,0.0,0.0,1.0,0.009580078125,0.0718505859375,10.0495019531,0.1,0.0,0.0,0.0,0.1,0.0,0.0,0.0,0.1
1446036641835538449,77,1446036641832169055,robocape,4.46716368631,4.76330625549,24.4057890988,0.0,10.0,0.0,0.0,0.0,10.0,0.0,0.0,0.0,10.0,0.0154463343225,0.0099868540878,0.00612527050718,1.0,0.0,0.0,0.0,1.0,0.0,0.0,0.0,1.0,0.0179626464844,0.0490979003906,10.0255517578,0.1,0.0,0.0,0.0,0.1,0.0,0.0,0.0,0.1
1446036641868902324,78,1446036641865575075,robocape,4.51528125488,4.77454108423,24.3681488942,0.0,10.0,0.0,0.0,0.0,10.0,0.0,0.0,0.0,10.0,0.0307595105904,0.0107858024148,0.00759000910673,1.0,0.0,0.0,0.0,1.0,0.0,0.0,0.0,1.0,0.009580078125,0.176033935547,10.0518969727,0.1,0.0,0.0,0.0,0.1,0.0,0.0,0.0,0.1
1446036641902227990,79,1446036641899000883,robocape,4.56212923442,4.7868000232,24.3219265676,0.0,10.0,0.0,0.0,0.0,10.0,0.0,0.0,0.0,10.0,0.0304931944814,0.0109189604693,0.00279631914458,1.0,0.0,0.0,0.0,1.0,0.0,0.0,0.0,1.0,0.00718505859375,0.365240478516,10.0530944824,0.1,0.0,0.0,0.0,0.1,0.0,0.0,0.0,0.1
1446036641935434532,80,1446036641932317972,robocape,4.54647144421,4.79118527521,24.2849880416,0.0,10.0,0.0,0.0,0.0,10.0,0.0,0.0,0.0,10.0,-0.00266316109008,0.00719053494321,0.00785632521573,1.0,0.0,0.0,0.0,1.0,0.0,0.0,0.0,1.0,0.00598754882813,0.425115966797,10.039921875,0.1,0.0,0.0,0.0,0.1,0.0,0.0,0.0,0.1
1446036641968549282,81,1446036641965420007,robocape,4.49507568041,4.79649066231,24.2411416432,0.0,10.0,0.0,0.0,0.0,10.0,0.0,0.0,0.0,10.0,-0.0211721306661,0.00732369299772,0.00386158358061,1.0,0.0,0.0,0.0,1.0,0.0,0.0,0.0,1.0,-0.00718505859375,0.270637207031,10.0339343262,0.1,0.0,0.0,0.0,0.1,0.0,0.0,0.0,0.1
1446036642001926740,82,1446036641998749017,robocape,4.46961901595,4.8031428389,24.1902966149,0.0,10.0,0.0,0.0,0.0,10.0,0.0,0.0,0.0,10.0,-0.00732369299772,0.00772316716123,0.0,1.0,0.0,0.0,0.0,1.0,0.0,0.0,0.0,1.0,0.0155676269531,0.106578369141,10.0363293457,0.1,0.0,0.0,0.0,0.1,0.0,0.0,0.0,0.1
1446036642035504074,83,1446036642032407045,robocape,4.47974390801,4.81244099422,24.123464583,0.0,10.0,0.0,0.0,0.0,10.0,0.0,0.0,0.0,10.0,0.0119842249054,0.00838895743375,-0.00878843159726,1.0,0.0,0.0,0.0,1.0,0.0,0.0,0.0,1.0,0.0131726074219,0.342487792969,10.0315393066,0.1,0.0,0.0,0.0,0.1,0.0,0.0,0.0,0.1
1446036642068612699,84,1446036642065650939,robocape,4.46317133678,4.81695597603,24.0852949839,0.0,10.0,0.0,0.0,0.0,10.0,0.0,0.0,0.0,10.0,-0.0031957933081,0.00719053494321,0.0067910607797,1.0,0.0,0.0,0.0,1.0,0.0,0.0,0.0,1.0,0.0431103515625,0.122145996094,10.0435144043,0.1,0.0,0.0,0.0,0.1,0.0,0.0,0.0,0.1
1446036642102014115,85,1446036642098944902,robocape,4.46079327085,4.82404439452,24.0466162466,0.0,10.0,0.0,0.0,0.0,10.0,0.0,0.0,0.0,10.0,0.00426105774413,0.00852211548825,0.00639158661619,1.0,0.0,0.0,0.0,1.0,0.0,0.0,0.0,1.0,0.0335302734375,0.129331054688,10.0267492676,0.1,0.0,0.0,0.0,0.1,0.0,0.0,0.0,0.1
1446036642135468282,86,1446036642132441997,robocape,4.46721387421,4.83104846073,24.0231718886,0.0,10.0,0.0,0.0,0.0,10.0,0.0,0.0,0.0,10.0,0.00825579937925,0.00918790576077,0.0146473859954,1.0,0.0,0.0,0.0,1.0,0.0,0.0,0.0,1.0,0.0586779785156,0.186811523438,10.0650695801,0.1,0.0,0.0,0.0,0.1,0.0,0.0,0.0,0.1
1446036642169567490,87,1446036642165610074,robocape,4.48602395933,4.84012106871,23.9962088876,0.0,10.0,0.0,0.0,0.0,10.0,0.0,0.0,0.0,10.0,0.0149137021044,0.0101200121423,0.0126500151779,1.0,0.0,0.0,0.0,1.0,0.0,0.0,0.0,1.0,0.00598754882813,0.0682580566406,10.0339343262,0.1,0.0,0.0,0.0,0.1,0.0,0.0,0.0,0.1
1446036642203763490,88,1446036642200666904,robocape,4.51603634188,4.84936309384,23.9670827496,0.0,10.0,0.0,0.0,0.0,10.0,0.0,0.0,0.0,10.0,0.0209058145571,0.0101200121423,0.0114515926873,1.0,0.0,0.0,0.0,1.0,0.0,0.0,0.0,1.0,0.0203576660156,0.209564208984,10.0315393066,0.1,0.0,0.0,0.0,0.1,0.0,0.0,0.0,0.1
1446036642236753865,89,1446036642233525037,robocape,4.55853924267,4.85926794743,23.9331349275,0.0,10.0,0.0,0.0,0.0,10.0,0.0,0.0,0.0,10.0,0.0276968753368,0.0102531701968,0.00878843159726,1.0,0.0,0.0,0.0,1.0,0.0,0.0,0.0,1.0,-0.00598754882813,0.243094482422,10.0051940918,0.1,0.0,0.0,0.0,0.1,0.0,0.0,0.0,0.1
1446036642269553115,90,1446036642266607046,robocape,4.58253641386,4.86734926004,23.8970870347,0.0,10.0,0.0,0.0,0.0,10.0,0.0,0.0,0.0,10.0,0.0181094954125,0.00918790576077,0.00759000910673,1.0,0.0,0.0,0.0,1.0,0.0,0.0,0.0,1.0,0.0263452148438,0.264649658203,10.0147741699,0.1,0.0,0.0,0.0,0.1,0.0,0.0,0.0,0.1
1446036642303858282,91,1446036642300565004,robocape,4.5882978366,4.87718692673,23.8166184677,0.0,10.0,0.0,0.0,0.0,10.0,0.0,0.0,0.0,10.0,0.0103863282513,0.00798948327024,-0.0167779148675,1.0,0.0,0.0,0.0,1.0,0.0,0.0,0.0,1.0,0.0203576660156,0.307760009766,10.0566870117,0.1,0.0,0.0,0.0,0.1,0.0,0.0,0.0,0.1
1446036642336580449,92,1446036642332923889,robocape,4.53848157951,4.88057261653,23.7549148965,0.0,10.0,0.0,0.0,0.0,10.0,0.0,0.0,0.0,10.0,-0.0195742340121,0.00545948023466,-0.0066579027252,1.0,0.0,0.0,0.0,1.0,0.0,0.0,0.0,1.0,-0.0335302734375,0.665815429688,10.003996582,0.1,0.0,0.0,0.0,0.1,0.0,0.0,0.0,0.1
1446036642369649949,93,1446036642366569042,robocape,4.42253441452,4.88274934611,23.6988889686,0.0,10.0,0.0,0.0,0.0,10.0,0.0,0.0,0.0,10.0,-0.0545948023466,0.00506000607115,-0.00386158358061,1.0,0.0,0.0,0.0,1.0,0.0,0.0,0.0,1.0,0.00239501953125,0.0526904296875,10.0063916016,0.1,0.0,0.0,0.0,0.1,0.0,0.0,0.0,0.1
1446036642406917407,94,1446036642402137994,robocape,4.36279181122,4.88605212846,23.6579673452,0.0,10.0,0.0,0.0,0.0,10.0,0.0,0.0,0.0,10.0,-0.0258326625738,0.00639158661619,0.00439421579863,1.0,0.0,0.0,0.0,1.0,0.0,0.0,0.0,1.0,0.0694555664063,-0.220341796875,10.0339343262,0.1,0.0,0.0,0.0,0.1,0.0,0.0,0.0,0.1
1446036642436817282,95,1446036642433753013,robocape,4.39565509693,4.89458446015,23.6258101113,0.0,10.0,0.0,0.0,0.0,10.0,0.0,0.0,0.0,10.0,0.0223705531567,0.00958737992429,0.00918790576077,1.0,0.0,0.0,0.0,1.0,0.0,0.0,0.0,1.0,0.0347277832031,-0.144898681641,10.0471069336,0.1,0.0,0.0,0.0,0.1,0.0,0.0,0.0,0.1
1446036642472469366,96,1446036642468944072,robocape,4.46562287464,4.90659842713,23.6084727079,0.0,10.0,0.0,0.0,0.0,10.0,0.0,0.0,0.0,10.0,0.0412789968962,0.0121173829599,0.017177389031,1.0,0.0,0.0,0.0,1.0,0.0,0.0,0.0,1.0,0.0167651367188,0.009580078125,10.0327368164,0.1,0.0,0.0,0.0,0.1,0.0,0.0,0.0,0.1
1446036642505666949,97,1446036642502223014,robocape,4.56444090385,4.91979236198,23.5827750113,0.0,10.0,0.0,0.0,0.0,10.0,0.0,0.0,0.0,10.0,0.0568584892732,0.0123836990689,0.0126500151779,1.0,0.0,0.0,0.0,1.0,0.0,0.0,0.0,1.0,-0.00359252929688,0.45984375,10.0423168945,0.1,0.0,0.0,0.0,0.1,0.0,0.0,0.0,0.1
1446036642538973491,98,1446036642535919904,robocape,4.59781138898,4.92816555297,23.5464347721,0.0,10.0,0.0,0.0,0.0,10.0,0.0,0.0,0.0,10.0,0.0230363434292,0.00932106381528,0.0067910607797,1.0,0.0,0.0,0.0,1.0,0.0,0.0,0.0,1.0,-0.028740234375,0.558039550781,10.0051940918,0.1,0.0,0.0,0.0,0.1,0.0,0.0,0.0,0.1
1446036642572821449,99,1446036642569833993,robocape,4.53074632258,4.93079418848,23.5104326949,0.0,10.0,0.0,0.0,0.0,10.0,0.0,0.0,0.0,10.0,-0.0296942461544,0.00625842856169,0.0067910607797,1.0,0.0,0.0,0.0,1.0,0.0,0.0,0.0,1.0,0.0143701171875,0.398770751953,10.0483044434,0.1,0.0,0.0,0.0,0.1,0.0,0.0,0.0,0.1
1446036642606883324,100,1446036642602993011,robocape,4.45268442399,4.93398000472,23.468288931,0.0,10.0,0.0,0.0,0.0,10.0,0.0,0.0,0.0,10.0,-0.0352868844435,0.00625842856169,0.0033289513626,1.0,0.0,0.0,0.0,1.0,0.0,0.0,0.0,1.0,0.0299377441406,0.253872070313,10.0423168945,0.1,0.0,0.0,0.0,0.1,0.0,0.0,0.0,0.1
1446036642639818657,101,1446036642636262893,robocape,4.42978317142,4.93947805809,23.4163140616,0.0,10.0,0.0,0.0,0.0,10.0,0.0,0.0,0.0,10.0,-0.00599211245268,0.00705737688871,-0.00199737081756,1.0,0.0,0.0,0.0,1.0,0.0,0.0,0.0,1.0,0.0215551757813,-0.111368408203,10.0267492676,0.1,0.0,0.0,0.0,0.1,0.0,0.0,0.0,0.1
1446036642673585824,102,1446036642669967889,robocape,4.4398525246,4.9473826711,23.3828664169,0.0,10.0,0.0,0.0,0.0,10.0,0.0,0.0,0.0,10.0,0.0105194863058,0.00918790576077,0.00798948327024,1.0,0.0,0.0,0.0,1.0,0.0,0.0,0.0,1.0,0.0371228027344,0.158071289063,10.0279467773,0.1,0.0,0.0,0.0,0.1,0.0,0.0,0.0,0.1
1446036642706617949,103,1446036642702644109,robocape,4.46475199352,4.95612556875,23.3512179624,0.0,10.0,0.0,0.0,0.0,10.0,0.0,0.0,0.0,10.0,0.018242653467,0.00972053797879,0.00892158965177,1.0,0.0,0.0,0.0,1.0,0.0,0.0,0.0,1.0,0.00598754882813,0.146096191406,10.0303417969,0.1,0.0,0.0,0.0,0.1,0.0,0.0,0.0,0.1
1446036642739149741,104,1446036642735419034,robocape,4.46560277253,4.96145631757,23.358562722,0.0,10.0,0.0,0.0,0.0,10.0,0.0,0.0,0.0,10.0,0.00399474163512,0.00972053797879,0.0300937203179,1.0,0.0,0.0,0.0,1.0,0.0,0.0,0.0,1.0,-0.00598754882813,0.352067871094,10.0171691895,0.1,0.0,0.0,0.0,0.1,0.0,0.0,0.0,0.1
1446036642772740241,105,1446036642769067049,robocape,4.51095642598,4.96921937994,23.3518120862,0.0,10.0,0.0,0.0,0.0,10.0,0.0,0.0,0.0,10.0,0.0279631914458,0.0103863282513,0.0225037112112,1.0,0.0,0.0,0.0,1.0,0.0,0.0,0.0,1.0,0.0227526855469,-0.21076171875,10.0327368164,0.1,0.0,0.0,0.0,0.1,0.0,0.0,0.0,0.1
1446036642805833657,106,1446036642802310943,robocape,4.60085739263,4.98005272348,23.3295837455,0.0,10.0,0.0,0.0,0.0,10.0,0.0,0.0,0.0,10.0,0.052064799311,0.0113184346328,0.0141147537774,1.0,0.0,0.0,0.0,1.0,0.0,0.0,0.0,1.0,0.0323327636719,0.122145996094,10.0339343262,0.1,0.0,0.0,0.0,0.1,0.0,0.0,0.0,0.1
1446036642839937824,107,1446036642836716890,robocape,4.78874441853,5.00378798073,23.1630195799,0.0,10.0,0.0,0.0,0.0,10.0,0.0,0.0,0.0,10.0,0.109722236911,0.0111852765783,-0.0644484983799,1.0,0.0,0.0,0.0,1.0,0.0,0.0,0.0,1.0,-0.0646655273438,0.796343994141,10.0016015625,0.1,0.0,0.0,0.0,0.1,0.0,0.0,0.0,0.1
1446036642872373949,108,1446036642869226932,robocape,4.76314488996,5.00891566738,23.0106165153,0.0,10.0,0.0,0.0,0.0,10.0,0.0,0.0,0.0,10.0,-0.00279631914458,0.00186421276306,-0.0569916473277,1.0,0.0,0.0,0.0,1.0,0.0,0.0,0.0,1.0,-0.0119750976563,1.19990478516,10.0207617188,0.1,0.0,0.0,0.0,0.1,0.0,0.0,0.0,0.1
1446036642905743199,109,1446036642902570009,robocape,4.49280030807,5.00028069136,22.8818548315,0.0,10.0,0.0,0.0,0.0,10.0,0.0,0.0,0.0,10.0,-0.132359106177,-0.00426105774413,-0.0447411063133,1.0,0.0,0.0,0.0,1.0,0.0,0.0,0.0,1.0,0.00718505859375,0.622705078125,10.0435144043,0.1,0.0,0.0,0.0,0.1,0.0,0.0,0.0,0.1
1446036642938794116,110,1446036642935739040,robocape,4.17045648164,4.98982898624,22.784133417,0.0,10.0,0.0,0.0,0.0,10.0,0.0,0.0,0.0,10.0,-0.161254404004,-0.00359526747161,-0.0282295075548,1.0,0.0,0.0,0.0,1.0,0.0,0.0,0.0,1.0,0.00598754882813,-0.00239501953125,10.0674645996,0.1,0.0,0.0,0.0,0.1,0.0,0.0,0.0,0.1
1446036642972029032,111,1446036642969022989,robocape,3.89233848839,4.97711880089,22.7948359647,0.0,10.0,0.0,0.0,0.0,10.0,0.0,0.0,0.0,10.0,-0.143011750537,0.0,0.0306263525359,1.0,0.0,0.0,0.0,1.0,0.0,0.0,0.0,1.0,0.0395178222656,-0.427510986328,10.0315393066,0.1,0.0,0.0,0.0,0.1,0.0,0.0,0.0,0.1
1446036643005303074,112,1446036643002145051,robocape,3.79082764348,4.97808809803,22.7719833733,0.0,10.0,0.0,0.0,0.0,10.0,0.0,0.0,0.0,10.0,-0.049135322112,0.00585895439817,0.0125168571234,1.0,0.0,0.0,0.0,1.0,0.0,0.0,0.0,1.0,0.0263452148438,-0.257464599609,10.0351318359,0.1,0.0,0.0,0.0,0.1,0.0,0.0,0.0,0.1
1446036643037801157,113,1446036643034833908,robocape,3.82271326305,4.99075482483,22.7372116198,0.0,10.0,0.0,0.0,0.0,10.0,0.0,0.0,0.0,10.0,0.0213052887206,0.0115847507418,0.00599211245268,1.0,0.0,0.0,0.0,1.0,0.0,0.0,0.0,1.0,0.159268798828,-0.203576660156,10.0159716797,0.1,0.0,0.0,0.0,0.1,0.0,0.0,0.0,0.1
1446036643071524407,114,1446036643068510055,robocape,3.84665042593,4.99895664537,22.7639511078,0.0,10.0,0.0,0.0,0.0,10.0,0.0,0.0,0.0,10.0,0.0145142279409,0.0117179087963,0.0394147841332,1.0,0.0,0.0,0.0,1.0,0.0,0.0,0.0,1.0,0.110170898438,-0.143701171875,10.0255517578,0.1,0.0,0.0,0.0,0.1,0.0,0.0,0.0,0.1
1446036643105412199,115,1446036643102207899,robocape,3.9643998384,5.0104567868,22.7817572427,0.0,10.0,0.0,0.0,0.0,10.0,0.0,0.0,0.0,10.0,0.0641821822709,0.0131826473959,0.0347542522255,1.0,0.0,0.0,0.0,1.0,0.0,0.0,0.0,1.0,-0.0263452148438,-0.205971679688,10.0063916016,0.1,0.0,0.0,0.0,0.1,0.0,0.0,0.0,0.1
1446036643138320533,116,1446036643135222911,robocape,4.14747520977,5.03190826743,22.7489629222,0.0,10.0,0.0,0.0,0.0,10.0,0.0,0.0,0.0,10.0,0.100800647259,0.016378440704,0.00719053494321,1.0,0.0,0.0,0.0,1.0,0.0,0.0,0.0,1.0,0.0718505859375,0.367635498047,10.0770446777,0.1,0.0,0.0,0.0,0.1,0.0,0.0,0.0,0.1
1446036643170917616,117,1446036643167872905,robocape,4.35481147434,5.05568572981,22.6396398651,0.0,10.0,0.0,0.0,0.0,10.0,0.0,0.0,0.0,10.0,0.117045929909,0.0142479118319,-0.034354778062,1.0,0.0,0.0,0.0,1.0,0.0,0.0,0.0,1.0,0.0203576660156,0.271834716797,10.0530944824,0.1,0.0,0.0,0.0,0.1,0.0,0.0,0.0,0.1
1446036643206655616,118,1446036643203308105,robocape,4.44191735755,5.07155871533,22.4643384246,0.0,10.0,0.0,0.0,0.0,10.0,0.0,0.0,0.0,10.0,0.0569916473277,0.00692421883421,-0.0703074527781,1.0,0.0,0.0,0.0,1.0,0.0,0.0,0.0,1.0,-0.00359252929688,1.06578369141,10.0626745605,0.1,0.0,0.0,0.0,0.1,0.0,0.0,0.0,0.1
1446036643238013366,119,1446036643234814882,robocape,4.27023343887,5.06925511361,22.3143621068,0.0,10.0,0.0,0.0,0.0,10.0,0.0,0.0,0.0,10.0,-0.0798948327024,-0.00159789665405,-0.0569916473277,1.0,0.0,0.0,0.0,1.0,0.0,0.0,0.0,1.0,-0.0455053710938,0.9580078125,10.003996582,0.1,0.0,0.0,0.0,0.1,0.0,0.0,0.0,0.1
1446036643269514991,120,1446036643266537904,robocape,3.88747620654,5.04544319258,22.2726762656,0.0,10.0,0.0,0.0,0.0,10.0,0.0,0.0,0.0,10.0,-0.195609182066,-0.00812264132474,0.00146473859954,1.0,0.0,0.0,0.0,1.0,0.0,0.0,0.0,1.0,0.0323327636719,-0.0047900390625,9.99561401367,0.1,0.0,0.0,0.0,0.1,0.0,0.0,0.0,0.1
1446036643303392491,121,1446036643300317049,robocape,3.60850152195,5.03194381795,22.2532927538,0.0,10.0,0.0,0.0,0.0,10.0,0.0,0.0,0.0,10.0,-0.142479118319,-0.00173105470855,0.0134489635049,1.0,0.0,0.0,0.0,1.0,0.0,0.0,0.0,1.0,-0.0538879394531,-0.439486083984,10.0938098145,0.1,0.0,0.0,0.0,0.1,0.0,0.0,0.0,0.1
1446036643336201449,122,1446036643333236932,robocape,3.44035975538,5.02412019071,22.3244489392,0.0,10.0,0.0,0.0,0.0,10.0,0.0,0.0,0.0,10.0,-0.0885501062451,0.00466053190764,0.0625842856169,1.0,0.0,0.0,0.0,1.0,0.0,0.0,0.0,1.0,0.0323327636719,-0.643062744141,10.0303417969,0.1,0.0,0.0,0.0,0.1,0.0,0.0,0.0,0.1
1446036643368988324,123,1446036643365983009,robocape,3.54173113404,5.04475059837,22.2806866296,0.0,10.0,0.0,0.0,0.0,10.0,0.0,0.0,0.0,10.0,0.0577905956547,0.0154463343225,0.000266316109008,1.0,0.0,0.0,0.0,1.0,0.0,0.0,0.0,1.0,0.373623046875,-0.631087646484,9.96088623047,0.1,0.0,0.0,0.0,0.1,0.0,0.0,0.0,0.1
1446036643402166366,124,1446036643399039983,robocape,3.72256742841,5.06555913847,22.2615885131,0.0,10.0,0.0,0.0,0.0,10.0,0.0,0.0,0.0,10.0,0.0985369603329,0.0165115987585,0.0137152796139,1.0,0.0,0.0,0.0,1.0,0.0,0.0,0.0,1.0,0.0347277832031,-0.449066162109,9.9980090332,0.1,0.0,0.0,0.0,0.1,0.0,0.0,0.0,0.1
1446036643436216491,125,1446036643432893991,robocape,3.94673058993,5.08991733176,22.2344478856,0.0,10.0,0.0,0.0,0.0,10.0,0.0,0.0,0.0,10.0,0.121839619871,0.0181094954125,0.00932106381528,1.0,0.0,0.0,0.0,1.0,0.0,0.0,0.0,1.0,0.0,0.221539306641,10.0518969727,0.1,0.0,0.0,0.0,0.1,0.0,0.0,0.0,0.1
1446036643468651991,126,1446036643465702056,robocape,4.08755554323,5.10739400957,22.208087529,0.0,10.0,0.0,0.0,0.0,10.0,0.0,0.0,0.0,10.0,0.0782969360483,0.0145142279409,0.00972053797879,1.0,0.0,0.0,0.0,1.0,0.0,0.0,0.0,1.0,0.0419128417969,0.639470214844,10.0315393066,0.1,0.0,0.0,0.0,0.1,0.0,0.0,0.0,0.1
1446036643502082324,127,1446036643499017953,robocape,3.98803684734,5.10897036519,22.2373817572,0.0,10.0,0.0,0.0,0.0,10.0,0.0,0.0,0.0,10.0,-0.050200586548,0.00838895743375,0.0396811002422,1.0,0.0,0.0,0.0,1.0,0.0,0.0,0.0,1.0,-0.0886157226563,0.635877685547,10.0746496582,0.1,0.0,0.0,0.0,0.1,0.0,0.0,0.0,0.1
1446036643535327991,128,1446036643532373905,robocape,3.78449870301,5.0941170845,22.3932479339,0.0,10.0,0.0,0.0,0.0,10.0,0.0,0.0,0.0,10.0,-0.110521185238,0.00479368996214,0.108523814421,1.0,0.0,0.0,0.0,1.0,0.0,0.0,0.0,1.0,-0.0179626464844,0.0215551757813,10.0147741699,0.1,0.0,0.0,0.0,0.1,0.0,0.0,0.0,0.1
1446036643568729366,129,1446036643565735101,robocape,3.71643366719,5.09132585682,22.5268895015,0.0,10.0,0.0,0.0,0.0,10.0,0.0,0.0,0.0,10.0,-0.0386158358061,0.0101200121423,0.0968059056244,1.0,0.0,0.0,0.0,1.0,0.0,0.0,0.0,1.0,0.0922082519531,-0.622705078125,10.0255517578,0.1,0.0,0.0,0.0,0.1,0.0,0.0,0.0,0.1
1446036643602100658,130,1446036643599005937,robocape,3.85721763447,5.10772181003,22.6002297908,0.0,10.0,0.0,0.0,0.0,10.0,0.0,0.0,0.0,10.0,0.0736364041407,0.017976337358,0.0643153403254,1.0,0.0,0.0,0.0,1.0,0.0,0.0,0.0,1.0,0.142503662109,-0.59396484375,10.0483044434,0.1,0.0,0.0,0.0,0.1,0.0,0.0,0.0,0.1
1446036643635458033,131,1446036643632498025,robocape,4.01900729007,5.11688564329,22.7673269477,0.0,10.0,0.0,0.0,0.0,10.0,0.0,0.0,0.0,10.0,0.0806937810294,0.018242653467,0.115581191309,1.0,0.0,0.0,0.0,1.0,0.0,0.0,0.0,1.0,0.0467028808594,-0.382005615234,10.0459094238,0.1,0.0,0.0,0.0,0.1,0.0,0.0,0.0,0.1
1446036643668722908,132,1446036643665545940,robocape,4.35114930934,5.13868970514,22.8509914825,0.0,10.0,0.0,0.0,0.0,10.0,0.0,0.0,0.0,10.0,0.174037577237,0.0218379209386,0.0707069269416,1.0,0.0,0.0,0.0,1.0,0.0,0.0,0.0,1.0,0.0718505859375,-0.120948486328,10.0075891113,0.1,0.0,0.0,0.0,0.1,0.0,0.0,0.0,0.1
1446036643702211158,133,1446036643699006080,robocape,4.68142226562,5.16160304377,22.8820615409,0.0,10.0,0.0,0.0,0.0,10.0,0.0,0.0,0.0,10.0,0.175768631945,0.0203731823391,0.0423442613323,1.0,0.0,0.0,0.0,1.0,0.0,0.0,0.0,1.0,-0.241896972656,0.635877685547,10.1345251465,0.1,0.0,0.0,0.0,0.1,0.0,0.0,0.0,0.1
1446036643735379199,134,1446036643732351064,robocape,4.86586376809,5.1784855163,22.8482483463,0.0,10.0,0.0,0.0,0.0,10.0,0.0,0.0,0.0,10.0,0.102398543914,0.0141147537774,0.00705737688871,1.0,0.0,0.0,0.0,1.0,0.0,0.0,0.0,1.0,-0.0155676269531,0.853824462891,10.0914147949,0.1,0.0,0.0,0.0,0.1,0.0,0.0,0.0,0.1
1446036643768667658,135,1446036643765655040,robocape,4.78101006223,5.18399706461,22.8151234556,0.0,10.0,0.0,0.0,0.0,10.0,0.0,0.0,0.0,10.0,-0.0388821519152,0.00798948327024,0.00692421883421,1.0,0.0,0.0,0.0,1.0,0.0,0.0,0.0,1.0,0.0431103515625,0.901724853516,9.97645385742,0.1,0.0,0.0,0.0,0.1,0.0,0.0,0.0,0.1
1446036643802297033,136,1446036643798944950,robocape,4.54002083666,5.18001435856,22.7742907195,0.0,10.0,0.0,0.0,0.0,10.0,0.0,0.0,0.0,10.0,-0.120641197381,0.00253000303558,0.00253000303558,1.0,0.0,0.0,0.0,1.0,0.0,0.0,0.0,1.0,-0.0263452148438,0.471818847656,10.0123791504,0.1,0.0,0.0,0.0,0.1,0.0,0.0,0.0,0.1
1446036643835180700,137,1446036643832176923,robocape,4.29570122294,5.17574556524,22.7244607792,0.0,10.0,0.0,0.0,0.0,10.0,0.0,0.0,0.0,10.0,-0.122239094035,0.00199737081756,-0.00239684498107,1.0,0.0,0.0,0.0,1.0,0.0,0.0,0.0,1.0,0.0167651367188,-0.150886230469,10.0004040527,0.1,0.0,0.0,0.0,0.1,0.0,0.0,0.0,0.1
1446036643868722033,138,1446036643865747928,robocape,4.13953687125,5.17264777653,22.694736803,0.0,10.0,0.0,0.0,0.0,10.0,0.0,0.0,0.0,10.0,-0.0770985135578,0.00359526747161,0.00865527354276,1.0,0.0,0.0,0.0,1.0,0.0,0.0,0.0,1.0,0.00598754882813,-0.486188964844,10.0027990723,0.1,0.0,0.0,0.0,0.1,0.0,0.0,0.0,0.1
1446036643901926033,139,1446036643898791074,robocape,4.14764404756,5.18083591421,22.6366853779,0.0,10.0,0.0,0.0,0.0,10.0,0.0,0.0,0.0,10.0,0.0102531701968,0.00838895743375,-0.0066579027252,1.0,0.0,0.0,0.0,1.0,0.0,0.0,0.0,1.0,0.0886157226563,-0.552052001953,10.0411193848,0.1,0.0,0.0,0.0,0.1,0.0,0.0,0.0,0.1
1446036643935316741,140,1446036643932172060,robocape,4.23932983864,5.19215853225,22.6164380711,0.0,10.0,0.0,0.0,0.0,10.0,0.0,0.0,0.0,10.0,0.0524642734746,0.0117179087963,0.0138484376684,1.0,0.0,0.0,0.0,1.0,0.0,0.0,0.0,1.0,0.0646655273438,-0.131726074219,10.0327368164,0.1,0.0,0.0,0.0,0.1,0.0,0.0,0.0,0.1
1446036643968359241,141,1446036643965387105,robocape,4.46368945654,5.21506253754,22.5124750819,0.0,10.0,0.0,0.0,0.0,10.0,0.0,0.0,0.0,10.0,0.125967519561,0.0141147537774,-0.0315584589174,1.0,0.0,0.0,0.0,1.0,0.0,0.0,0.0,1.0,-0.0562829589844,-0.21076171875,10.0207617188,0.1,0.0,0.0,0.0,0.1,0.0,0.0,0.0,0.1
1446036644001830366,142,1446036643998878002,robocape,4.59014206433,5.23598880825,22.369068955,0.0,10.0,0.0,0.0,0.0,10.0,0.0,0.0,0.0,10.0,0.0765658813398,0.0110521185238,-0.0532632218016,1.0,0.0,0.0,0.0,1.0,0.0,0.0,0.0,1.0,0.0371228027344,0.887354736328,10.0471069336,0.1,0.0,0.0,0.0,0.1,0.0,0.0,0.0,0.1
1446036644036023908,143,1446036644032872915,robocape,4.38304936489,5.22867849108,22.3196017458,0.0,10.0,0.0,0.0,0.0,10.0,0.0,0.0,0.0,10.0,-0.102664860023,0.000399474163512,-0.00266316109008,1.0,0.0,0.0,0.0,1.0,0.0,0.0,0.0,1.0,-0.140108642578,0.904119873047,10.0147741699,0.1,0.0,0.0,0.0,0.1,0.0,0.0,0.0,0.1
1446036644068418991,144,1446036644065448045,robocape,4.1076577916,5.2213089415,22.2467885572,0.0,10.0,0.0,0.0,0.0,10.0,0.0,0.0,0.0,10.0,-0.137685428357,-0.00066579027252,-0.015579492377,1.0,0.0,0.0,0.0,1.0,0.0,0.0,0.0,1.0,-0.0311352539063,0.197589111328,10.0016015625,0.1,0.0,0.0,0.0,0.1,0.0,0.0,0.0,0.1
1446036644103737033,145,1446036644100471019,robocape,3.86386885536,5.21407784509,22.2138790985,0.0,10.0,0.0,0.0,0.0,10.0,0.0,0.0,0.0,10.0,-0.123171200416,0.00119842249054,0.00599211245268,1.0,0.0,0.0,0.0,1.0,0.0,0.0,0.0,1.0,0.00119750976563,-0.444276123047,10.0171691895,0.1,0.0,0.0,0.0,0.1,0.0,0.0,0.0,0.1
1446036644135655825,146,1446036644132196903,robocape,3.77434731081,5.21927423869,22.1820005926,0.0,10.0,0.0,0.0,0.0,10.0,0.0,0.0,0.0,10.0,-0.0424774193868,0.00785632521573,0.00652474467069,1.0,0.0,0.0,0.0,1.0,0.0,0.0,0.0,1.0,0.0922082519531,-0.668210449219,10.055489502,0.1,0.0,0.0,0.0,0.1,0.0,0.0,0.0,0.1
1446036644168821158,147,1446036644165397882,robocape,3.86930255242,5.23364859844,22.163688765,0.0,10.0,0.0,0.0,0.0,10.0,0.0,0.0,0.0,10.0,0.0536626959651,0.0133158054504,0.0139815957229,1.0,0.0,0.0,0.0,1.0,0.0,0.0,0.0,1.0,0.0694555664063,-0.432301025391,10.0303417969,0.1,0.0,0.0,0.0,0.1,0.0,0.0,0.0,0.1
1446036644205482950,148,1446036644202389001,robocape,4.04442728924,5.25267761181,22.136240538,0.0,10.0,0.0,0.0,0.0,10.0,0.0,0.0,0.0,10.0,0.0962732734064,0.0154463343225,0.00905474770627,1.0,0.0,0.0,0.0,1.0,0.0,0.0,0.0,1.0,0.0526904296875,0.0395178222656,10.0004040527,0.1,0.0,0.0,0.0,0.1,0.0,0.0,0.0,0.1
1446036644235747408,149,1446036644232287883,robocape,4.19006630997,5.26888137335,22.1122789254,0.0,10.0,0.0,0.0,0.0,10.0,0.0,0.0,0.0,10.0,0.0808269390839,0.0141147537774,0.0109189604693,1.0,0.0,0.0,0.0,1.0,0.0,0.0,0.0,1.0,0.0347277832031,0.3065625,10.0459094238,0.1,0.0,0.0,0.0,0.1,0.0,0.0,0.0,0.1
1446036644268779283,150,1446036644265456914,robocape,4.26242141152,5.28075555239,22.0830561377,0.0,10.0,0.0,0.0,0.0,10.0,0.0,0.0,0.0,10.0,0.0427437354958,0.0115847507418,0.00798948327024,1.0,0.0,0.0,0.0,1.0,0.0,0.0,0.0,1.0,-0.0946032714844,0.502954101562,9.98363891602,0.1,0.0,0.0,0.0,0.1,0.0,0.0,0.0,0.1
1446036644301888491,151,1446036644298724889,robocape,4.21761114836,5.28323126097,22.0524482335,0.0,10.0,0.0,0.0,0.0,10.0,0.0,0.0,0.0,10.0,-0.0186421276306,0.00652474467069,0.00719053494321,1.0,0.0,0.0,0.0,1.0,0.0,0.0,0.0,1.0,0.00718505859375,0.554447021484,10.0147741699,0.1,0.0,0.0,0.0,0.1,0.0,0.0,0.0,0.1
1446036644335440991,152,1446036644332222938,robocape,4.00880562416,5.26973122327,22.1296680561,0.0,10.0,0.0,0.0,0.0,10.0,0.0,0.0,0.0,10.0,-0.109722236911,0.00266316109008,0.0655137628159,1.0,0.0,0.0,0.0,1.0,0.0,0.0,0.0,1.0,0.0047900390625,0.229921875,10.080637207,0.1,0.0,0.0,0.0,0.1,0.0,0.0,0.0,0.1
1446036644368658241,153,1446036644365432977,robocape,3.8625388451,5.26177367742,22.2651691027,0.0,10.0,0.0,0.0,0.0,10.0,0.0,0.0,0.0,10.0,-0.0797616746479,0.00785632521573,0.0972053797879,1.0,0.0,0.0,0.0,1.0,0.0,0.0,0.0,1.0,0.00239501953125,-0.704135742188,10.0411193848,0.1,0.0,0.0,0.0,0.1,0.0,0.0,0.0,0.1
1446036644401878200,154,1446036644398859977,robocape,3.866335386,5.25870377895,22.4520749618,0.0,10.0,0.0,0.0,0.0,10.0,0.0,0.0,0.0,10.0,-0.0034621094171,0.0125168571234,0.125568045397,1.0,0.0,0.0,0.0,1.0,0.0,0.0,0.0,1.0,0.0490979003906,-0.603544921875,10.003996582,0.1,0.0,0.0,0.0,0.1,0.0,0.0,0.0,0.1
1446036644435466408,155,1446036644432329893,robocape,4.03465909742,5.25401434725,22.7066428131,0.0,10.0,0.0,0.0,0.0,10.0,0.0,0.0,0.0,10.0,0.0798948327024,0.0147805440499,0.163118616767,1.0,0.0,0.0,0.0,1.0,0.0,0.0,0.0,1.0,0.0946032714844,-1.00231567383,9.95609619141,0.1,0.0,0.0,0.0,0.1,0.0,0.0,0.0,0.1
1446036644468633700,156,1446036644465477943,robocape,4.49864064262,5.27946597318,22.7641045576,0.0,10.0,0.0,0.0,0.0,10.0,0.0,0.0,0.0,10.0,0.244345030015,0.0229031853747,0.0565921731642,1.0,0.0,0.0,0.0,1.0,0.0,0.0,0.0,1.0,0.0898132324219,0.198786621094,10.0411193848,0.1,0.0,0.0,0.0,0.1,0.0,0.0,0.0,0.1
1446036644503231783,157,1446036644500176906,robocape,4.85632587806,5.28635013986,22.8423231348,0.0,10.0,0.0,0.0,0.0,10.0,0.0,0.0,0.0,10.0,0.188152331014,0.0145142279409,0.068443240015,1.0,0.0,0.0,0.0,1.0,0.0,0.0,0.0,1.0,-0.147293701172,0.403560791016,10.0099841309,0.1,0.0,0.0,0.0,0.1,0.0,0.0,0.0,0.1
1446036644536361325,158,1446036644532464027,robocape,5.14388701825,5.29901522577,22.8007298929,0.0,10.0,0.0,0.0,0.0,10.0,0.0,0.0,0.0,10.0,0.157126504315,0.0117179087963,0.0033289513626,1.0,0.0,0.0,0.0,1.0,0.0,0.0,0.0,1.0,0.0490979003906,0.779578857422,10.0674645996,0.1,0.0,0.0,0.0,0.1,0.0,0.0,0.0,0.1
1446036644570107992,159,1446036644566848993,robocape,5.20228222778,5.30764593814,22.7601272998,0.0,10.0,0.0,0.0,0.0,10.0,0.0,0.0,0.0,10.0,0.0370179391521,0.00945422186978,0.0031957933081,1.0,0.0,0.0,0.0,1.0,0.0,0.0,0.0,1.0,0.0,0.93884765625,10.0471069336,0.1,0.0,0.0,0.0,0.1,0.0,0.0,0.0,0.1
1446036644604118283,160,1446036644601104974,robocape,5.12786636113,5.31945158039,22.667654428,0.0,10.0,0.0,0.0,0.0,10.0,0.0,0.0,0.0,10.0,-0.0303600364269,0.00825579937925,-0.0255663464648,1.0,0.0,0.0,0.0,1.0,0.0,0.0,0.0,1.0,-0.0814306640625,0.916094970703,10.0315393066,0.1,0.0,0.0,0.0,0.1,0.0,0.0,0.0,0.1
1446036644637141283,161,1446036644634162902,robocape,4.78383373285,5.31884791206,22.6425510061,0.0,10.0,0.0,0.0,0.0,10.0,0.0,0.0,0.0,10.0,-0.175102841673,0.00506000607115,0.0102531701968,1.0,0.0,0.0,0.0,1.0,0.0,0.0,0.0,1.0,-0.0167651367188,0.793948974609,10.055489502,0.1,0.0,0.0,0.0,0.1,0.0,0.0,0.0,0.1
1446036644674733575,162,1446036644671643018,robocape,4.40048245701,5.30824362639,22.5598569311,0.0,10.0,0.0,0.0,0.0,10.0,0.0,0.0,0.0,10.0,-0.193478653194,-0.00292947719909,-0.0206394984481,1.0,0.0,0.0,0.0,1.0,0.0,0.0,0.0,1.0,-0.0562829589844,-0.0898132324219,9.97166381836,0.1,0.0,0.0,0.0,0.1,0.0,0.0,0.0,0.1
1446036644702964117,163,1446036644699626922,robocape,4.15648343778,5.30503201513,22.4558601305,0.0,10.0,0.0,0.0,0.0,10.0,0.0,0.0,0.0,10.0,-0.119709090999,0.000266316109008,-0.0320910911355,1.0,0.0,0.0,0.0,1.0,0.0,0.0,0.0,1.0,0.0443078613281,-0.9196875,10.0303417969,0.1,0.0,0.0,0.0,0.1,0.0,0.0,0.0,0.1
1446036644736432283,164,1446036644733169078,robocape,4.28742832344,5.34918348373,22.0747879182,0.0,10.0,0.0,0.0,0.0,10.0,0.0,0.0,0.0,10.0,0.0896153706812,0.0131826473959,-0.182692850779,1.0,0.0,0.0,0.0,1.0,0.0,0.0,0.0,1.0,0.107775878906,-0.137713623047,10.0315393066,0.1,0.0,0.0,0.0,0.1,0.0,0.0,0.0,0.1
1446036644774524533,165,1446036644770282030,robocape,4.26953059699,5.37006595444,21.7770664853,0.0,10.0,0.0,0.0,0.0,10.0,0.0,0.0,0.0,10.0,0.00785632521573,0.00439421579863,-0.137685428357,1.0,0.0,0.0,0.0,1.0,0.0,0.0,0.0,1.0,-0.0514929199219,0.752036132813,9.96807128906,0.1,0.0,0.0,0.0,0.1,0.0,0.0,0.0,0.1
1446036644806140742,166,1446036644801727056,robocape,4.00442857922,5.36666678218,21.5671326546,0.0,10.0,0.0,0.0,0.0,10.0,0.0,0.0,0.0,10.0,-0.125967519561,-0.00439421579863,-0.0905474770627,1.0,0.0,0.0,0.0,1.0,0.0,0.0,0.0,1.0,0.0119750976563,0.97716796875,10.0411193848,0.1,0.0,0.0,0.0,0.1,0.0,0.0,0.0,0.1
1446036644840497367,167,1446036644836530923,robocape,3.49269605578,5.33743889318,21.5195987323,0.0,10.0,0.0,0.0,0.0,10.0,0.0,0.0,0.0,10.0,-0.263253473754,-0.0110521185238,-0.00306263525359,1.0,0.0,0.0,0.0,1.0,0.0,0.0,0.0,1.0,-0.00239501953125,-0.0610729980469,10.0159716797,0.1,0.0,0.0,0.0,0.1,0.0,0.0,0.0,0.1
1446036644871427283,168,1446036644868422985,robocape,3.11439961947,5.32138236357,21.4445737998,0.0,10.0,0.0,0.0,0.0,10.0,0.0,0.0,0.0,10.0,-0.192413388758,-0.00492684801665,-0.017976337358,1.0,0.0,0.0,0.0,1.0,0.0,0.0,0.0,1.0,-0.0946032714844,-0.940045166016,10.0303417969,0.1,0.0,0.0,0.0,0.1,0.0,0.0,0.0,0.1
1446036644904977992,169,1446036644900465965,robocape,2.92045203412,5.31690300726,21.3604287165,0.0,10.0,0.0,0.0,0.0,10.0,0.0,0.0,0.0,10.0,-0.0956074831338,0.00106526443603,-0.0229031853747,1.0,0.0,0.0,0.0,1.0,0.0,0.0,0.0,1.0,0.0706530761719,-0.790356445313,10.0135766602,0.1,0.0,0.0,0.0,0.1,0.0,0.0,0.0,0.1
1446036644939958325,170,1446036644935663938,robocape,2.88999212901,5.32735030891,21.3325914648,0.0,10.0,0.0,0.0,0.0,10.0,0.0,0.0,0.0,10.0,-0.0126500151779,0.0107858024148,0.00732369299772,1.0,0.0,0.0,0.0,1.0,0.0,0.0,0.0,1.0,0.377215576172,-0.822689208984,9.98603393555,0.1,0.0,0.0,0.0,0.1,0.0,0.0,0.0,0.1
1446036644973809033,171,1446036644970292091,robocape,3.06735508897,5.34529509998,21.3043032751,0.0,10.0,0.0,0.0,0.0,10.0,0.0,0.0,0.0,10.0,0.0964064314609,0.0147805440499,0.00719053494321,1.0,0.0,0.0,0.0,1.0,0.0,0.0,0.0,1.0,0.0347277832031,-0.690963134766,9.99681152344,0.1,0.0,0.0,0.0,0.1,0.0,0.0,0.0,0.1
1446036645006093158,172,1446036645002919912,robocape,3.3470229683,5.37106744475,21.2751584175,0.0,10.0,0.0,0.0,0.0,10.0,0.0,0.0,0.0,10.0,0.150335443535,0.0189084437396,0.0066579027252,1.0,0.0,0.0,0.0,1.0,0.0,0.0,0.0,1.0,0.0167651367188,-0.265847167969,10.0495019531,0.1,0.0,0.0,0.0,0.1,0.0,0.0,0.0,0.1
1446036645039553825,173,1446036645036178112,robocape,3.58998261682,5.39447833784,21.2505324169,0.0,10.0,0.0,0.0,0.0,10.0,0.0,0.0,0.0,10.0,0.131160683686,0.0178431793035,0.00905474770627,1.0,0.0,0.0,0.0,1.0,0.0,0.0,0.0,1.0,0.0263452148438,0.367635498047,10.0231567383,0.1,0.0,0.0,0.0,0.1,0.0,0.0,0.0,0.1
1446036645077566742,174,1446036645069837093,robocape,3.68975382233,5.40724289074,21.2442110723,0.0,10.0,0.0,0.0,0.0,10.0,0.0,0.0,0.0,10.0,0.0553937506736,0.0129163312869,0.0189084437396,1.0,0.0,0.0,0.0,1.0,0.0,0.0,0.0,1.0,-0.00359252929688,0.390388183594,10.0135766602,0.1,0.0,0.0,0.0,0.1,0.0,0.0,0.0,0.1
1446036645106452242,175,1446036645103060007,robocape,3.71240342307,5.41111433871,21.2145256084,0.0,10.0,0.0,0.0,0.0,10.0,0.0,0.0,0.0,10.0,0.016112124595,0.00732369299772,0.00639158661619,1.0,0.0,0.0,0.0,1.0,0.0,0.0,0.0,1.0,-0.126936035156,0.591569824219,10.0183666992,0.1,0.0,0.0,0.0,0.1,0.0,0.0,0.0,0.1
1446036645140235867,176,1446036645137120962,robocape,3.64130900972,5.41387308044,21.1358762701,0.0,10.0,0.0,0.0,0.0,10.0,0.0,0.0,0.0,10.0,-0.0307595105904,0.00479368996214,-0.0202400242846,1.0,0.0,0.0,0.0,1.0,0.0,0.0,0.0,1.0,-0.00718505859375,0.168848876953,10.0087866211,0.1,0.0,0.0,0.0,0.1,0.0,0.0,0.0,0.1
1446036645172187242,177,1446036645169054031,robocape,3.53475794366,5.41721133998,21.0030384746,0.0,10.0,0.0,0.0,0.0,10.0,0.0,0.0,0.0,10.0,-0.0468716351854,0.00306263525359,-0.04966795433,1.0,0.0,0.0,0.0,1.0,0.0,0.0,0.0,1.0,-0.0910107421875,0.372425537109,10.039921875,0.1,0.0,0.0,0.0,0.1,0.0,0.0,0.0,0.1
1446036645205472700,178,1446036645202088117,robocape,3.29102441312,5.42607984395,20.9420461047,0.0,10.0,0.0,0.0,0.0,10.0,0.0,0.0,0.0,10.0,-0.122372252089,0.00865527354276,-0.0115847507418,1.0,0.0,0.0,0.0,1.0,0.0,0.0,0.0,1.0,0.00359252929688,-0.0443078613281,10.2686462402,0.1,0.0,0.0,0.0,0.1,0.0,0.0,0.0,0.1
1446036645239284075,179,1446036645235995054,robocape,2.98737518023,5.40503230717,20.9812372172,0.0,10.0,0.0,0.0,0.0,10.0,0.0,0.0,0.0,10.0,-0.158857559023,-0.00359526747161,0.0430100516048,1.0,0.0,0.0,0.0,1.0,0.0,0.0,0.0,1.0,-0.188009033203,0.208366699219,9.98723144531,0.1,0.0,0.0,0.0,0.1,0.0,0.0,0.0,0.1
1446036645271926575,180,1446036645268835067,robocape,2.56163635947,5.38191151026,21.0469949644,0.0,10.0,0.0,0.0,0.0,10.0,0.0,0.0,0.0,10.0,-0.224504479894,-0.00412789968962,0.0572579634367,1.0,0.0,0.0,0.0,1.0,0.0,0.0,0.0,1.0,0.283809814453,0.207169189453,9.97765136719,0.1,0.0,0.0,0.0,0.1,0.0,0.0,0.0,0.1
1446036645305047575,181,1446036645302061080,robocape,2.11328069969,5.37459768403,21.0068856968,0.0,10.0,0.0,0.0,0.0,10.0,0.0,0.0,0.0,10.0,-0.231695014837,0.00106526443603,0.0,1.0,0.0,0.0,0.0,1.0,0.0,0.0,0.0,1.0,0.372425537109,-0.36404296875,9.92376342773,0.1,0.0,0.0,0.0,0.1,0.0,0.0,0.0,0.1
1446036645338865992,182,1446036645335665941,robocape,1.79790638841,5.37608048422,21.0043681505,0.0,10.0,0.0,0.0,0.0,10.0,0.0,0.0,0.0,10.0,-0.164183881203,0.0066579027252,0.0203731823391,1.0,0.0,0.0,0.0,1.0,0.0,0.0,0.0,1.0,-0.423918457031,-0.993933105469,10.2674487305,0.1,0.0,0.0,0.0,0.1,0.0,0.0,0.0,0.1
1446036645372053284,183,1446036645368803977,robocape,1.65093833296,5.34355110256,20.9580836519,0.0,10.0,0.0,0.0,0.0,10.0,0.0,0.0,0.0,10.0,-0.0740358783042,-0.0121173829599,-0.00266316109008,1.0,0.0,0.0,0.0,1.0,0.0,0.0,0.0,1.0,-1.1879296875,-1.18673217773,10.2027832031,0.1,0.0,0.0,0.0,0.1,0.0,0.0,0.0,0.1
1446036645405432075,184,1446036645402393102,robocape,1.93445774493,5.37854647134,20.9479703287,0.0,10.0,0.0,0.0,0.0,10.0,0.0,0.0,0.0,10.0,0.149935969371,0.0241016078652,0.0162452826495,1.0,0.0,0.0,0.0,1.0,0.0,0.0,0.0,1.0,-0.688568115234,-2.42016723633,10.6099365234,0.1,0.0,0.0,0.0,0.1,0.0,0.0,0.0,0.1
1446036645438711700,185,1446036645435518980,robocape,2.56680832733,5.43053795943,21.5239383276,0.0,10.0,0.0,0.0,0.0,10.0,0.0,0.0,0.0,10.0,0.305065102869,0.0480700576759,0.332761978205,1.0,0.0,0.0,0.0,1.0,0.0,0.0,0.0,1.0,-5.80432983398,1.38791381836,11.8266064453,0.1,0.0,0.0,0.0,0.1,0.0,0.0,0.0,0.1
1446036645471678575,186,1446036645468435049,robocape,3.37822722529,5.05783911212,21.491930617,0.0,10.0,0.0,0.0,0.0,10.0,0.0,0.0,0.0,10.0,0.428768935503,-0.190149701832,0.015313176268,1.0,0.0,0.0,0.0,1.0,0.0,0.0,0.0,1.0,1.41306152344,-1.53161499023,5.20677246094,0.1,0.0,0.0,0.0,0.1,0.0,0.0,0.0,0.1
1446036645503784325,187,1446036645500847101,robocape,4.03170300244,5.30516234469,21.2848531826,0.0,10.0,0.0,0.0,0.0,10.0,0.0,0.0,0.0,10.0,0.354999373308,0.128098048433,-0.0950748509158,1.0,0.0,0.0,0.0,1.0,0.0,0.0,0.0,1.0,-8.97174316406,1.65495849609,13.6671789551,0.1,0.0,0.0,0.0,0.1,0.0,0.0,0.0,0.1
1446036645537013742,188,1446036645533898115,robocape,3.86060867203,5.23795895452,21.1341738168,0.0,10.0,0.0,0.0,0.0,10.0,0.0,0.0,0.0,10.0,-0.0797616746479,-0.035153726389,-0.0569916473277,1.0,0.0,0.0,0.0,1.0,0.0,0.0,0.0,1.0,-6.68569702148,1.56873779297,9.89502319336,0.1,0.0,0.0,0.0,0.1,0.0,0.0,0.0,0.1
1446036645569887034,189,1446036645566673994,robocape,3.43602356196,5.21604965691,20.9444167579,0.0,10.0,0.0,0.0,0.0,10.0,0.0,0.0,0.0,10.0,-0.211188674443,-0.0127831732324,-0.0804274649204,1.0,0.0,0.0,0.0,1.0,0.0,0.0,0.0,1.0,-12.0457507324,-1.03225341797,11.2901220703,0.1,0.0,0.0,0.0,0.1,0.0,0.0,0.0,0.1
1446036645602803825,190,1446036645599772930,robocape,2.88427388025,5.17767716831,20.6587717871,0.0,10.0,0.0,0.0,0.0,10.0,0.0,0.0,0.0,10.0,-0.273906118115,-0.0239684498107,-0.132225948122,1.0,0.0,0.0,0.0,1.0,0.0,0.0,0.0,1.0,-6.5527734375,0.529299316406,11.5224389648,0.1,0.0,0.0,0.0,0.1,0.0,0.0,0.0,0.1
1446036645636119659,191,1446036645633076906,robocape,2.26714387061,4.98260623692,20.4024844724,0.0,10.0,0.0,0.0,0.0,10.0,0.0,0.0,0.0,10.0,-0.310258266994,-0.103996440568,-0.113850136601,1.0,0.0,0.0,0.0,1.0,0.0,0.0,0.0,1.0,-8.60889770508,0.354462890625,10.0495019531,0.1,0.0,0.0,0.0,0.1,0.0,0.0,0.0,0.1
1446036645669392325,192,1446036645666239023,robocape,1.60473274992,4.8310706857,19.9823818004,0.0,10.0,0.0,0.0,0.0,10.0,0.0,0.0,0.0,10.0,-0.32756881408,-0.083490100174,-0.2039981395,1.0,0.0,0.0,0.0,1.0,0.0,0.0,0.0,1.0,-8.73822875977,0.725690917969,10.0423168945,0.1,0.0,0.0,0.0,0.1,0.0,0.0,0.0,0.1
1446036645702482450,193,1446036645699472904,robocape,0.740956304418,4.68840454927,19.6391647196,0.0,10.0,0.0,0.0,0.0,10.0,0.0,0.0,0.0,10.0,-0.437424209046,-0.0749679846857,-0.164050723149,1.0,0.0,0.0,0.0,1.0,0.0,0.0,0.0,1.0,-5.11216918945,0.820294189453,12.6840234375,0.1,0.0,0.0,0.0,0.1,0.0,0.0,0.0,0.1
1446036645735824325,194,1446036645732805967,robocape,-0.212816751839,4.56518649125,19.0953052563,0.0,10.0,0.0,0.0,0.0,10.0,0.0,0.0,0.0,10.0,-0.476972151233,-0.0632500758894,-0.272974011733,1.0,0.0,0.0,0.0,1.0,0.0,0.0,0.0,1.0,-8.6220703125,-0.0299377441406,8.74780883789,0.1,0.0,0.0,0.0,0.1,0.0,0.0,0.0,0.1
1446036645769001575,195,1446036645765878915,robocape,-1.3092466354,4.2312910089,18.6828254129,0.0,10.0,0.0,0.0,0.0,10.0,0.0,0.0,0.0,10.0,-0.558864354753,-0.169243887275,-0.2054628781,1.0,0.0,0.0,0.0,1.0,0.0,0.0,0.0,1.0,-7.33594482422,1.66214355469,10.4578527832,0.1,0.0,0.0,0.0,0.1,0.0,0.0,0.0,0.1
1446036645802186950,196,1446036645799180030,robocape,-3.03679964962,4.56133860658,18.4524663442,0.0,10.0,0.0,0.0,0.0,10.0,0.0,0.0,0.0,10.0,-0.899083184011,0.181627586343,-0.0949416928613,1.0,0.0,0.0,0.0,1.0,0.0,0.0,0.0,1.0,-5.68098632812,1.46575195313,12.9965734863,0.1,0.0,0.0,0.0,0.1,0.0,0.0,0.0,0.1
1446036645835469617,197,1446036645832454919,robocape,-5.27234923474,5.05360071796,18.2579708796,0.0,10.0,0.0,0.0,0.0,10.0,0.0,0.0,0.0,10.0,-1.16979350882,0.270310850643,-0.0588558600908,1.0,0.0,0.0,0.0,1.0,0.0,0.0,0.0,1.0,-6.76473266602,0.0910107421875,11.5775244141,0.1,0.0,0.0,0.0,0.1,0.0,0.0,0.0,0.1
1446036645868867075,198,1446036645865833044,robocape,-8.01312287092,5.330274248,17.9555831536,0.0,10.0,0.0,0.0,0.0,10.0,0.0,0.0,0.0,10.0,-1.43424540506,0.168977571166,-0.112252239947,1.0,0.0,0.0,0.0,1.0,0.0,0.0,0.0,1.0,-4.36252807617,2.65248413086,8.03529052734,0.1,0.0,0.0,0.0,0.1,0.0,0.0,0.0,0.1
1446036645901990200,199,1446036645898912906,robocape,-11.4507590819,5.67152235601,18.0247343573,0.0,10.0,0.0,0.0,0.0,10.0,0.0,0.0,0.0,10.0,-1.83332009441,0.180562321907,0.110121711075,1.0,0.0,0.0,0.0,1.0,0.0,0.0,0.0,1.0,-10.0099841309,0.0898132324219,12.2373522949,0.1,0.0,0.0,0.0,0.1,0.0,0.0,0.0,0.1
1446036645935772367,200,1446036645932759046,robocape,-15.0181919279,5.839064084,17.1381380744,0.0,10.0,0.0,0.0,0.0,10.0,0.0,0.0,0.0,10.0,-1.85742170228,0.200669188137,-0.389620467479,1.0,0.0,0.0,0.0,1.0,0.0,0.0,0.0,1.0,-1.03584594727,-1.29570556641,8.73942626953,0.1,0.0,0.0,0.0,0.1,0.0,0.0,0.0,0.1
1446036645968655117,201,1446036645965729951,robocape,-17.4074273221,6.00678153438,15.1045501741,0.0,10.0,0.0,0.0,0.0,10.0,0.0,0.0,0.0,10.0,-1.16393455442,0.385492567789,-0.972586430097,1.0,0.0,0.0,0.0,1.0,0.0,0.0,0.0,1.0,-2.65487915039,-2.83809814453,13.351036377,0.1,0.0,0.0,0.0,0.1,0.0,0.0,0.0,0.1
1446036646002243867,202,1446036645999296903,robocape,-18.4095531387,6.14132272924,12.5320001962,0.0,10.0,0.0,0.0,0.0,10.0,0.0,0.0,0.0,10.0,-0.387090464443,0.480167944541,-1.24955518347,1.0,0.0,0.0,0.0,1.0,0.0,0.0,0.0,1.0,-2.52075805664,-2.66805175781,10.8111181641,0.1,0.0,0.0,0.0,0.1,0.0,0.0,0.0,0.1
1446036646036348492,203,1446036646033332109,robocape,-17.9337908498,6.12512880522,9.60757728672,0.0,10.0,0.0,0.0,0.0,10.0,0.0,0.0,0.0,10.0,0.428502619394,0.462591081347,-1.45874648709,1.0,0.0,0.0,0.0,1.0,0.0,0.0,0.0,1.0,-5.71451660156,-2.26928100586,11.7320031738,0.1,0.0,0.0,0.0,0.1,0.0,0.0,0.0,0.1
1446036646068821326,204,1446036646065840959,robocape,-16.1783335367,6.32721514435,6.53439174436,0.0,10.0,0.0,0.0,0.0,10.0,0.0,0.0,0.0,10.0,1.11879397394,0.561926990007,-1.51054497029,1.0,0.0,0.0,0.0,1.0,0.0,0.0,0.0,1.0,-6.61983398438,-1.79506713867,11.250604248,0.1,0.0,0.0,0.0,0.1,0.0,0.0,0.0,0.1
1446036646103172367,205,1446036646100069999,robocape,-13.9433472615,6.43561699134,4.03816145882,0.0,10.0,0.0,0.0,0.0,10.0,0.0,0.0,0.0,10.0,1.33331159975,0.384826777516,-1.24635939016,1.0,0.0,0.0,0.0,1.0,0.0,0.0,0.0,1.0,-5.85342773438,-0.928070068359,9.56570800781,0.1,0.0,0.0,0.0,0.1,0.0,0.0,0.0,0.1
1446036646136901201,206,1446036646133953094,robocape,-10.7995827118,6.63758881517,1.78272950629,0.0,10.0,0.0,0.0,0.0,10.0,0.0,0.0,0.0,10.0,1.79497057471,0.346344099765,-1.12744924749,1.0,0.0,0.0,0.0,1.0,0.0,0.0,0.0,1.0,-5.34807861328,-1.32324829102,13.601315918,0.1,0.0,0.0,0.0,0.1,0.0,0.0,0.0,0.1
1446036646168642909,207,1446036646165657997,robocape,-7.37306985464,7.39488926448,-0.310002271883,0.0,10.0,0.0,0.0,0.0,10.0,0.0,0.0,0.0,10.0,1.93358810945,0.55846488059,-1.01226753034,1.0,0.0,0.0,0.0,1.0,0.0,0.0,0.0,1.0,1.14002929688,-0.131726074219,7.72872802734,0.1,0.0,0.0,0.0,0.1,0.0,0.0,0.0,0.1
1446036646203788951,208,1446036646200799942,robocape,-3.20346694864,7.69437053829,-2.10062720985,0.0,10.0,0.0,0.0,0.0,10.0,0.0,0.0,0.0,10.0,2.30856119094,0.239018707835,-0.911200566971,1.0,0.0,0.0,0.0,1.0,0.0,0.0,0.0,1.0,0.643062744141,0.603544921875,11.9750976562,0.1,0.0,0.0,0.0,0.1,0.0,0.0,0.0,0.1
1446036646235328701,209,1446036646232316970,robocape,0.602113352441,7.68576366133,-2.97204150739,0.0,10.0,0.0,0.0,0.0,10.0,0.0,0.0,0.0,10.0,2.05476193905,0.00852211548825,-0.453403175586,1.0,0.0,0.0,0.0,1.0,0.0,0.0,0.0,1.0,-5.29299316406,4.05955810547,9.36572387695,0.1,0.0,0.0,0.0,0.1,0.0,0.0,0.0,0.1
1446036646268654534,210,1446036646265610933,robocape,2.80171088477,7.33603808645,-2.5534801537,0.0,10.0,0.0,0.0,0.0,10.0,0.0,0.0,0.0,10.0,1.12518556056,-0.171640732256,0.220909212422,1.0,0.0,0.0,0.0,1.0,0.0,0.0,0.0,1.0,-3.3374597168,6.16358276367,8.80648681641,0.1,0.0,0.0,0.0,0.1,0.0,0.0,0.0,0.1
1446036646301936326,211,1446036646298836946,robocape,2.52484065873,6.72872022819,-0.980311442624,0.0,10.0,0.0,0.0,0.0,10.0,0.0,0.0,0.0,10.0,-0.244877662233,-0.277101911423,0.831039418159,1.0,0.0,0.0,0.0,1.0,0.0,0.0,0.0,1.0,-0.293389892578,5.26904296875,9.74892700195,0.1,0.0,0.0,0.0,0.1,0.0,0.0,0.0,0.1
1446036646335284284,212,1446036646332287073,robocape,-0.0489292147453,6.5103039877,0.837093868233,0.0,10.0,0.0,0.0,0.0,10.0,0.0,0.0,0.0,10.0,-1.45768122265,-0.0917458995532,0.948085348068,1.0,0.0,0.0,0.0,1.0,0.0,0.0,0.0,1.0,-0.90052734375,4.55412963867,8.45322143555,0.1,0.0,0.0,0.0,0.1,0.0,0.0,0.0,0.1
1446036646368503076,213,1446036646365456104,robocape,-4.79264933319,6.61384987215,2.68434561125,0.0,10.0,0.0,0.0,0.0,10.0,0.0,0.0,0.0,10.0,-2.6001773303,0.0190416017941,0.965529053208,1.0,0.0,0.0,0.0,1.0,0.0,0.0,0.0,1.0,0.597557373047,4.22840698242,9.65671875,0.1,0.0,0.0,0.0,0.1,0.0,0.0,0.0,0.1
1446036646402077742,214,1446036646398940086,robocape,-11.5174074454,6.48509160433,4.12114622827,0.0,10.0,0.0,0.0,0.0,10.0,0.0,0.0,0.0,10.0,-3.63747857488,-0.159390191241,0.741290889424,1.0,0.0,0.0,0.0,1.0,0.0,0.0,0.0,1.0,-3.20573364258,2.13036987305,7.40420288086,0.1,0.0,0.0,0.0,0.1,0.0,0.0,0.0,0.1
1446036646435545326,215,1446036646432261943,robocape,-18.7925084304,6.44085464659,4.71606800409,0.0,10.0,0.0,0.0,0.0,10.0,0.0,0.0,0.0,10.0,-3.93375524616,-0.0776311457758,0.316783011665,1.0,0.0,0.0,0.0,1.0,0.0,0.0,0.0,1.0,-1.72561157227,0.471818847656,7.4760534668,0.1,0.0,0.0,0.0,0.1,0.0,0.0,0.0,0.1
1446036646468825659,216,1446036646465672969,robocape,-25.6665105409,6.4173449541,4.10330699375,0.0,10.0,0.0,0.0,0.0,10.0,0.0,0.0,0.0,10.0,-3.72935763249,0.145941227736,-0.267914005662,1.0,0.0,0.0,0.0,1.0,0.0,0.0,0.0,1.0,2.44531494141,-2.15791259766,10.4770129395,0.1,0.0,0.0,0.0,0.1,0.0,0.0,0.0,0.1
1446036646502274034,217,1446036646498960971,robocape,-31.1029907661,6.54099389307,1.96383216864,0.0,10.0,0.0,0.0,0.0,10.0,0.0,0.0,0.0,10.0,-2.93000983131,0.630370230022,-0.92478268853,1.0,0.0,0.0,0.0,1.0,0.0,0.0,0.0,1.0,1.66932861328,-5.59955566406,13.5773657227,0.1,0.0,0.0,0.0,0.1,0.0,0.0,0.0,0.1
1446036646535541076,218,1446036646532150983,robocape,-32.8714021267,6.36893200438,-2.16976457645,0.0,10.0,0.0,0.0,0.0,10.0,0.0,0.0,0.0,10.0,-0.784167782974,1.0879013053,-1.87206908827,1.0,0.0,0.0,0.0,1.0,0.0,0.0,0.0,1.0,-3.46200073242,-13.0193261719,11.8266064453,0.1,0.0,0.0,0.0,0.1,0.0,0.0,0.0,0.1
1446036646568944659,219,1446036646565815925,robocape,-31.9428426096,6.40623493854,-5.25974019915,0.0,10.0,0.0,0.0,0.0,10.0,0.0,0.0,0.0,10.0,0.656868682868,0.880973688598,-1.34822530185,1.0,0.0,0.0,0.0,1.0,0.0,0.0,0.0,1.0,-4.54574707031,-2.74588989258,14.3222167969,0.1,0.0,0.0,0.0,0.1,0.0,0.0,0.0,0.1
1446036646602449451,220,1446036646599001884,robocape,-30.9956971808,6.34990357276,-7.30160613551,0.0,10.0,0.0,0.0,0.0,10.0,0.0,0.0,0.0,10.0,0.598944929159,0.534096956615,-0.924383214367,1.0,0.0,0.0,0.0,1.0,0.0,0.0,0.0,1.0,-4.91458007813,1.10410400391,9.80401245117,0.1,0.0,0.0,0.0,0.1,0.0,0.0,0.0,0.1
1446036646635323784,221,1446036646632230997,robocape,-30.2361748161,5.69826257541,-8.57252151358,0.0,10.0,0.0,0.0,0.0,10.0,0.0,0.0,0.0,10.0,0.447411063133,0.0490021640575,-0.747948792149,1.0,0.0,0.0,0.0,1.0,0.0,0.0,0.0,1.0,-4.30504760742,-0.122145996094,10.2315234375,0.1,0.0,0.0,0.0,0.1,0.0,0.0,0.0,0.1
1446036646668569368,222,1446036646665446996,robocape,-29.7270141563,5.2434675646,-9.96944472552,0.0,10.0,0.0,0.0,0.0,10.0,0.0,0.0,0.0,10.0,0.302668257888,0.166980200348,-0.759267226782,1.0,0.0,0.0,0.0,1.0,0.0,0.0,0.0,1.0,4.70262084961,0.371228027344,9.50822753906,0.1,0.0,0.0,0.0,0.1,0.0,0.0,0.0,0.1
1446036646702360284,223,1446036646698957920,robocape,-29.2996022952,4.73933327821,-11.3695521989,0.0,10.0,0.0,0.0,0.0,10.0,0.0,0.0,0.0,10.0,0.248606087759,0.140881221665,-0.778974618848,1.0,0.0,0.0,0.0,1.0,0.0,0.0,0.0,1.0,8.07840087891,0.341290283203,10.1453027344,0.1,0.0,0.0,0.0,0.1,0.0,0.0,0.0,0.1
1446036646735292993,224,1446036646732223033,robocape,-29.0187714751,4.54655881301,-12.8806654691,0.0,10.0,0.0,0.0,0.0,10.0,0.0,0.0,0.0,10.0,0.162452826495,0.309991950885,-0.757269855964,1.0,0.0,0.0,0.0,1.0,0.0,0.0,0.0,1.0,2.43214233398,-0.392783203125,9.03760620117,0.1,0.0,0.0,0.0,0.1,0.0,0.0,0.0,0.1
1446036646768787326,225,1446036646765651941,robocape,-28.2886214435,4.68237979443,-15.0197169098,0.0,10.0,0.0,0.0,0.0,10.0,0.0,0.0,0.0,10.0,0.42810314523,0.6119944185,-0.966993791808,1.0,0.0,0.0,0.0,1.0,0.0,0.0,0.0,1.0,2.74229736328,-1.5328125,13.125904541,0.1,0.0,0.0,0.0,0.1,0.0,0.0,0.0,0.1
1446036646802359534,226,1446036646798880100,robocape,-26.9067121659,4.87804436434,-17.398414971,0.0,10.0,0.0,0.0,0.0,10.0,0.0,0.0,0.0,10.0,0.795752533716,0.677508181316,-1.07165602265,1.0,0.0,0.0,0.0,1.0,0.0,0.0,0.0,1.0,-0.0227526855469,-1.41904907227,10.2075732422,0.1,0.0,0.0,0.0,0.1,0.0,0.0,0.0,0.1
1446036646836459243,227,1446036646832535028,robocape,-24.7731565382,4.72806160955,-19.628598734,0.0,10.0,0.0,0.0,0.0,10.0,0.0,0.0,0.0,10.0,1.20041986135,0.442617373171,-1.09296131137,1.0,0.0,0.0,0.0,1.0,0.0,0.0,0.0,1.0,-2.98419433594,-1.56514526367,13.7653747559,0.1,0.0,0.0,0.0,0.1,0.0,0.0,0.0,0.1
1446036646869900201,228,1446036646866781949,robocape,-21.8441055822,4.57432367377,-21.8530194467,0.0,10.0,0.0,0.0,0.0,10.0,0.0,0.0,0.0,10.0,1.62386247468,0.387756254716,-1.10308132351,1.0,0.0,0.0,0.0,1.0,0.0,0.0,0.0,1.0,-4.01644775391,-0.292192382813,7.43893066406,0.1,0.0,0.0,0.0,0.1,0.0,0.0,0.0,0.1
1446036646903472409,229,1446036646900181055,robocape,-18.1580563482,4.46925452769,-24.0387732513,0.0,10.0,0.0,0.0,0.0,10.0,0.0,0.0,0.0,10.0,2.01934189655,0.33968619704,-1.09389341775,1.0,0.0,0.0,0.0,1.0,0.0,0.0,0.0,1.0,2.23096069336,-1.5675402832,13.6240686035,0.1,0.0,0.0,0.0,0.1,0.0,0.0,0.0,0.1
1446036646937583534,230,1446036646933792114,robocape,-13.1126023025,4.16477928387,-26.2975106758,0.0,10.0,0.0,0.0,0.0,10.0,0.0,0.0,0.0,10.0,2.73320222675,0.164183881203,-1.17898141458,1.0,0.0,0.0,0.0,1.0,0.0,0.0,0.0,1.0,3.49672851563,-0.652642822266,6.1348425293,0.1,0.0,0.0,0.0,0.1,0.0,0.0,0.0,0.1
1446036646970586743,231,1446036646967437982,robocape,-7.07487799243,4.88156498855,-28.7901259088,0.0,10.0,0.0,0.0,0.0,10.0,0.0,0.0,0.0,10.0,3.26130707091,0.607200728538,-1.24702518043,1.0,0.0,0.0,0.0,1.0,0.0,0.0,0.0,1.0,2.96503417969,-1.43102416992,10.5320983887,0.1,0.0,0.0,0.0,0.1,0.0,0.0,0.0,0.1
1446036647004309951,232,1446036647000757932,robocape,0.464791125438,4.67904792066,-30.8084799656,0.0,10.0,0.0,0.0,0.0,10.0,0.0,0.0,0.0,10.0,4.04547485388,-0.0328900394625,-1.11812818367,1.0,0.0,0.0,0.0,1.0,0.0,0.0,0.0,1.0,-1.71842651367,0.0838256835938,4.28588745117,0.1,0.0,0.0,0.0,0.1,0.0,0.0,0.0,0.1
1446036647040671909,233,1446036647036263942,robocape,8.58505663357,4.75149893206,-32.3193015292,0.0,10.0,0.0,0.0,0.0,10.0,0.0,0.0,0.0,10.0,4.36318997193,-0.00692421883421,-0.919722682459,1.0,0.0,0.0,0.0,1.0,0.0,0.0,0.0,1.0,-2.23694824219,0.141306152344,6.67851196289,0.1,0.0,0.0,0.0,0.1,0.0,0.0,0.0,0.1
1446036647070704826,234,1446036647067604064,robocape,16.641849946,5.18572134573,-33.007612645,0.0,10.0,0.0,0.0,0.0,10.0,0.0,0.0,0.0,10.0,4.36318997193,0.158724400969,-0.602673354685,1.0,0.0,0.0,0.0,1.0,0.0,0.0,0.0,1.0,-2.3794519043,1.87290527344,4.70621337891,0.1,0.0,0.0,0.0,0.1,0.0,0.0,0.0,0.1
1446036647103993201,235,1446036647100588083,robocape,24.5841869396,5.93867763093,-32.8638420229,0.0,10.0,0.0,0.0,0.0,10.0,0.0,0.0,0.0,10.0,4.36318997193,0.404001537365,-0.341550409803,1.0,0.0,0.0,0.0,1.0,0.0,0.0,0.0,1.0,1.14721435547,2.16509765625,8.31431030273,0.1,0.0,0.0,0.0,0.1,0.0,0.0,0.0,0.1
1446036647137108118,236,1446036647134143114,robocape,32.4183221475,6.07424522317,-31.7840680718,0.0,10.0,0.0,0.0,0.0,10.0,0.0,0.0,0.0,10.0,4.36318997193,0.324239862717,0.14900386299,1.0,0.0,0.0,0.0,1.0,0.0,0.0,0.0,1.0,2.25970092773,4.2188269043,1.63819335938,0.1,0.0,0.0,0.0,0.1,0.0,0.0,0.0,0.1
1446036647172943118,237,1446036647168698072,robocape,36.4601600796,6.85466647219,-27.2634564275,0.0,10.0,0.0,0.0,0.0,10.0,0.0,0.0,0.0,10.0,1.93918074774,1.66807094877,1.63864301873,1.0,0.0,0.0,0.0,1.0,0.0,0.0,0.0,1.0,8.29754516602,19.6194012451,19.6194012451,0.1,0.0,0.0,0.0,0.1,0.0,0.0,0.0,0.1
1446036647204893284,238,1446036647201468944,robocape,32.5177304998,7.93930527718,-22.5424686153,0.0,10.0,0.0,0.0,0.0,10.0,0.0,0.0,0.0,10.0,-2.69711639398,1.84730169013,1.94224338299,1.0,0.0,0.0,0.0,1.0,0.0,0.0,0.0,1.0,-5.99473388672,13.9713464355,11.8301989746,0.1,0.0,0.0,0.0,0.1,0.0,0.0,0.0,0.1
1446036647239914868,239,1446036647235934972,robocape,26.8211483448,8.25375459795,-20.0153121636,0.0,10.0,0.0,0.0,0.0,10.0,0.0,0.0,0.0,10.0,-3.41497146581,0.769254080869,1.25248466066,1.0,0.0,0.0,0.0,1.0,0.0,0.0,0.0,1.0,1.11607910156,2.31239135742,7.72633300781,0.1,0.0,0.0,0.0,0.1,0.0,0.0,0.0,0.1
1446036647272759951,240,1446036647269479036,robocape,21.2052808569,7.93785783554,-18.7286027945,0.0,10.0,0.0,0.0,0.0,10.0,0.0,0.0,0.0,10.0,-3.17874907712,0.0980043281149,0.805473071694,1.0,0.0,0.0,0.0,1.0,0.0,0.0,0.0,1.0,-0.856219482422,0.756826171875,6.31446899414,0.1,0.0,0.0,0.0,0.1,0.0,0.0,0.0,0.1
1446036647306480993,241,1446036647303042888,robocape,15.9773739649,7.76451024843,-17.9940191489,0.0,10.0,0.0,0.0,0.0,10.0,0.0,0.0,0.0,10.0,-2.86263185573,0.0173105470855,0.470181090453,1.0,0.0,0.0,0.0,1.0,0.0,0.0,0.0,1.0,6.15879272461,1.69088378906,8.72864868164,0.1,0.0,0.0,0.0,0.1,0.0,0.0,0.0,0.1
1446036647337776035,242,1446036647334716081,robocape,10.9395987916,7.59856474166,-17.2007447035,0.0,10.0,0.0,0.0,0.0,10.0,0.0,0.0,0.0,10.0,-2.73120485593,-0.00426105774413,0.475640570688,1.0,0.0,0.0,0.0,1.0,0.0,0.0,0.0,1.0,4.28468994141,1.80344970703,8.74780883789,0.1,0.0,0.0,0.0,0.1,0.0,0.0,0.0,0.1
1446036647372674410,243,1446036647368789911,robocape,6.55111394087,7.80960467827,-16.7580257758,0.0,10.0,0.0,0.0,0.0,10.0,0.0,0.0,0.0,10.0,-2.34011964985,0.136087531703,0.2335592276,1.0,0.0,0.0,0.0,1.0,0.0,0.0,0.0,1.0,4.21403686523,0.0299377441406,10.0495019531,0.1,0.0,0.0,0.0,0.1,0.0,0.0,0.0,0.1
1446036647406062243,244,1446036647401869058,robocape,2.85921390114,8.20561290195,-16.6764503455,0.0,10.0,0.0,0.0,0.0,10.0,0.0,0.0,0.0,10.0,-1.93997969607,0.209723935844,0.0263652947918,1.0,0.0,0.0,0.0,1.0,0.0,0.0,0.0,1.0,5.441484375,0.5748046875,10.3512744141,0.1,0.0,0.0,0.0,0.1,0.0,0.0,0.0,0.1
1446036647440124160,245,1446036647437118053,robocape,-0.19282536243,8.24314698462,-16.6769314455,0.0,10.0,0.0,0.0,0.0,10.0,0.0,0.0,0.0,10.0,-1.59789665405,0.0234358175927,-0.00892158965177,1.0,0.0,0.0,0.0,1.0,0.0,0.0,0.0,1.0,1.22385498047,0.299377441406,8.45441894531,0.1,0.0,0.0,0.0,0.1,0.0,0.0,0.0,0.1
1446036647468660326,246,1446036647465761899,robocape,-2.59682031003,7.82730933985,-16.8477028142,0.0,10.0,0.0,0.0,0.0,10.0,0.0,0.0,0.0,10.0,-1.24755781265,-0.208924987517,-0.108124340257,1.0,0.0,0.0,0.0,1.0,0.0,0.0,0.0,1.0,3.00215698242,0.0490979003906,10.2243383789,0.1,0.0,0.0,0.0,0.1,0.0,0.0,0.0,0.1
1446036647501921951,247,1446036647498895883,robocape,-3.75130167183,7.49069021206,-17.5224627621,0.0,10.0,0.0,0.0,0.0,10.0,0.0,0.0,0.0,10.0,-0.560861725571,-0.145674911627,-0.383495196971,1.0,0.0,0.0,0.0,1.0,0.0,0.0,0.0,1.0,7.15152832031,-1.78907958984,9.92017089844,0.1,0.0,0.0,0.0,0.1,0.0,0.0,0.0,0.1
1446036647539310910,248,1446036647536345958,robocape,-3.34013806844,7.98704264074,-18.9847451404,0.0,10.0,0.0,0.0,0.0,10.0,0.0,0.0,0.0,10.0,0.314253008629,0.324373020772,-0.780439357448,1.0,0.0,0.0,0.0,1.0,0.0,0.0,0.0,1.0,6.8174230957,-1.00590820312,10.5368884277,0.1,0.0,0.0,0.0,0.1,0.0,0.0,0.0,0.1
1446036647568664701,249,1446036647565516948,robocape,-1.69991926506,7.96017982301,-19.9061607325,0.0,10.0,0.0,0.0,0.0,10.0,0.0,0.0,0.0,10.0,0.925448478803,0.0203731823391,-0.509063242369,1.0,0.0,0.0,0.0,1.0,0.0,0.0,0.0,1.0,3.46679077148,0.967587890625,8.03289550781,0.1,0.0,0.0,0.0,0.1,0.0,0.0,0.0,0.1
1446036647602032243,250,1446036647598819017,robocape,-0.522619270385,8.00403147014,-19.9146735687,0.0,10.0,0.0,0.0,0.0,10.0,0.0,0.0,0.0,10.0,0.617986530953,0.0316916169719,-0.0247673981377,1.0,0.0,0.0,0.0,1.0,0.0,0.0,0.0,1.0,0.238304443359,2.89198608398,10.7344775391,0.1,0.0,0.0,0.0,0.1,0.0,0.0,0.0,0.1
1446036647637591285,251,1446036647634550094,robocape,-0.258783409935,8.20182942808,-19.4858273531,0.0,10.0,0.0,0.0,0.0,10.0,0.0,0.0,0.0,10.0,0.10732539193,0.108390656366,0.207992881135,1.0,0.0,0.0,0.0,1.0,0.0,0.0,0.0,1.0,-2.82971557617,2.71954467773,9.40164916992,0.1,0.0,0.0,0.0,0.1,0.0,0.0,0.0,0.1
1446036647668544160,252,1446036647665396928,robocape,-0.736389422242,8.00726113707,-19.142875594,0.0,10.0,0.0,0.0,0.0,10.0,0.0,0.0,0.0,10.0,-0.274971382551,-0.0980043281149,0.163917565094,1.0,0.0,0.0,0.0,1.0,0.0,0.0,0.0,1.0,-2.01301391602,1.94595336914,11.4613659668,0.1,0.0,0.0,0.0,0.1,0.0,0.0,0.0,0.1
1446036647702619368,253,1446036647699100017,robocape,-1.61807426216,8.30406492219,-18.9601419286,0.0,10.0,0.0,0.0,0.0,10.0,0.0,0.0,0.0,10.0,-0.475507412634,0.161387562059,0.0798948327024,1.0,0.0,0.0,0.0,1.0,0.0,0.0,0.0,1.0,-4.92655517578,1.92679321289,9.47709228516,0.1,0.0,0.0,0.0,0.1,0.0,0.0,0.0,0.1
1446036647735619868,254,1446036647732095956,robocape,-2.84757660209,8.07158255061,-18.7342759949,0.0,10.0,0.0,0.0,0.0,10.0,0.0,0.0,0.0,10.0,-0.661795530885,-0.119709090999,0.0976048539514,1.0,0.0,0.0,0.0,1.0,0.0,0.0,0.0,1.0,-2.4489074707,2.03816162109,10.0123791504,0.1,0.0,0.0,0.0,0.1,0.0,0.0,0.0,0.1
1446036647768685743,255,1446036647765505075,robocape,-4.54175779507,8.17828237432,-18.5184543079,0.0,10.0,0.0,0.0,0.0,10.0,0.0,0.0,0.0,10.0,-0.906273718954,0.0569916473277,0.0972053797879,1.0,0.0,0.0,0.0,1.0,0.0,0.0,0.0,1.0,-0.916094970703,1.44419677734,9.24956542969,0.1,0.0,0.0,0.0,0.1,0.0,0.0,0.0,0.1
1446036647802065743,256,1446036647798722028,robocape,-6.2471097558,8.16163251783,-18.6014124166,0.0,10.0,0.0,0.0,0.0,10.0,0.0,0.0,0.0,10.0,-0.893091071558,0.0067910607797,-0.0672448175245,1.0,0.0,0.0,0.0,1.0,0.0,0.0,0.0,1.0,-0.188009033203,1.12206665039,10.8290808105,0.1,0.0,0.0,0.0,0.1,0.0,0.0,0.0,0.1
1446036647835828076,257,1446036647832603931,robocape,-7.97824103766,8.07579191622,-18.717048965,0.0,10.0,0.0,0.0,0.0,10.0,0.0,0.0,0.0,10.0,-0.90733898339,-0.0242347659197,-0.0912132673352,1.0,0.0,0.0,0.0,1.0,0.0,0.0,0.0,1.0,2.45729003906,0.792751464844,9.35734130859,0.1,0.0,0.0,0.0,0.1,0.0,0.0,0.0,0.1
1446036647868727993,258,1446036647865719079,robocape,-9.74901711919,8.27606526963,-18.878358997,0.0,10.0,0.0,0.0,0.0,10.0,0.0,0.0,0.0,10.0,-0.929310062383,0.132625422286,-0.0973385378424,1.0,0.0,0.0,0.0,1.0,0.0,0.0,0.0,1.0,1.24900268555,1.36875366211,9.94052856445,0.1,0.0,0.0,0.0,0.1,0.0,0.0,0.0,0.1
1446036647901998285,259,1446036647898747920,robocape,-11.5634887689,8.43270900378,-19.0990912807,0.0,10.0,0.0,0.0,0.0,10.0,0.0,0.0,0.0,10.0,-0.952346405812,0.120641197381,-0.131826473959,1.0,0.0,0.0,0.0,1.0,0.0,0.0,0.0,1.0,-4.06434814453,0.567619628906,10.4722229004,0.1,0.0,0.0,0.0,0.1,0.0,0.0,0.0,0.1
1446036647935835618,260,1446036647932594060,robocape,-13.5338733908,8.54303908603,-19.2571631674,0.0,10.0,0.0,0.0,0.0,10.0,0.0,0.0,0.0,10.0,-1.04422546342,0.0956074831338,-0.105061705004,1.0,0.0,0.0,0.0,1.0,0.0,0.0,0.0,1.0,-3.72305786133,1.02147583008,11.2470117188,0.1,0.0,0.0,0.0,0.1,0.0,0.0,0.0,0.1
1446036647970153368,261,1446036647967091083,robocape,-15.5994153906,8.25574737781,-19.3282842657,0.0,10.0,0.0,0.0,0.0,10.0,0.0,0.0,0.0,10.0,-1.10614395876,-0.113983294655,-0.11265171411,1.0,0.0,0.0,0.0,1.0,0.0,0.0,0.0,1.0,-1.02746337891,1.14122680664,8.14905395508,0.1,0.0,0.0,0.0,0.1,0.0,0.0,0.0,0.1
1446036648003257910,262,1446036648000201940,robocape,-17.8699930939,7.91458619063,-19.4791632785,0.0,10.0,0.0,0.0,0.0,10.0,0.0,0.0,0.0,10.0,-1.21919514704,-0.121972777926,-0.172839154746,1.0,0.0,0.0,0.0,1.0,0.0,0.0,0.0,1.0,-3.73383544922,0.457448730469,7.14314575195,0.1,0.0,0.0,0.0,0.1,0.0,0.0,0.0,0.1
1446036648036673118,263,1446036648033452033,robocape,-20.2542334246,7.9362985487,-19.726918199,0.0,10.0,0.0,0.0,0.0,10.0,0.0,0.0,0.0,10.0,-1.28737207094,0.0858869451551,-0.173371786964,1.0,0.0,0.0,0.0,1.0,0.0,0.0,0.0,1.0,-0.435893554688,0.868194580078,11.7379907227,0.1,0.0,0.0,0.0,0.1,0.0,0.0,0.0,0.1
1446036648070443410,264,1446036648067034006,robocape,-22.1718093972,7.25174473892,-20.1591798723,0.0,10.0,0.0,0.0,0.0,10.0,0.0,0.0,0.0,10.0,-1.03596966404,-0.220509738259,-0.395346263822,1.0,0.0,0.0,0.0,1.0,0.0,0.0,0.0,1.0,1.33163085938,-1.11727661133,8.58494750977,0.1,0.0,0.0,0.0,0.1,0.0,0.0,0.0,0.1
1446036648103313952,265,1446036648100207090,robocape,-23.1168579652,7.20885876215,-21.4587149319,0.0,10.0,0.0,0.0,0.0,10.0,0.0,0.0,0.0,10.0,-0.477504783451,0.275637172823,-0.694419254238,1.0,0.0,0.0,0.0,1.0,0.0,0.0,0.0,1.0,1.11248657227,-1.43701171875,11.2673693848,0.1,0.0,0.0,0.0,0.1,0.0,0.0,0.0,0.1
1446036648136381077,266,1446036648133096933,robocape,-23.2750546407,7.4726329983,-22.832942698,0.0,10.0,0.0,0.0,0.0,10.0,0.0,0.0,0.0,10.0,-0.0498011123845,0.441285792626,-0.658732895631,1.0,0.0,0.0,0.0,1.0,0.0,0.0,0.0,1.0,-2.5710534668,-1.20828735352,13.351036377,0.1,0.0,0.0,0.0,0.1,0.0,0.0,0.0,0.1
1446036648171095827,267,1446036648167987108,robocape,-22.8098432008,7.23447484595,-23.9501748081,0.0,10.0,0.0,0.0,0.0,10.0,0.0,0.0,0.0,10.0,0.276169805041,0.13688648003,-0.627440752823,1.0,0.0,0.0,0.0,1.0,0.0,0.0,0.0,1.0,0.300574951172,-0.917292480469,8.76098144531,0.1,0.0,0.0,0.0,0.1,0.0,0.0,0.0,0.1
1446036648206081077,268,1446036648202925920,robocape,-21.6791785114,7.47180387283,-25.2458907891,0.0,10.0,0.0,0.0,0.0,10.0,0.0,0.0,0.0,10.0,0.644618141854,0.391484680242,-0.616255476244,1.0,0.0,0.0,0.0,1.0,0.0,0.0,0.0,1.0,1.39749389648,-0.389190673828,10.8961413574,0.1,0.0,0.0,0.0,0.1,0.0,0.0,0.0,0.1
1446036648238007535,269,1446036648234633922,robocape,-20.0534126403,7.39927053108,-26.3969886169,0.0,10.0,0.0,0.0,0.0,10.0,0.0,0.0,0.0,10.0,0.906007402845,0.193478653194,-0.60400493523,1.0,0.0,0.0,0.0,1.0,0.0,0.0,0.0,1.0,-0.208366699219,-0.954415283203,11.4541809082,0.1,0.0,0.0,0.0,0.1,0.0,0.0,0.0,0.1
1446036648270117743,270,1446036648267101049,robocape,-17.9405983672,7.21472152041,-27.5702832198,0.0,10.0,0.0,0.0,0.0,10.0,0.0,0.0,0.0,10.0,1.16699718967,0.120374881272,-0.636628658583,1.0,0.0,0.0,0.0,1.0,0.0,0.0,0.0,1.0,-2.50998046875,-0.186811523438,8.68793334961,0.1,0.0,0.0,0.0,0.1,0.0,0.0,0.0,0.1
1446036648308156868,271,1446036648305003881,robocape,-15.272872816,7.05609926736,-28.7628996338,0.0,10.0,0.0,0.0,0.0,10.0,0.0,0.0,0.0,10.0,1.46140964818,0.109189604693,-0.645417090181,1.0,0.0,0.0,0.0,1.0,0.0,0.0,0.0,1.0,-4.48108154297,-0.0131726074219,10.5309008789,0.1,0.0,0.0,0.0,0.1,0.0,0.0,0.0,0.1
1446036648340795118,272,1446036648336451053,robocape,-12.1476157555,6.98201666654,-29.9026926602,0.0,10.0,0.0,0.0,0.0,10.0,0.0,0.0,0.0,10.0,1.69909677547,0.114382768819,-0.615589685972,1.0,0.0,0.0,0.0,1.0,0.0,0.0,0.0,1.0,-3.43206298828,-0.438288574219,10.5261108398,0.1,0.0,0.0,0.0,0.1,0.0,0.0,0.0,0.1
1446036648372451785,273,1446036648369364976,robocape,-8.54364197166,6.56604165121,-30.9214417561,0.0,10.0,0.0,0.0,0.0,10.0,0.0,0.0,0.0,10.0,1.94344180549,-0.108257498312,-0.594284397251,1.0,0.0,0.0,0.0,1.0,0.0,0.0,0.0,1.0,-3.96854736328,0.00718505859375,8.58494750977,0.1,0.0,0.0,0.0,0.1,0.0,0.0,0.0,0.1
1446036648405209868,274,1446036648401360034,robocape,-4.47570657704,6.36990897078,-31.6853295996,0.0,10.0,0.0,0.0,0.0,10.0,0.0,0.0,0.0,10.0,2.17273997534,-0.0459395288039,-0.446878430915,1.0,0.0,0.0,0.0,1.0,0.0,0.0,0.0,1.0,-0.238304443359,0.626297607422,10.2375109863,0.1,0.0,0.0,0.0,0.1,0.0,0.0,0.0,0.1
1446036648444857493,275,1446036648436511993,robocape,-0.273694243055,6.08961333878,-32.3253079543,0.0,10.0,0.0,0.0,0.0,10.0,0.0,0.0,0.0,10.0,2.24038426703,-0.119975407108,-0.396811002422,1.0,0.0,0.0,0.0,1.0,0.0,0.0,0.0,1.0,-2.67044677734,1.09212890625,6.78509033203,0.1,0.0,0.0,0.0,0.1,0.0,0.0,0.0,0.1
1446036648473320327,276,1446036648469012022,robocape,3.76082319799,6.60833887849,-32.6415848395,0.0,10.0,0.0,0.0,0.0,10.0,0.0,0.0,0.0,10.0,2.14437730973,0.281895601385,-0.249405036086,1.0,0.0,0.0,0.0,1.0,0.0,0.0,0.0,1.0,-1.38551879883,1.8812878418,11.6948803711,0.1,0.0,0.0,0.0,0.1,0.0,0.0,0.0,0.1
1446036648505509743,277,1446036648502476930,robocape,7.52853669781,6.57888329336,-32.6238017656,0.0,10.0,0.0,0.0,0.0,10.0,0.0,0.0,0.0,10.0,1.99457449841,-0.00159789665405,-0.0683100819605,1.0,0.0,0.0,0.0,1.0,0.0,0.0,0.0,1.0,-2.76744506836,2.7207421875,7.79099853516,0.1,0.0,0.0,0.0,0.1,0.0,0.0,0.0,0.1
1446036648540815118,278,1446036648537226915,robocape,10.6001254435,6.59449141188,-32.3024337437,0.0,10.0,0.0,0.0,0.0,10.0,0.0,0.0,0.0,10.0,1.61800352028,0.0446079482588,0.0866858934821,1.0,0.0,0.0,0.0,1.0,0.0,0.0,0.0,1.0,-0.811911621094,3.16501831055,10.5979614258,0.1,0.0,0.0,0.0,0.1,0.0,0.0,0.0,0.1
1446036648574071160,279,1446036648570843935,robocape,12.234379685,6.98715647703,-31.2398844718,0.0,10.0,0.0,0.0,0.0,10.0,0.0,0.0,0.0,10.0,0.805872545858,0.315584589174,0.463656345783,1.0,0.0,0.0,0.0,1.0,0.0,0.0,0.0,1.0,-0.59396484375,5.23551269531,12.0349731445,0.1,0.0,0.0,0.0,0.1,0.0,0.0,0.0,0.1
1446036648606569910,280,1446036648603266000,robocape,12.6175979739,7.19085466199,-30.1759535946,0.0,10.0,0.0,0.0,0.0,10.0,0.0,0.0,0.0,10.0,0.138883850848,0.225037112112,0.501606391316,1.0,0.0,0.0,0.0,1.0,0.0,0.0,0.0,1.0,1.00351318359,3.34703979492,9.78964233398,0.1,0.0,0.0,0.0,0.1,0.0,0.0,0.0,0.1
1446036648639303535,281,1446036648635667085,robocape,12.0007101354,7.49646508089,-29.1412969653,0.0,10.0,0.0,0.0,0.0,10.0,0.0,0.0,0.0,10.0,-0.392416786623,0.270843482861,0.491220063065,1.0,0.0,0.0,0.0,1.0,0.0,0.0,0.0,1.0,0.101788330078,3.23327636719,12.4756567383,0.1,0.0,0.0,0.0,0.1,0.0,0.0,0.0,0.1
1446036648673390243,282,1446036648670312881,robocape,10.6854397254,8.04558468816,-28.0700966943,0.0,10.0,0.0,0.0,0.0,10.0,0.0,0.0,0.0,10.0,-0.768854606706,0.389487309424,0.498543756063,1.0,0.0,0.0,0.0,1.0,0.0,0.0,0.0,1.0,2.37466186523,3.73862548828,11.8290014648,0.1,0.0,0.0,0.0,0.1,0.0,0.0,0.0,0.1
1446036648705416744,283,1446036648702166080,robocape,8.69230717203,7.75500405636,-27.3346314029,0.0,10.0,0.0,0.0,0.0,10.0,0.0,0.0,0.0,10.0,-1.1028150074,-0.0888164223541,0.418249449197,1.0,0.0,0.0,0.0,1.0,0.0,0.0,0.0,1.0,-4.89062988281,0.911304931641,7.04494995117,0.1,0.0,0.0,0.0,0.1,0.0,0.0,0.0,0.1
1446036648738569702,284,1446036648735228061,robocape,6.78461792656,7.9917851842,-26.9589739456,0.0,10.0,0.0,0.0,0.0,10.0,0.0,0.0,0.0,10.0,-1.02411859719,0.150335443535,0.17057546782,1.0,0.0,0.0,0.0,1.0,0.0,0.0,0.0,1.0,0.562829589844,1.02267333984,11.4446008301,0.1,0.0,0.0,0.0,0.1,0.0,0.0,0.0,0.1
1446036648771925702,285,1446036648768893003,robocape,5.22693030347,8.42360075737,-26.6925569341,0.0,10.0,0.0,0.0,0.0,10.0,0.0,0.0,0.0,10.0,-0.831039418159,0.243679239742,0.0960069572974,1.0,0.0,0.0,0.0,1.0,0.0,0.0,0.0,1.0,1.97110107422,1.35438354492,8.95258300781,0.1,0.0,0.0,0.0,0.1,0.0,0.0,0.0,0.1
1446036648805176202,286,1446036648801953077,robocape,3.76192878695,8.13462796909,-26.3407530894,0.0,10.0,0.0,0.0,0.0,10.0,0.0,0.0,0.0,10.0,-0.791491475972,-0.133957002831,0.183358641052,1.0,0.0,0.0,0.0,1.0,0.0,0.0,0.0,1.0,-2.08366699219,1.4980847168,8.43645629883,0.1,0.0,0.0,0.0,0.1,0.0,0.0,0.0,0.1
1446036648837867577,287,1446036648834825038,robocape,2.09904078375,8.33814632618,-25.9004935774,0.0,10.0,0.0,0.0,0.0,10.0,0.0,0.0,0.0,10.0,-0.901879503155,0.121706461817,0.209590777789,1.0,0.0,0.0,0.0,1.0,0.0,0.0,0.0,1.0,1.09212890625,2.0345690918,10.821895752,0.1,0.0,0.0,0.0,0.1,0.0,0.0,0.0,0.1
1446036648870782952,288,1446036648867727994,robocape,0.28249640838,8.02191337297,-25.4860433567,0.0,10.0,0.0,0.0,0.0,10.0,0.0,0.0,0.0,10.0,-0.98124170364,-0.158058610696,0.207726565026,1.0,0.0,0.0,0.0,1.0,0.0,0.0,0.0,1.0,3.82604370117,1.73159912109,8.57776245117,0.1,0.0,0.0,0.0,0.1,0.0,0.0,0.0,0.1
1446036648904727452,289,1446036648901463031,robocape,-1.6991696555,8.34101514885,-25.2189350584,0.0,10.0,0.0,0.0,0.0,10.0,0.0,0.0,0.0,10.0,-1.05754126887,0.172572838637,0.1182443524,1.0,0.0,0.0,0.0,1.0,0.0,0.0,0.0,1.0,4.4487487793,0.0467028808594,7.57784179688,0.1,0.0,0.0,0.0,0.1,0.0,0.0,0.0,0.1
1446036648938825619,290,1446036648935585975,robocape,-3.4676409646,7.99939299831,-25.1249992247,0.0,10.0,0.0,0.0,0.0,10.0,0.0,0.0,0.0,10.0,-0.934636384563,-0.172572838637,0.015313176268,1.0,0.0,0.0,0.0,1.0,0.0,0.0,0.0,1.0,-1.20708984375,1.06219116211,7.19344116211,0.1,0.0,0.0,0.0,0.1,0.0,0.0,0.0,0.1
1446036648970735327,291,1446036648967777013,robocape,-5.15927767302,7.98888412486,-25.0302532274,0.0,10.0,0.0,0.0,0.0,10.0,0.0,0.0,0.0,10.0,-0.896819497084,0.00146473859954,0.017976337358,1.0,0.0,0.0,0.0,1.0,0.0,0.0,0.0,1.0,0.415535888672,0.789158935547,10.6422692871,0.1,0.0,0.0,0.0,0.1,0.0,0.0,0.0,0.1
1446036649003519910,292,1446036649000544071,robocape,-6.66649174431,8.29789344348,-25.0888586839,0.0,10.0,0.0,0.0,0.0,10.0,0.0,0.0,0.0,10.0,-0.792423582353,0.178698109144,-0.0523311154201,1.0,0.0,0.0,0.0,1.0,0.0,0.0,0.0,1.0,0.725690917969,-0.365240478516,10.9500292969,0.1,0.0,0.0,0.0,0.1,0.0,0.0,0.0,0.1
1446036649036439660,293,1446036649033431053,robocape,-6.99042151032,8.18849111451,-25.8209834475,0.0,10.0,0.0,0.0,0.0,10.0,0.0,0.0,0.0,10.0,-0.124635939016,0.00759000910673,-0.434494731846,1.0,0.0,0.0,0.0,1.0,0.0,0.0,0.0,1.0,5.18282226563,-1.94834838867,10.2506835938,0.1,0.0,0.0,0.0,0.1,0.0,0.0,0.0,0.1
1446036649069885744,294,1446036649066849946,robocape,-5.58849551403,8.03952874188,-27.1155731385,0.0,10.0,0.0,0.0,0.0,10.0,0.0,0.0,0.0,10.0,0.821851512398,0.017976337358,-0.736364041407,1.0,0.0,0.0,0.0,1.0,0.0,0.0,0.0,1.0,2.49561035156,-2.41537719727,9.53457275391,0.1,0.0,0.0,0.0,0.1,0.0,0.0,0.0,0.1
1446036649103220160,295,1446036649100123882,robocape,-2.32716671272,7.90291494466,-28.4161169065,0.0,10.0,0.0,0.0,0.0,10.0,0.0,0.0,0.0,10.0,1.80216110966,-0.00452737385313,-0.739959308879,1.0,0.0,0.0,0.0,1.0,0.0,0.0,0.0,1.0,-1.50526977539,-1.14362182617,7.56945922852,0.1,0.0,0.0,0.0,0.1,0.0,0.0,0.0,0.1
1446036649136245785,296,1446036649133212089,robocape,2.10834417919,7.92242821717,-29.3694564684,0.0,10.0,0.0,0.0,0.0,10.0,0.0,0.0,0.0,10.0,2.40243761936,0.0312921428084,-0.565122783315,1.0,0.0,0.0,0.0,1.0,0.0,0.0,0.0,1.0,-1.24900268555,0.47900390625,8.90947265625,0.1,0.0,0.0,0.0,0.1,0.0,0.0,0.0,0.1
1446036649169751452,297,1446036649166388988,robocape,6.83893752079,8.11823283197,-29.6977893126,0.0,10.0,0.0,0.0,0.0,10.0,0.0,0.0,0.0,10.0,2.52600829394,0.108923288584,-0.258326625738,1.0,0.0,0.0,0.0,1.0,0.0,0.0,0.0,1.0,2.7626550293,1.34240844727,8.25084228516,0.1,0.0,0.0,0.0,0.1,0.0,0.0,0.0,0.1
1446036649204126244,298,1446036649200941085,robocape,11.1041776747,8.00260887181,-29.6434031543,0.0,10.0,0.0,0.0,0.0,10.0,0.0,0.0,0.0,10.0,2.26821430042,-0.0376837294246,-0.050733218766,1.0,0.0,0.0,0.0,1.0,0.0,0.0,0.0,1.0,-3.17100585938,2.6860144043,7.79339355469,0.1,0.0,0.0,0.0,0.1,0.0,0.0,0.0,0.1
1446036649236049410,299,1446036649233042955,robocape,14.7739536469,8.34714419348,-29.1946304469,0.0,10.0,0.0,0.0,0.0,10.0,0.0,0.0,0.0,10.0,1.94037917023,0.244877662233,0.0921453737167,1.0,0.0,0.0,0.0,1.0,0.0,0.0,0.0,1.0,-2.43214233398,2.67523681641,9.66270629883,0.1,0.0,0.0,0.0,0.1,0.0,0.0,0.0,0.1
1446036649268672702,300,1446036649265634059,robocape,18.0121177253,8.91805928353,-28.531037738,0.0,10.0,0.0,0.0,0.0,10.0,0.0,0.0,0.0,10.0,1.70961626178,0.400938902111,0.145808069682,1.0,0.0,0.0,0.0,1.0,0.0,0.0,0.0,1.0,0.490979003906,2.76864257813,12.5115820313,0.1,0.0,0.0,0.0,0.1,0.0,0.0,0.0,0.1
1446036649301935285,301,1446036649298934936,robocape,20.9895077824,8.77829043047,-27.908927309,0.0,10.0,0.0,0.0,0.0,10.0,0.0,0.0,0.0,10.0,1.58484716471,0.0527305895836,0.230762908455,1.0,0.0,0.0,0.0,1.0,0.0,0.0,0.0,1.0,0.805924072266,2.43214233398,10.1812280273,0.1,0.0,0.0,0.0,0.1,0.0,0.0,0.0,0.1
1446036649335386327,302,1446036649332293987,robocape,23.9567780811,8.65623078155,-27.2441904452,0.0,10.0,0.0,0.0,0.0,10.0,0.0,0.0,0.0,10.0,1.5965650735,0.0857537871006,0.235556598418,1.0,0.0,0.0,0.0,1.0,0.0,0.0,0.0,1.0,-3.99728759766,1.81542480469,8.19575683594,0.1,0.0,0.0,0.0,0.1,0.0,0.0,0.0,0.1
1446036649368460494,303,1446036649365479946,robocape,26.8414043465,9.12242170494,-26.3866928603,0.0,10.0,0.0,0.0,0.0,10.0,0.0,0.0,0.0,10.0,1.56141134711,0.425573142195,0.176434422218,1.0,0.0,0.0,0.0,1.0,0.0,0.0,0.0,1.0,4.83314941406,1.65495849609,13.0923742676,0.1,0.0,0.0,0.0,0.1,0.0,0.0,0.0,0.1
1446036649401751119,304,1446036649398775100,robocape,29.9177900027,9.80543477761,-25.2314450953,0.0,10.0,0.0,0.0,0.0,10.0,0.0,0.0,0.0,10.0,1.66167936215,0.616388634299,0.223572373512,1.0,0.0,0.0,0.0,1.0,0.0,0.0,0.0,1.0,6.91801391602,2.11959228516,7.17068847656,0.1,0.0,0.0,0.0,0.1,0.0,0.0,0.0,0.1
1446036649466143869,305,1446036649433069944,robocape,33.3974330778,10.1097271588,-24.2150029763,0.0,10.0,0.0,0.0,0.0,10.0,0.0,0.0,0.0,10.0,1.93518600611,0.43223104492,0.206261826427,1.0,0.0,0.0,0.0,1.0,0.0,0.0,0.0,1.0,0.696950683594,2.32676147461,8.81486938477,0.1,0.0,0.0,0.0,0.1,0.0,0.0,0.0,0.1
1446036649482591744,306,1446036649479398965,robocape,34.0667218865,10.418162372,-22.0462185054,0.0,10.0,0.0,0.0,0.0,10.0,0.0,0.0,0.0,10.0,0.180695479962,0.758601436509,0.816658348273,1.0,0.0,0.0,0.0,1.0,0.0,0.0,0.0,1.0,5.22234008789,12.2122045898,14.101875,0.1,0.0,0.0,0.0,0.1,0.0,0.0,0.0,0.1
1446036649506212869,307,1446036649502250909,robocape,33.5036684947,10.6590264345,-20.0282075175,0.0,10.0,0.0,0.0,0.0,10.0,0.0,0.0,0.0,10.0,-0.513590616222,0.67910607797,0.810266761657,1.0,0.0,0.0,0.0,1.0,0.0,0.0,0.0,1.0,-3.02011962891,7.32157470703,11.3691577148,0.1,0.0,0.0,0.0,0.1,0.0,0.0,0.0,0.1
1446036649535096744,308,1446036649532166004,robocape,32.7375415881,10.9254537844,-19.050325054,0.0,10.0,0.0,0.0,0.0,10.0,0.0,0.0,0.0,10.0,-0.493883224155,0.392150470514,0.343015148402,1.0,0.0,0.0,0.0,1.0,0.0,0.0,0.0,1.0,-4.84751953125,0.803529052734,9.07472900391,0.1,0.0,0.0,0.0,0.1,0.0,0.0,0.0,0.1
1446036649568417952,309,1446036649565445899,robocape,32.9170974125,10.7600186154,-18.845006213,0.0,10.0,0.0,0.0,0.0,10.0,0.0,0.0,0.0,10.0,0.140082273338,-0.00572579634367,0.0944090606433,1.0,0.0,0.0,0.0,1.0,0.0,0.0,0.0,1.0,2.15791259766,-0.144898681641,10.2219433594,0.1,0.0,0.0,0.0,0.1,0.0,0.0,0.0,0.1
1446036649602439327,310,1446036649598763942,robocape,34.1581891383,10.5105360836,-18.1385237806,0.0,10.0,0.0,0.0,0.0,10.0,0.0,0.0,0.0,10.0,0.687894509567,0.107458549985,0.313054586139,1.0,0.0,0.0,0.0,1.0,0.0,0.0,0.0,1.0,1.70166137695,3.62246704102,8.94539794922,0.1,0.0,0.0,0.0,0.1,0.0,0.0,0.0,0.1
1446036649635193827,311,1446036649632199048,robocape,34.6921048411,10.729108056,-16.6632865676,0.0,10.0,0.0,0.0,0.0,10.0,0.0,0.0,0.0,10.0,0.196274972339,0.533031692179,0.529036950544,1.0,0.0,0.0,0.0,1.0,0.0,0.0,0.0,1.0,0.282612304688,7.54071899414,9.6219909668,0.1,0.0,0.0,0.0,0.1,0.0,0.0,0.0,0.1
1446036649668655411,312,1446036649665560007,robocape,34.3453290303,10.4506820733,-15.3800832902,0.0,10.0,0.0,0.0,0.0,10.0,0.0,0.0,0.0,10.0,-0.298274042089,0.255263990484,0.623312853133,1.0,0.0,0.0,0.0,1.0,0.0,0.0,0.0,1.0,-0.796343994141,3.23207885742,8.73463623047,0.1,0.0,0.0,0.0,0.1,0.0,0.0,0.0,0.1
1446036649701535077,313,1446036649698657035,robocape,34.1637148871,10.7003748449,-14.3111496124,0.0,10.0,0.0,0.0,0.0,10.0,0.0,0.0,0.0,10.0,-0.163651248985,0.423842087486,0.364320437123,1.0,0.0,0.0,0.0,1.0,0.0,0.0,0.0,1.0,5.45226196289,1.60466308594,12.9642407227,0.1,0.0,0.0,0.0,0.1,0.0,0.0,0.0,0.1
1446036649735066452,314,1446036649732060909,robocape,34.9895596755,11.2546607301,-13.2789918217,0.0,10.0,0.0,0.0,0.0,10.0,0.0,0.0,0.0,10.0,0.42810314523,0.559530145026,0.226635008766,1.0,0.0,0.0,0.0,1.0,0.0,0.0,0.0,1.0,-2.83690063477,2.50998046875,8.1658190918,0.1,0.0,0.0,0.0,0.1,0.0,0.0,0.0,0.1
1446036649768705327,315,1446036649765572071,robocape,35.4887947704,11.2213809183,-12.1838190819,0.0,10.0,0.0,0.0,0.0,10.0,0.0,0.0,0.0,10.0,0.219444473823,0.324506178826,0.439821054027,1.0,0.0,0.0,0.0,1.0,0.0,0.0,0.0,1.0,2.70277954102,8.35502563477,12.6169628906,0.1,0.0,0.0,0.0,0.1,0.0,0.0,0.0,0.1
1446036649801638411,316,1446036649798702955,robocape,35.0856408879,11.3854212299,-11.032666598,0.0,10.0,0.0,0.0,0.0,10.0,0.0,0.0,0.0,10.0,-0.306529841468,0.416518394488,0.423708929432,1.0,0.0,0.0,0.0,1.0,0.0,0.0,0.0,1.0,1.59388549805,4.31702270508,7.37546264648,0.1,0.0,0.0,0.0,0.1,0.0,0.0,0.0,0.1
1446036649835250952,317,1446036649832216978,robocape,35.4426643541,10.9799332962,-10.7090931669,0.0,10.0,0.0,0.0,0.0,10.0,0.0,0.0,0.0,10.0,0.226368692657,-0.0624511275624,0.231029224564,1.0,0.0,0.0,0.0,1.0,0.0,0.0,0.0,1.0,-3.07760009766,-0.317340087891,6.45338012695,0.1,0.0,0.0,0.0,0.1,0.0,0.0,0.0,0.1
1446036649868546077,318,1446036649865427017,robocape,36.0746960157,11.5183645955,-9.63016022722,0.0,10.0,0.0,0.0,0.0,10.0,0.0,0.0,0.0,10.0,0.314785640847,0.573911214912,0.25100293274,1.0,0.0,0.0,0.0,1.0,0.0,0.0,0.0,1.0,3.08957519531,4.79482910156,10.5704187012,0.1,0.0,0.0,0.0,0.1,0.0,0.0,0.0,0.1
1446036649901654994,319,1446036649898719072,robocape,35.76411448,11.7769363803,-8.17950470897,0.0,10.0,0.0,0.0,0.0,10.0,0.0,0.0,0.0,10.0,-0.288420346056,0.553005400355,0.513990090385,1.0,0.0,0.0,0.0,1.0,0.0,0.0,0.0,1.0,1.62981079102,5.52890258789,10.3369042969,0.1,0.0,0.0,0.0,0.1,0.0,0.0,0.0,0.1
1446036649935808661,320,1446036649932610034,robocape,35.0060063392,11.8086618838,-7.31153853654,0.0,10.0,0.0,0.0,0.0,10.0,0.0,0.0,0.0,10.0,-0.48043426065,0.273639802006,0.350205683345,1.0,0.0,0.0,0.0,1.0,0.0,0.0,0.0,1.0,1.51844238281,0.590372314453,9.7716796875,0.1,0.0,0.0,0.0,0.1,0.0,0.0,0.0,0.1
1446036649968605161,321,1446036649965675115,robocape,35.2986264651,11.9234345205,-6.67370616479,0.0,10.0,0.0,0.0,0.0,10.0,0.0,0.0,0.0,10.0,0.157525978478,0.256995045193,0.211721306661,1.0,0.0,0.0,0.0,1.0,0.0,0.0,0.0,1.0,0.250279541016,0.840651855469,7.65807495117,0.1,0.0,0.0,0.0,0.1,0.0,0.0,0.0,0.1
1446036650001645702,322,1446036649998722076,robocape,36.0315994436,12.0162672498,-5.91212166374,0.0,10.0,0.0,0.0,0.0,10.0,0.0,0.0,0.0,10.0,0.398808373239,0.293746668236,0.262853999591,1.0,0.0,0.0,0.0,1.0,0.0,0.0,0.0,1.0,2.16988769531,3.96016479492,12.2289697266,0.1,0.0,0.0,0.0,0.1,0.0,0.0,0.0,0.1
1446036650035043827,323,1446036650032133102,robocape,35.9518813106,12.2027636626,-4.20247995437,0.0,10.0,0.0,0.0,0.0,10.0,0.0,0.0,0.0,10.0,-0.188551805178,0.605735989939,0.641422348546,1.0,0.0,0.0,0.0,1.0,0.0,0.0,0.0,1.0,2.27766357422,6.0126965332,13.545032959,0.1,0.0,0.0,0.0,0.1,0.0,0.0,0.0,0.1
1446036650068416911,324,1446036650065505981,robocape,35.2474250494,12.231263704,-2.81841418115,0.0,10.0,0.0,0.0,0.0,10.0,0.0,0.0,0.0,10.0,-0.512525351786,0.427570513012,0.565389099424,1.0,0.0,0.0,0.0,1.0,0.0,0.0,0.0,1.0,-0.772393798828,2.57584350586,9.6148059082,0.1,0.0,0.0,0.0,0.1,0.0,0.0,0.0,0.1
1446036650102070286,325,1446036650098725080,robocape,34.7939599722,12.3395801716,-1.53508479862,0.0,10.0,0.0,0.0,0.0,10.0,0.0,0.0,0.0,10.0,-0.353135160545,0.432497361029,0.500807442989,1.0,0.0,0.0,0.0,1.0,0.0,0.0,0.0,1.0,-5.62470336914,2.25610839844,10.0423168945,0.1,0.0,0.0,0.0,0.1,0.0,0.0,0.0,0.1
1446036650134952661,326,1446036650132044076,robocape,34.6970651342,12.1214847238,-0.396229471708,0.0,10.0,0.0,0.0,0.0,10.0,0.0,0.0,0.0,10.0,-0.134622793104,0.253000303558,0.538757488523,1.0,0.0,0.0,0.0,1.0,0.0,0.0,0.0,1.0,1.65735351563,1.35438354492,12.6983935547,0.1,0.0,0.0,0.0,0.1,0.0,0.0,0.0,0.1
1446036650168844119,327,1446036650165721893,robocape,34.8787649341,11.9737964275,0.668496301873,0.0,10.0,0.0,0.0,0.0,10.0,0.0,0.0,0.0,10.0,0.0388821519152,0.268579795934,0.486426373103,1.0,0.0,0.0,0.0,1.0,0.0,0.0,0.0,1.0,-0.657432861328,1.40467895508,7.41857299805,0.1,0.0,0.0,0.0,0.1,0.0,0.0,0.0,0.1
1446036650204438078,328,1446036650201153993,robocape,35.3987990808,12.1829035067,1.72585979937,0.0,10.0,0.0,0.0,0.0,10.0,0.0,0.0,0.0,10.0,0.242747133361,0.432097886865,0.374040975102,1.0,0.0,0.0,0.0,1.0,0.0,0.0,0.0,1.0,5.71691162109,1.87889282227,12.512779541,0.1,0.0,0.0,0.0,0.1,0.0,0.0,0.0,0.1
1446036650236340161,329,1446036650233304977,robocape,36.166181367,12.153872517,2.79178792985,0.0,10.0,0.0,0.0,0.0,10.0,0.0,0.0,0.0,10.0,0.384160987244,0.342881990348,0.447943695351,1.0,0.0,0.0,0.0,1.0,0.0,0.0,0.0,1.0,-2.53512817383,1.53401000977,10.3572619629,0.1,0.0,0.0,0.0,0.1,0.0,0.0,0.0,0.1
1446036650268472119,330,1446036650265492916,robocape,37.1760783,11.9823494232,3.73569143965,0.0,10.0,0.0,0.0,0.0,10.0,0.0,0.0,0.0,10.0,0.543551178485,0.258726099901,0.44022052819,1.0,0.0,0.0,0.0,1.0,0.0,0.0,0.0,1.0,1.82141235352,2.57344848633,9.62438598633,0.1,0.0,0.0,0.0,0.1,0.0,0.0,0.0,0.1
1446036650301653286,331,1446036650298700094,robocape,37.705791944,11.8868007598,4.89430249582,0.0,10.0,0.0,0.0,0.0,10.0,0.0,0.0,0.0,10.0,0.249271878031,0.356330953853,0.503337446025,1.0,0.0,0.0,0.0,1.0,0.0,0.0,0.0,1.0,1.22625,5.35646118164,9.43158691406,0.1,0.0,0.0,0.0,0.1,0.0,0.0,0.0,0.1
1446036650335226869,332,1446036650332184076,robocape,37.6251658112,12.3848357307,6.27824179834,0.0,10.0,0.0,0.0,0.0,10.0,0.0,0.0,0.0,10.0,-0.121173829599,0.667787643337,0.404534169583,1.0,0.0,0.0,0.0,1.0,0.0,0.0,0.0,1.0,3.34224975586,3.30752197266,13.6851416016,0.1,0.0,0.0,0.0,0.1,0.0,0.0,0.0,0.1
1446036650368284953,333,1446036650365328073,robocape,37.6739095833,12.461428027,7.17275394349,0.0,10.0,0.0,0.0,0.0,10.0,0.0,0.0,0.0,10.0,0.00066579027252,0.341284093694,0.343015148402,1.0,0.0,0.0,0.0,1.0,0.0,0.0,0.0,1.0,0.0694555664063,1.39988891602,5.96240112305,0.1,0.0,0.0,0.0,0.1,0.0,0.0,0.0,0.1
1446036650401960786,334,1446036650398978948,robocape,38.0928826255,11.9880775531,7.58674749399,0.0,10.0,0.0,0.0,0.0,10.0,0.0,0.0,0.0,10.0,0.262987157645,-0.0311589847539,0.32756881408,1.0,0.0,0.0,0.0,1.0,0.0,0.0,0.0,1.0,-0.992735595703,4.27510986328,6.18513793945,0.1,0.0,0.0,0.0,0.1,0.0,0.0,0.0,0.1
1446036650437199953,335,1446036650433953046,robocape,37.9614335453,11.0580090934,7.99212227032,0.0,10.0,0.0,0.0,0.0,10.0,0.0,0.0,0.0,10.0,-0.0595216503633,-0.236488704799,0.469648458235,1.0,0.0,0.0,0.0,1.0,0.0,0.0,0.0,1.0,-1.57831787109,5.80193481445,7.58861938477,0.1,0.0,0.0,0.0,0.1,0.0,0.0,0.0,0.1
1446036650468339119,336,1446036650465352058,robocape,37.7303447113,11.2277413894,8.92599224451,0.0,10.0,0.0,0.0,0.0,10.0,0.0,0.0,0.0,10.0,-0.15166702408,0.388821519152,0.332362504042,1.0,0.0,0.0,0.0,1.0,0.0,0.0,0.0,1.0,6.2426184082,1.63340332031,8.88791748047,0.1,0.0,0.0,0.0,0.1,0.0,0.0,0.0,0.1
1446036650501721036,337,1446036650498784065,robocape,37.9598958204,11.3368833685,9.59497696182,0.0,10.0,0.0,0.0,0.0,10.0,0.0,0.0,0.0,10.0,0.141147537774,0.290417716873,0.249138719977,1.0,0.0,0.0,0.0,1.0,0.0,0.0,0.0,1.0,1.98307617188,1.71363647461,9.43517944336,0.1,0.0,0.0,0.0,0.1,0.0,0.0,0.0,0.1
1446036650535185953,338,1446036650532156944,robocape,38.5332779586,10.7113153159,10.0291652249,0.0,10.0,0.0,0.0,0.0,10.0,0.0,0.0,0.0,10.0,0.358461482725,-0.0813595713019,0.394813631604,1.0,0.0,0.0,0.0,1.0,0.0,0.0,0.0,1.0,10.1213525391,3.66797241211,10.1476977539,0.1,0.0,0.0,0.0,0.1,0.0,0.0,0.0,0.1
1446036650568324078,339,1446036650565406084,robocape,39.0694508666,11.1700503195,11.3312322196,0.0,10.0,0.0,0.0,0.0,10.0,0.0,0.0,0.0,10.0,0.27523769866,0.655137628159,0.39321573495,1.0,0.0,0.0,0.0,1.0,0.0,0.0,0.0,1.0,4.03920043945,6.89286621094,8.62087280273,0.1,0.0,0.0,0.0,0.1,0.0,0.0,0.0,0.1
1446036650601794203,340,1446036650598665952,robocape,38.6900713075,10.7807614646,12.0679874389,0.0,10.0,0.0,0.0,0.0,10.0,0.0,0.0,0.0,10.0,-0.216914470787,0.100800647259,0.434361573792,1.0,0.0,0.0,0.0,1.0,0.0,0.0,0.0,1.0,-0.833466796875,4.0655456543,11.306887207,0.1,0.0,0.0,0.0,0.1,0.0,0.0,0.0,0.1
1446036650635321369,341,1446036650632352113,robocape,38.5806915619,10.8944430698,12.6991457013,0.0,10.0,0.0,0.0,0.0,10.0,0.0,0.0,0.0,10.0,-0.0435426838228,0.279498756404,0.233426069545,1.0,0.0,0.0,0.0,1.0,0.0,0.0,0.0,1.0,0.299377441406,2.56147338867,8.29395263672,0.1,0.0,0.0,0.0,0.1,0.0,0.0,0.0,0.1
1446036650668289369,342,1446036650665365934,robocape,38.9504825589,11.098226486,13.4894518648,0.0,10.0,0.0,0.0,0.0,10.0,0.0,0.0,0.0,10.0,0.223838689621,0.382296774481,0.276169805041,1.0,0.0,0.0,0.0,1.0,0.0,0.0,0.0,1.0,-1.35797607422,5.90731567383,10.979967041,0.1,0.0,0.0,0.0,0.1,0.0,0.0,0.0,0.1
1446036650701774744,343,1446036650698854923,robocape,39.0356178921,10.6621426459,14.1342048693,0.0,10.0,0.0,0.0,0.0,10.0,0.0,0.0,0.0,10.0,0.0667121853065,0.0661795530885,0.424108403595,1.0,0.0,0.0,0.0,1.0,0.0,0.0,0.0,1.0,2.27047851563,5.10977416992,8.05924072266,0.1,0.0,0.0,0.0,0.1,0.0,0.0,0.0,0.1
1446036650735687828,344,1446036650732547998,robocape,39.107701845,11.5129889943,15.6466810865,0.0,10.0,0.0,0.0,0.0,10.0,0.0,0.0,0.0,10.0,-0.00359526747161,0.884968430233,0.353934108872,1.0,0.0,0.0,0.0,1.0,0.0,0.0,0.0,1.0,-1.19631225586,5.60554321289,14.5233984375,0.1,0.0,0.0,0.0,0.1,0.0,0.0,0.0,0.1
1446036650773032953,345,1446036650769944906,robocape,38.5825503008,10.9722315472,16.6002730629,0.0,10.0,0.0,0.0,0.0,10.0,0.0,0.0,0.0,10.0,-0.316117221392,0.111985923838,0.577639640438,1.0,0.0,0.0,0.0,1.0,0.0,0.0,0.0,1.0,-8.4340612793,4.33259033203,10.5141357422,0.1,0.0,0.0,0.0,0.1,0.0,0.0,0.0,0.1
1446036650801667411,346,1446036650798683881,robocape,39.0011686255,10.6099726271,16.617399456,0.0,10.0,0.0,0.0,0.0,10.0,0.0,0.0,0.0,10.0,0.315584589174,-0.10053433115,0.158724400969,1.0,0.0,0.0,0.0,1.0,0.0,0.0,0.0,1.0,-1.58789794922,0.552052001953,6.68928955078,0.1,0.0,0.0,0.0,0.1,0.0,0.0,0.0,0.1
1446036650835212036,347,1446036650832179069,robocape,39.6122102828,10.138961013,17.0719725726,0.0,10.0,0.0,0.0,0.0,10.0,0.0,0.0,0.0,10.0,0.398275741021,0.00798948327024,0.379100981173,1.0,0.0,0.0,0.0,1.0,0.0,0.0,0.0,1.0,-4.97565307617,6.90843383789,11.2074938965,0.1,0.0,0.0,0.0,0.1,0.0,0.0,0.0,0.1
1446036650869032828,348,1446036650865670919,robocape,39.4641009032,9.98897275063,18.1849774766,0.0,10.0,0.0,0.0,0.0,10.0,0.0,0.0,0.0,10.0,-0.0869522095911,0.344479887002,0.526506947509,1.0,0.0,0.0,0.0,1.0,0.0,0.0,0.0,1.0,-0.367635498047,5.62829589844,9.20525756836,0.1,0.0,0.0,0.0,0.1,0.0,0.0,0.0,0.1
1446036650904905995,349,1446036650901909112,robocape,38.9595819121,10.30467246,19.5124645114,0.0,10.0,0.0,0.0,0.0,10.0,0.0,0.0,0.0,10.0,-0.307595105904,0.596681242232,0.457397917221,1.0,0.0,0.0,0.0,1.0,0.0,0.0,0.0,1.0,0.481398925781,2.75307495117,12.0541333008,0.1,0.0,0.0,0.0,0.1,0.0,0.0,0.0,0.1
1446036650935589745,350,1446036650932548999,robocape,38.8032573428,9.81055164573,20.170741516,0.0,10.0,0.0,0.0,0.0,10.0,0.0,0.0,0.0,10.0,-0.0599211245268,0.0486026898939,0.462591081347,1.0,0.0,0.0,0.0,1.0,0.0,0.0,0.0,1.0,1.12446166992,0.997525634766,9.76329711914,0.1,0.0,0.0,0.0,0.1,0.0,0.0,0.0,0.1
1446036650968723245,351,1446036650965320110,robocape,39.4127600512,9.53415755177,20.6244372421,0.0,10.0,0.0,0.0,0.0,10.0,0.0,0.0,0.0,10.0,0.405865750128,0.0906806351172,0.329433026843,1.0,0.0,0.0,0.0,1.0,0.0,0.0,0.0,1.0,-2.97940429688,2.3375390625,6.89526123047,0.1,0.0,0.0,0.0,0.1,0.0,0.0,0.0,0.1
1446036651001941036,352,1446036650998920917,robocape,39.7029710209,9.66291925813,22.0093499736,0.0,10.0,0.0,0.0,0.0,10.0,0.0,0.0,0.0,10.0,0.168178622839,0.570049631331,0.572446476313,1.0,0.0,0.0,0.0,1.0,0.0,0.0,0.0,1.0,8.23647216797,6.0893371582,14.3689196777,0.1,0.0,0.0,0.0,0.1,0.0,0.0,0.0,0.1
1446036651035041745,353,1446036651032144069,robocape,39.2031812826,9.50397858,23.2633299927,0.0,10.0,0.0,0.0,0.0,10.0,0.0,0.0,0.0,10.0,-0.283493498039,0.388688361097,0.597613348614,1.0,0.0,0.0,0.0,1.0,0.0,0.0,0.0,1.0,0.640667724609,1.89206542969,9.09987670898,0.1,0.0,0.0,0.0,0.1,0.0,0.0,0.0,0.1
1446036651068373620,354,1446036651065327882,robocape,38.8724375815,9.51052660675,24.1882292971,0.0,10.0,0.0,0.0,0.0,10.0,0.0,0.0,0.0,10.0,-0.162985458713,0.347009890037,0.417983133088,1.0,0.0,0.0,0.0,1.0,0.0,0.0,0.0,1.0,-0.457448730469,0.285007324219,11.0542126465,0.1,0.0,0.0,0.0,0.1,0.0,0.0,0.0,0.1
1446036651101872495,355,1446036651098730087,robocape,39.2117144542,9.26179813305,24.7236347568,0.0,10.0,0.0,0.0,0.0,10.0,0.0,0.0,0.0,10.0,0.251269248849,0.129695945087,0.364054121014,1.0,0.0,0.0,0.0,1.0,0.0,0.0,0.0,1.0,7.16350341797,3.00574951172,8.19455932617,0.1,0.0,0.0,0.0,0.1,0.0,0.0,0.0,0.1
1446036651135238036,356,1446036651132306098,robocape,39.2606285806,8.95478952285,25.5914918182,0.0,10.0,0.0,0.0,0.0,10.0,0.0,0.0,0.0,10.0,0.0692421883421,0.21465078386,0.516919567584,1.0,0.0,0.0,0.0,1.0,0.0,0.0,0.0,1.0,3.09436523438,4.69064575195,12.9486730957,0.1,0.0,0.0,0.0,0.1,0.0,0.0,0.0,0.1
1446036651168673786,357,1446036651165326118,robocape,39.41508443,9.36809690232,26.5420308007,0.0,10.0,0.0,0.0,0.0,10.0,0.0,0.0,0.0,10.0,0.12889699676,0.541686965722,0.319179856646,1.0,0.0,0.0,0.0,1.0,0.0,0.0,0.0,1.0,5.07145385742,2.55548583984,8.64362548828,0.1,0.0,0.0,0.0,0.1,0.0,0.0,0.0,0.1
1446036651204115120,358,1446036651200961112,robocape,39.4848599813,9.17053097524,27.4636843586,0.0,10.0,0.0,0.0,0.0,10.0,0.0,0.0,0.0,10.0,0.082957467956,0.285224552747,0.511992719568,1.0,0.0,0.0,0.0,1.0,0.0,0.0,0.0,1.0,-1.61424316406,3.95896728516,11.0182873535,0.1,0.0,0.0,0.0,0.1,0.0,0.0,0.0,0.1
1446036651235296245,359,1446036651232300996,robocape,39.2871373774,8.9464252169,28.3978211174,0.0,10.0,0.0,0.0,0.0,10.0,0.0,0.0,0.0,10.0,-0.0695085044511,0.272441379515,0.521446941438,1.0,0.0,0.0,0.0,1.0,0.0,0.0,0.0,1.0,-0.692160644531,3.02490966797,10.5572460938,0.1,0.0,0.0,0.0,0.1,0.0,0.0,0.0,0.1
1446036651268668536,360,1446036651265495061,robocape,39.2493547744,8.31206862395,28.8012613967,0.0,10.0,0.0,0.0,0.0,10.0,0.0,0.0,0.0,10.0,0.0516653251475,-0.0739027202497,0.44288368928,1.0,0.0,0.0,0.0,1.0,0.0,0.0,0.0,1.0,2.01181640625,1.76393188477,6.41865234375,0.1,0.0,0.0,0.0,0.1,0.0,0.0,0.0,0.1
1446036651301976745,361,1446036651298804998,robocape,39.5525334199,8.24277744496,29.404206305,0.0,10.0,0.0,0.0,0.0,10.0,0.0,0.0,0.0,10.0,0.245809768614,0.235423440363,0.356197795798,1.0,0.0,0.0,0.0,1.0,0.0,0.0,0.0,1.0,-1.77231445313,1.10889404297,11.2793444824,0.1,0.0,0.0,0.0,0.1,0.0,0.0,0.0,0.1
1446036651335388078,362,1446036651332289934,robocape,39.7722220255,7.95613887781,30.2952247694,0.0,10.0,0.0,0.0,0.0,10.0,0.0,0.0,0.0,10.0,0.192812862922,0.250470300522,0.553937506736,1.0,0.0,0.0,0.0,1.0,0.0,0.0,0.0,1.0,3.58055419922,3.43326049805,10.6446643066,0.1,0.0,0.0,0.0,0.1,0.0,0.0,0.0,0.1
1446036651369599245,363,1446036651366413116,robocape,39.223506145,7.3665908593,31.3228923842,0.0,10.0,0.0,0.0,0.0,10.0,0.0,0.0,0.0,10.0,-0.252600829394,0.154463343225,0.688693457894,1.0,0.0,0.0,0.0,1.0,0.0,0.0,0.0,1.0,-3.86556152344,7.34911743164,9.88185058594,0.1,0.0,0.0,0.0,0.1,0.0,0.0,0.0,0.1
1446036651401732286,364,1446036651398760080,robocape,38.3420352188,7.66024111678,32.51655345,0.0,10.0,0.0,0.0,0.0,10.0,0.0,0.0,0.0,10.0,-0.453003701422,0.555402245336,0.45912897193,1.0,0.0,0.0,0.0,1.0,0.0,0.0,0.0,1.0,1.81063476563,4.51700683594,15.2275341797,0.1,0.0,0.0,0.0,0.1,0.0,0.0,0.0,0.1
1446036651436890870,365,1446036651433751106,robocape,36.6689479509,10.6479309364,35.4753482444,0.0,10.0,0.0,0.0,0.0,10.0,0.0,0.0,0.0,10.0,-1.01692806225,2.24344690228,0.354733057199,1.0,0.0,0.0,0.0,1.0,0.0,0.0,0.0,1.0,19.5613220215,2.42256225586,18.3218994141,0.1,0.0,0.0,0.0,0.1,0.0,0.0,0.0,0.1
1446036651468439995,366,1446036651465403079,robocape,34.4736203452,10.9802144908,37.9802103621,0.0,10.0,0.0,0.0,0.0,10.0,0.0,0.0,0.0,10.0,-1.31014209826,0.957273253829,1.04102967011,1.0,0.0,0.0,0.0,1.0,0.0,0.0,0.0,1.0,-6.34440673828,7.42336303711,11.7643359375,0.1,0.0,0.0,0.0,0.1,0.0,0.0,0.0,0.1
1446036651501741412,367,1446036651498817920,robocape,30.3696044413,10.8529741877,40.5581351162,0.0,10.0,0.0,0.0,0.0,10.0,0.0,0.0,0.0,10.0,-2.37913495982,0.67910607797,1.19322932641,1.0,0.0,0.0,0.0,1.0,0.0,0.0,0.0,1.0,-3.1769934082,5.2462902832,13.0061535645,0.1,0.0,0.0,0.0,0.1,0.0,0.0,0.0,0.1
1446036651536575120,368,1446036651533504962,robocape,25.2486312709,10.3792478911,42.535105245,0.0,10.0,0.0,0.0,0.0,10.0,0.0,0.0,0.0,10.0,-2.8738171323,0.256062938811,1.01772701057,1.0,0.0,0.0,0.0,1.0,0.0,0.0,0.0,1.0,-8.56698486328,2.82492553711,8.07480834961,0.1,0.0,0.0,0.0,0.1,0.0,0.0,0.0,0.1
1446036651568442537,369,1446036651565522909,robocape,19.8080797833,9.64444008988,43.6003929072,0.0,10.0,0.0,0.0,0.0,10.0,0.0,0.0,0.0,10.0,-2.95690775831,-0.156327555988,0.631302336403,1.0,0.0,0.0,0.0,1.0,0.0,0.0,0.0,1.0,-4.08231079102,0.193996582031,9.06035888672,0.1,0.0,0.0,0.0,0.1,0.0,0.0,0.0,0.1
1446036651601982828,370,1446036651598928928,robocape,15.9704127502,9.35112897786,43.7008465345,0.0,10.0,0.0,0.0,0.0,10.0,0.0,0.0,0.0,10.0,-2.01907558044,-0.130628051468,0.0957406411883,1.0,0.0,0.0,0.0,1.0,0.0,0.0,0.0,1.0,-6.34799926758,-2.94587402344,9.07353149414,0.1,0.0,0.0,0.0,0.1,0.0,0.0,0.0,0.1
1446036651636467370,371,1446036651633421897,robocape,14.5836224629,9.04375093778,42.8282078023,0.0,10.0,0.0,0.0,0.0,10.0,0.0,0.0,0.0,10.0,-0.653539731505,-0.274705066442,-0.394414157441,1.0,0.0,0.0,0.0,1.0,0.0,0.0,0.0,1.0,-4.48467407227,-3.62366455078,8.35502563477,0.1,0.0,0.0,0.0,0.1,0.0,0.0,0.0,0.1
1446036651668373662,372,1446036651665396928,robocape,15.8928362457,9.1431855915,41.4940274184,0.0,10.0,0.0,0.0,0.0,10.0,0.0,0.0,0.0,10.0,0.80121201395,-0.125035413179,-0.66166237283,1.0,0.0,0.0,0.0,1.0,0.0,0.0,0.0,1.0,0.295784912109,-2.82732055664,10.3524719238,0.1,0.0,0.0,0.0,0.1,0.0,0.0,0.0,0.1
1446036651702132120,373,1446036651698935031,robocape,18.773168499,9.02564661655,40.5895658807,0.0,10.0,0.0,0.0,0.0,10.0,0.0,0.0,0.0,10.0,1.61427509475,-0.168578097002,-0.345944625601,1.0,0.0,0.0,0.0,1.0,0.0,0.0,0.0,1.0,4.04399047852,2.02618652344,6.86532348633,0.1,0.0,0.0,0.0,0.1,0.0,0.0,0.0,0.1
1446036651736871787,374,1446036651733901023,robocape,21.3729374738,9.15000050156,40.7788049116,0.0,10.0,0.0,0.0,0.0,10.0,0.0,0.0,0.0,10.0,1.41879907074,0.159922823459,0.234225017872,1.0,0.0,0.0,0.0,1.0,0.0,0.0,0.0,1.0,-4.4415637207,3.7206628418,8.99928588867,0.1,0.0,0.0,0.0,0.1,0.0,0.0,0.0,0.1
1446036651768540745,375,1446036651765512943,robocape,22.5363065267,11.195993601,42.5439436108,0.0,10.0,0.0,0.0,0.0,10.0,0.0,0.0,0.0,10.0,0.55846488059,1.45062384577,0.689625564276,1.0,0.0,0.0,0.0,1.0,0.0,0.0,0.0,1.0,12.2816601563,6.14681762695,16.8633325195,0.1,0.0,0.0,0.0,0.1,0.0,0.0,0.0,0.1
1446036651802093412,376,1446036651798932075,robocape,21.7948949323,10.8861823721,43.7630888955,0.0,10.0,0.0,0.0,0.0,10.0,0.0,0.0,0.0,10.0,-0.444747902043,0.162452826495,0.805473071694,1.0,0.0,0.0,0.0,1.0,0.0,0.0,0.0,1.0,-7.84368896484,2.77942016602,9.75012451172,0.1,0.0,0.0,0.0,0.1,0.0,0.0,0.0,0.1
1446036651835485912,377,1446036651832179069,robocape,20.300740149,8.86667348176,44.0566829908,0.0,10.0,0.0,0.0,0.0,10.0,0.0,0.0,0.0,10.0,-0.782969360483,-0.903876873973,0.593085974761,1.0,0.0,0.0,0.0,1.0,0.0,0.0,0.0,1.0,6.35997436523,1.3064831543,9.20885009766,0.1,0.0,0.0,0.0,0.1,0.0,0.0,0.0,0.1
1446036651868427120,378,1446036651865489959,robocape,19.3297739168,10.233474032,44.395763952,0.0,10.0,0.0,0.0,0.0,10.0,0.0,0.0,0.0,10.0,-0.500940601044,0.775911983595,0.0258326625738,1.0,0.0,0.0,0.0,1.0,0.0,0.0,0.0,1.0,-11.6589550781,0.204774169922,10.5584436035,0.1,0.0,0.0,0.0,0.1,0.0,0.0,0.0,0.1
1446036651901918495,379,1446036651898761987,robocape,17.7571131189,11.2190769848,45.3967077025,0.0,10.0,0.0,0.0,0.0,10.0,0.0,0.0,0.0,10.0,-0.876845788909,0.71665664934,0.472977409598,1.0,0.0,0.0,0.0,1.0,0.0,0.0,0.0,1.0,-4.60442504883,4.73615112305,15.593972168,0.1,0.0,0.0,0.0,0.1,0.0,0.0,0.0,0.1
1446036651935725328,380,1446036651932068109,robocape,14.8489306383,10.5876386772,46.7150425572,0.0,10.0,0.0,0.0,0.0,10.0,0.0,0.0,0.0,10.0,-1.62239773608,-0.0692421883421,0.89255843934,1.0,0.0,0.0,0.0,1.0,0.0,0.0,0.0,1.0,-5.48459472656,3.21770874023,9.27231811523,0.1,0.0,0.0,0.0,0.1,0.0,0.0,0.0,0.1
1446036651968397203,381,1446036651965327978,robocape,10.6107500144,10.0496511122,47.9195758078,0.0,10.0,0.0,0.0,0.0,10.0,0.0,0.0,0.0,10.0,-2.31668383226,-0.0906806351172,0.807337284458,1.0,0.0,0.0,0.0,1.0,0.0,0.0,0.0,1.0,-5.35406616211,2.84767822266,8.95018798828,0.1,0.0,0.0,0.0,0.1,0.0,0.0,0.0,0.1
1446036652001860245,382,1446036651998960971,robocape,5.62559786889,10.3655218969,48.6826598232,0.0,10.0,0.0,0.0,0.0,10.0,0.0,0.0,0.0,10.0,-2.67993900495,0.262321367373,0.508930084314,1.0,0.0,0.0,0.0,1.0,0.0,0.0,0.0,1.0,0.395178222656,1.05740112305,11.9607275391,0.1,0.0,0.0,0.0,0.1,0.0,0.0,0.0,0.1
1446036652035066078,383,1446036652032139062,robocape,0.771717918029,10.2291204227,48.8939828356,0.0,10.0,0.0,0.0,0.0,10.0,0.0,0.0,0.0,10.0,-2.57341256134,-0.0311589847539,0.250070826358,1.0,0.0,0.0,0.0,1.0,0.0,0.0,0.0,1.0,-2.01900146484,-0.495769042969,10.4099523926,0.1,0.0,0.0,0.0,0.1,0.0,0.0,0.0,0.1
1446036652068206995,384,1446036652065326929,robocape,-3.47678722968,9.31414884452,48.7247475789,0.0,10.0,0.0,0.0,0.0,10.0,0.0,0.0,0.0,10.0,-2.22973162267,-0.454202123913,0.0243679239742,1.0,0.0,0.0,0.0,1.0,0.0,0.0,0.0,1.0,-4.75171875,-1.1112890625,5.23311767578,0.1,0.0,0.0,0.0,0.1,0.0,0.0,0.0,0.1
1446036652101855787,385,1446036652098757982,robocape,-7.06510355113,10.4238598141,47.8036861834,0.0,10.0,0.0,0.0,0.0,10.0,0.0,0.0,0.0,10.0,-1.82186850172,0.642753929091,-0.303866680378,1.0,0.0,0.0,0.0,1.0,0.0,0.0,0.0,1.0,-3.69072509766,-1.64537841797,11.6757202148,0.1,0.0,0.0,0.0,0.1,0.0,0.0,0.0,0.1
1446036652135127662,386,1446036652132203102,robocape,-9.48473311475,9.35413850965,47.3147717016,0.0,10.0,0.0,0.0,0.0,10.0,0.0,0.0,0.0,10.0,-1.25141939623,-0.505334816843,-0.227833431256,1.0,0.0,0.0,0.0,1.0,0.0,0.0,0.0,1.0,0.0431103515625,0.0167651367188,10.8410559082,0.1,0.0,0.0,0.0,0.1,0.0,0.0,0.0,0.1
1446036652168267953,387,1446036652165381908,robocape,-11.5430406451,8.93349981077,46.8140355681,0.0,10.0,0.0,0.0,0.0,10.0,0.0,0.0,0.0,10.0,-1.07298760319,-0.157792294587,-0.175635473891,1.0,0.0,0.0,0.0,1.0,0.0,0.0,0.0,1.0,-3.32428710938,-0.934057617188,7.64729736328,0.1,0.0,0.0,0.0,0.1,0.0,0.0,0.0,0.1
1446036652204195329,388,1446036652200881958,robocape,-13.5586838365,8.61865166784,46.3562533794,0.0,10.0,0.0,0.0,0.0,10.0,0.0,0.0,0.0,10.0,-1.06486496187,-0.099602224769,-0.135022267267,1.0,0.0,0.0,0.0,1.0,0.0,0.0,0.0,1.0,-1.00710571289,-0.171243896484,11.8325939941,0.1,0.0,0.0,0.0,0.1,0.0,0.0,0.0,0.1
1446036652235007287,389,1446036652232073068,robocape,-15.4443358024,8.01183436403,45.9345021829,0.0,10.0,0.0,0.0,0.0,10.0,0.0,0.0,0.0,10.0,-1.0053433115,-0.24687503305,-0.162053352331,1.0,0.0,0.0,0.0,1.0,0.0,0.0,0.0,1.0,-1.08973388672,-0.149688720703,7.18386108398,0.1,0.0,0.0,0.0,0.1,0.0,0.0,0.0,0.1
1446036652268457329,390,1446036652265453100,robocape,-17.6174104495,7.90670497805,45.3524550746,0.0,10.0,0.0,0.0,0.0,10.0,0.0,0.0,0.0,10.0,-1.15780928391,0.0375505713701,-0.160189139568,1.0,0.0,0.0,0.0,1.0,0.0,0.0,0.0,1.0,-0.717308349609,-0.247884521484,10.1644628906,0.1,0.0,0.0,0.0,0.1,0.0,0.0,0.0,0.1
1446036652301740954,391,1446036652298712968,robocape,-19.9592340601,7.92275905364,44.6472744563,0.0,10.0,0.0,0.0,0.0,10.0,0.0,0.0,0.0,10.0,-1.24888939319,0.128098048433,-0.190948650159,1.0,0.0,0.0,0.0,1.0,0.0,0.0,0.0,1.0,-0.346080322266,-1.15200439453,10.0902172852,0.1,0.0,0.0,0.0,0.1,0.0,0.0,0.0,0.1
1446036652335247037,392,1446036652332228899,robocape,-21.6813592832,8.00603853083,43.25143093,0.0,10.0,0.0,0.0,0.0,10.0,0.0,0.0,0.0,10.0,-0.838629427266,0.298407200143,-0.588958075071,1.0,0.0,0.0,0.0,1.0,0.0,0.0,0.0,1.0,-2.01181640625,-3.6057019043,11.3883178711,0.1,0.0,0.0,0.0,0.1,0.0,0.0,0.0,0.1
1446036652368245495,393,1446036652365298032,robocape,-21.9389075585,8.32018734516,41.0591697519,0.0,10.0,0.0,0.0,0.0,10.0,0.0,0.0,0.0,10.0,0.0567253312187,0.57444384713,-1.04529072786,1.0,0.0,0.0,0.0,1.0,0.0,0.0,0.0,1.0,-2.63332397461,-4.93853027344,14.730567627,0.1,0.0,0.0,0.0,0.1,0.0,0.0,0.0,0.1
