%time,field.header.seq,field.header.stamp,field.header.frame_id,field.orientation.x,field.orientation.y,field.orientation.z,field.orientation.w,field.orientation_covariance0,field.orientation_covariance1,field.orientation_covariance2,field.orientation_covariance3,field.orientation_covariance4,field.orientation_covariance5,field.orientation_covariance6,field.orientation_covariance7,field.orientation_covariance8,field.angular_velocity.x,field.angular_velocity.y,field.angular_velocity.z,field.angular_velocity_covariance0,field.angular_velocity_covariance1,field.angular_velocity_covariance2,field.angular_velocity_covariance3,field.angular_velocity_covariance4,field.angular_velocity_covariance5,field.angular_velocity_covariance6,field.angular_velocity_covariance7,field.angular_velocity_covariance8,field.linear_acceleration.x,field.linear_acceleration.y,field.linear_acceleration.z,field.linear_acceleration_covariance0,field.linear_acceleration_covariance1,field.linear_acceleration_covariance2,field.linear_acceleration_covariance3,field.linear_acceleration_covariance4,field.linear_acceleration_covariance5,field.linear_acceleration_covariance6,field.linear_acceleration_covariance7,field.linear_acceleration_covariance8
1446036911805794782,1,1446036911802615880,robocape,-6.34422712311,13.6272417078,24.7324313604,0.0,10.0,0.0,0.0,0.0,10.0,0.0,0.0,0.0,10.0,-0.254731358266,0.00266316109008,0.0953411670248,1.0,0.0,0.0,0.0,1.0,0.0,0.0,0.0,1.0,-0.0646655273438,-2.36388427734,9.94771362305,0.1,0.0,0.0,0.0,0.1,0.0,0.0,0.0,0.1
1446036911836456407,2,1446036911833182096,robocape,-6.36022744633,13.626756374,24.7057564085,0.0,10.0,0.0,0.0,0.0,10.0,0.0,0.0,0.0,10.0,-0.0173105470855,0.0173105470855,0.0202400242846,1.0,0.0,0.0,0.0,1.0,0.0,0.0,0.0,1.0,0.259859619141,-2.35789672852,10.0051940918,0.1,0.0,0.0,0.0,0.1,0.0,0.0,0.0,0.1
1446036911874899782,3,1446036911866300106,robocape,-5.95227755734,13.6350152159,24.5252824278,0.0,10.0,0.0,0.0,0.0,10.0,0.0,0.0,0.0,10.0,0.227034482929,0.0263652947918,-0.0653806047614,1.0,0.0,0.0,0.0,1.0,0.0,0.0,0.0,1.0,0.102985839844,-2.17827026367,9.93933105469,0.1,0.0,0.0,0.0,0.1,0.0,0.0,0.0,0.1
1446036911903217282,4,1446036911900254964,robocape,-5.53371365763,13.6501069787,24.3079277569,0.0,10.0,0.0,0.0,0.0,10.0,0.0,0.0,0.0,10.0,0.237953443399,0.0307595105904,-0.085087996828,1.0,0.0,0.0,0.0,1.0,0.0,0.0,0.0,1.0,-0.235909423828,0.866997070313,10.193203125,0.1,0.0,0.0,0.0,0.1,0.0,0.0,0.0,0.1
1446036911936930907,5,1446036911933696031,robocape,-5.46921932303,13.6448252936,24.1990377265,0.0,10.0,0.0,0.0,0.0,10.0,0.0,0.0,0.0,10.0,0.0374174133156,0.017177389031,-0.0259658206283,1.0,0.0,0.0,0.0,1.0,0.0,0.0,0.0,1.0,0.0514929199219,-1.36037109375,10.0662670898,0.1,0.0,0.0,0.0,0.1,0.0,0.0,0.0,0.1
1446036911969356616,6,1446036911966417074,robocape,-5.23164467861,13.6248720683,23.8104660993,0.0,10.0,0.0,0.0,0.0,10.0,0.0,0.0,0.0,10.0,0.165781777857,0.018242653467,-0.177632844708,1.0,0.0,0.0,0.0,1.0,0.0,0.0,0.0,1.0,-0.117355957031,0.113763427734,9.9980090332,0.1,0.0,0.0,0.0,0.1,0.0,0.0,0.0,0.1
1446036912003076782,7,1446036912000096082,robocape,-5.63432718684,13.5940130321,23.7422164807,0.0,10.0,0.0,0.0,0.0,10.0,0.0,0.0,0.0,10.0,-0.213718677479,0.00386158358061,-0.0033289513626,1.0,0.0,0.0,0.0,1.0,0.0,0.0,0.0,1.0,-0.15328125,1.12805419922,10.0722546387,0.1,0.0,0.0,0.0,0.1,0.0,0.0,0.0,0.1
1446036912036175324,8,1446036912033225059,robocape,-6.41280593188,13.5638670334,24.0135596438,0.0,10.0,0.0,0.0,0.0,10.0,0.0,0.0,0.0,10.0,-0.457797391385,-0.00785632521573,0.180695479962,1.0,0.0,0.0,0.0,1.0,0.0,0.0,0.0,1.0,-0.180823974609,-0.847836914063,10.1069824219,0.1,0.0,0.0,0.0,0.1,0.0,0.0,0.0,0.1
1446036912069324449,9,1446036912066345930,robocape,-6.76056045053,13.5431337397,24.1444862148,0.0,10.0,0.0,0.0,0.0,10.0,0.0,0.0,0.0,10.0,-0.213186045261,0.000532632218016,0.104129598622,1.0,0.0,0.0,0.0,1.0,0.0,0.0,0.0,1.0,0.347277832031,-3.09556274414,9.91538085938,0.1,0.0,0.0,0.0,0.1,0.0,0.0,0.0,0.1
1446036912102523741,10,1446036912099472045,robocape,-6.41025444936,13.5560823135,23.996266166,0.0,10.0,0.0,0.0,0.0,10.0,0.0,0.0,0.0,10.0,0.192013914595,0.0279631914458,-0.0482032157304,1.0,0.0,0.0,0.0,1.0,0.0,0.0,0.0,1.0,0.243094482422,-3.39613769531,9.89382568359,0.1,0.0,0.0,0.0,0.1,0.0,0.0,0.0,0.1
1446036912136860866,11,1446036912133660078,robocape,-5.59780627183,13.5799068757,23.5844640531,0.0,10.0,0.0,0.0,0.0,10.0,0.0,0.0,0.0,10.0,0.470980038781,0.0416784710597,-0.192413388758,1.0,0.0,0.0,0.0,1.0,0.0,0.0,0.0,1.0,-0.0371228027344,-0.683778076172,10.1309326172,0.1,0.0,0.0,0.0,0.1,0.0,0.0,0.0,0.1
1446036912169657282,12,1446036912166398048,robocape,-5.1336616038,13.5971812477,23.5604347155,0.0,10.0,0.0,0.0,0.0,10.0,0.0,0.0,0.0,10.0,0.237154495072,0.0239684498107,0.015845808486,1.0,0.0,0.0,0.0,1.0,0.0,0.0,0.0,1.0,-0.312550048828,0.925675048828,10.0459094238,0.1,0.0,0.0,0.0,0.1,0.0,0.0,0.0,0.1
1446036912203084532,13,1446036912199904918,robocape,-5.14067205996,13.6042432402,23.6423409047,0.0,10.0,0.0,0.0,0.0,10.0,0.0,0.0,0.0,10.0,-0.0246342400832,0.0170442309765,0.0752343007947,1.0,0.0,0.0,0.0,1.0,0.0,0.0,0.0,1.0,0.126936035156,-0.829874267578,9.98363891602,0.1,0.0,0.0,0.0,0.1,0.0,0.0,0.0,0.1
1446036912236167949,14,1446036912232943058,robocape,-5.06404405336,13.5892139195,23.4011360541,0.0,10.0,0.0,0.0,0.0,10.0,0.0,0.0,0.0,10.0,0.0619184953443,0.0157126504315,-0.0985369603329,1.0,0.0,0.0,0.0,1.0,0.0,0.0,0.0,1.0,-0.0742456054688,-0.176033935547,10.0578845215,0.1,0.0,0.0,0.0,0.1,0.0,0.0,0.0,0.1
1446036912269768574,15,1446036912266191005,robocape,-5.40245039011,13.5670810801,23.3882886963,0.0,10.0,0.0,0.0,0.0,10.0,0.0,0.0,0.0,10.0,-0.186687592415,0.00599211245268,0.0251668723012,1.0,0.0,0.0,0.0,1.0,0.0,0.0,0.0,1.0,-0.0586779785156,0.290994873047,10.1033898926,0.1,0.0,0.0,0.0,0.1,0.0,0.0,0.0,0.1
1446036912303208907,16,1446036912299676895,robocape,-6.05274791911,13.5503902535,23.7102779068,0.0,10.0,0.0,0.0,0.0,10.0,0.0,0.0,0.0,10.0,-0.396012054095,-0.00279631914458,0.206261826427,1.0,0.0,0.0,0.0,1.0,0.0,0.0,0.0,1.0,-0.176033935547,-1.63220581055,10.1237475586,0.1,0.0,0.0,0.0,0.1,0.0,0.0,0.0,0.1
1446036912336368949,17,1446036912332894086,robocape,-6.30361930626,13.5461672248,23.9027702522,0.0,10.0,0.0,0.0,0.0,10.0,0.0,0.0,0.0,10.0,-0.169377045329,0.00652474467069,0.136220689758,1.0,0.0,0.0,0.0,1.0,0.0,0.0,0.0,1.0,0.331710205078,-2.91354125977,9.91897338867,0.1,0.0,0.0,0.0,0.1,0.0,0.0,0.0,0.1
1446036912370091824,18,1446036912366077899,robocape,-5.97438689826,13.5646815946,23.728751759,0.0,10.0,0.0,0.0,0.0,10.0,0.0,0.0,0.0,10.0,0.184823379651,0.0315584589174,-0.0619184953443,1.0,0.0,0.0,0.0,1.0,0.0,0.0,0.0,1.0,0.166453857422,-2.95665161133,9.9213684082,0.1,0.0,0.0,0.0,0.1,0.0,0.0,0.0,0.1
1446036912403180324,19,1446036912399807929,robocape,-5.47575222169,13.5911211814,23.6499737596,0.0,10.0,0.0,0.0,0.0,10.0,0.0,0.0,0.0,10.0,0.262055051264,0.0307595105904,-0.0126500151779,1.0,0.0,0.0,0.0,1.0,0.0,0.0,0.0,1.0,-0.161663818359,0.464633789063,10.1285375977,0.1,0.0,0.0,0.0,0.1,0.0,0.0,0.0,0.1
1446036912436468032,20,1446036912433057069,robocape,-5.27168294206,13.6196937739,23.8731679468,0.0,10.0,0.0,0.0,0.0,10.0,0.0,0.0,0.0,10.0,0.0675111336335,0.0223705531567,0.150468601589,1.0,0.0,0.0,0.0,1.0,0.0,0.0,0.0,1.0,-0.0538879394531,-0.655037841797,10.0770446777,0.1,0.0,0.0,0.0,0.1,0.0,0.0,0.0,0.1
1446036912469326324,21,1446036912466247081,robocape,-5.08395730413,13.6388914918,24.0433058759,0.0,10.0,0.0,0.0,0.0,10.0,0.0,0.0,0.0,10.0,0.066046395034,0.0198405501211,0.122239094035,1.0,0.0,0.0,0.0,1.0,0.0,0.0,0.0,1.0,-0.0203576660156,-0.790356445313,10.0638720703,0.1,0.0,0.0,0.0,0.1,0.0,0.0,0.0,0.1
1446036912503335491,22,1446036912500013113,robocape,-4.74744648895,13.6497984703,23.9500098184,0.0,10.0,0.0,0.0,0.0,10.0,0.0,0.0,0.0,10.0,0.179363899417,0.0235689756472,-0.0195742340121,1.0,0.0,0.0,0.0,1.0,0.0,0.0,0.0,1.0,-0.0131726074219,-1.07177124023,10.0315393066,0.1,0.0,0.0,0.0,0.1,0.0,0.0,0.0,0.1
1446036912536231074,23,1446036912533155918,robocape,-4.49878113285,13.6361304922,23.7135749819,0.0,10.0,0.0,0.0,0.0,10.0,0.0,0.0,0.0,10.0,0.152332814353,0.0147805440499,-0.0968059056244,1.0,0.0,0.0,0.0,1.0,0.0,0.0,0.0,1.0,0.00838256835938,0.961600341797,10.0171691895,0.1,0.0,0.0,0.0,0.1,0.0,0.0,0.0,0.1
1446036912569411491,24,1446036912566363096,robocape,-4.74407500298,13.63004429,23.8736645057,0.0,10.0,0.0,0.0,0.0,10.0,0.0,0.0,0.0,10.0,-0.15965650735,0.00932106381528,0.117978036291,1.0,0.0,0.0,0.0,1.0,0.0,0.0,0.0,1.0,-0.0934057617188,-0.4215234375,10.1884130859,0.1,0.0,0.0,0.0,0.1,0.0,0.0,0.0,0.1
1446036912604047782,25,1446036912600759983,robocape,-4.92568114345,13.6208222703,23.879606905,0.0,10.0,0.0,0.0,0.0,10.0,0.0,0.0,0.0,10.0,-0.106260127494,0.0118510668509,0.0356863586071,1.0,0.0,0.0,0.0,1.0,0.0,0.0,0.0,1.0,-0.009580078125,-1.48371459961,10.0578845215,0.1,0.0,0.0,0.0,0.1,0.0,0.0,0.0,0.1
1446036912638439199,26,1446036912635221958,robocape,-4.79424963995,13.6060503474,23.5004651032,0.0,10.0,0.0,0.0,0.0,10.0,0.0,0.0,0.0,10.0,0.109056446639,0.0194410759576,-0.172040206419,1.0,0.0,0.0,0.0,1.0,0.0,0.0,0.0,1.0,0.0490979003906,-1.02985839844,10.0842297363,0.1,0.0,0.0,0.0,0.1,0.0,0.0,0.0,0.1
1446036912670769658,27,1446036912667738914,robocape,-5.0400016058,13.5975269048,23.5497765673,0.0,10.0,0.0,0.0,0.0,10.0,0.0,0.0,0.0,10.0,-0.145674911627,0.0109189604693,0.0584563859272,1.0,0.0,0.0,0.0,1.0,0.0,0.0,0.0,1.0,-0.119750976563,-0.869392089844,10.0447119141,0.1,0.0,0.0,0.0,0.1,0.0,0.0,0.0,0.1
1446036912703592449,28,1446036912700370073,robocape,-4.96809876621,13.5806460954,23.2589840715,0.0,10.0,0.0,0.0,0.0,10.0,0.0,0.0,0.0,10.0,0.066046395034,0.016112124595,-0.125168571234,1.0,0.0,0.0,0.0,1.0,0.0,0.0,0.0,1.0,0.0814306640625,-0.992735595703,10.0171691895,0.1,0.0,0.0,0.0,0.1,0.0,0.0,0.0,0.1
1446036912737717991,29,1446036912734572887,robocape,-5.17594215489,13.5724919164,23.2911593473,0.0,10.0,0.0,0.0,0.0,10.0,0.0,0.0,0.0,10.0,-0.12357067458,0.0113184346328,0.0486026898939,1.0,0.0,0.0,0.0,1.0,0.0,0.0,0.0,1.0,-0.126936035156,-0.822689208984,10.0459094238,0.1,0.0,0.0,0.0,0.1,0.0,0.0,0.0,0.1
1446036912771176324,30,1446036912768022060,robocape,-5.06567121887,13.5639318686,23.0021656144,0.0,10.0,0.0,0.0,0.0,10.0,0.0,0.0,0.0,10.0,0.0858869451551,0.0205063403936,-0.124369622907,1.0,0.0,0.0,0.0,1.0,0.0,0.0,0.0,1.0,0.135318603516,-1.36875366211,10.0339343262,0.1,0.0,0.0,0.0,0.1,0.0,0.0,0.0,0.1
1446036912805366866,31,1446036912801616907,robocape,-5.22590034755,13.5628556542,23.143485543,0.0,10.0,0.0,0.0,0.0,10.0,0.0,0.0,0.0,10.0,-0.112784872165,0.0110521185238,0.10612696944,1.0,0.0,0.0,0.0,1.0,0.0,0.0,0.0,1.0,-0.142503662109,-0.45984375,10.0171691895,0.1,0.0,0.0,0.0,0.1,0.0,0.0,0.0,0.1
1446036912838576033,32,1446036912835220098,robocape,-4.99626484684,13.5581208521,22.9025932651,0.0,10.0,0.0,0.0,0.0,10.0,0.0,0.0,0.0,10.0,0.142479118319,0.0203731823391,-0.0997353828235,1.0,0.0,0.0,0.0,1.0,0.0,0.0,0.0,1.0,0.104183349609,-0.693358154297,10.0650695801,0.1,0.0,0.0,0.0,0.1,0.0,0.0,0.0,0.1
1446036912875078783,33,1446036912871390104,robocape,-5.1023430555,13.566693602,23.0616439605,0.0,10.0,0.0,0.0,0.0,10.0,0.0,0.0,0.0,10.0,-0.0864195773731,0.0154463343225,0.115448033255,1.0,0.0,0.0,0.0,1.0,0.0,0.0,0.0,1.0,-0.116158447266,-1.00111816406,10.0435144043,0.1,0.0,0.0,0.0,0.1,0.0,0.0,0.0,0.1
1446036912904930699,34,1446036912901226997,robocape,-4.86170449515,13.5622003168,22.835722357,0.0,10.0,0.0,0.0,0.0,10.0,0.0,0.0,0.0,10.0,0.146473859954,0.0197073920666,-0.0920122156622,1.0,0.0,0.0,0.0,1.0,0.0,0.0,0.0,1.0,0.101788330078,-0.694555664063,10.0674645996,0.1,0.0,0.0,0.0,0.1,0.0,0.0,0.0,0.1
1446036912938283199,35,1446036912934971094,robocape,-4.96188726087,13.5724505769,23.0111474907,0.0,10.0,0.0,0.0,0.0,10.0,0.0,0.0,0.0,10.0,-0.0852211548825,0.0159789665405,0.123970148743,1.0,0.0,0.0,0.0,1.0,0.0,0.0,0.0,1.0,-0.13412109375,-0.513731689453,10.0650695801,0.1,0.0,0.0,0.0,0.1,0.0,0.0,0.0,0.1
1446036912972675533,36,1446036912969429969,robocape,-4.81263600983,13.5633456894,22.6878058096,0.0,10.0,0.0,0.0,0.0,10.0,0.0,0.0,0.0,10.0,0.111186975511,0.0205063403936,-0.143411224701,1.0,0.0,0.0,0.0,1.0,0.0,0.0,0.0,1.0,0.0993933105469,-1.53520751953,10.0004040527,0.1,0.0,0.0,0.0,0.1,0.0,0.0,0.0,0.1
1446036913008096491,37,1446036913003758907,robocape,-4.68097755306,13.5433848814,22.3286605132,0.0,10.0,0.0,0.0,0.0,10.0,0.0,0.0,0.0,10.0,0.106792759712,0.0154463343225,-0.163384932876,1.0,0.0,0.0,0.0,1.0,0.0,0.0,0.0,1.0,-0.028740234375,0.104183349609,10.0518969727,0.1,0.0,0.0,0.0,0.1,0.0,0.0,0.0,0.1
1446036913039615991,38,1446036913035813093,robocape,-4.89603651389,13.5148014194,22.1593409023,0.0,10.0,0.0,0.0,0.0,10.0,0.0,0.0,0.0,10.0,-0.100268015041,0.00639158661619,-0.0615190211808,1.0,0.0,0.0,0.0,1.0,0.0,0.0,0.0,1.0,-0.05748046875,0.197589111328,10.0387243652,0.1,0.0,0.0,0.0,0.1,0.0,0.0,0.0,0.1
1446036913073486033,39,1446036913070424079,robocape,-5.2972093465,13.4824195451,22.0654547548,0.0,10.0,0.0,0.0,0.0,10.0,0.0,0.0,0.0,10.0,-0.208392355299,0.00292947719909,-0.0207726565026,1.0,0.0,0.0,0.0,1.0,0.0,0.0,0.0,1.0,-0.076640625,-0.819096679688,10.0782421875,0.1,0.0,0.0,0.0,0.1,0.0,0.0,0.0,0.1
1446036913108821866,40,1446036913105217933,robocape,-5.64007930694,13.4473177102,21.9590866563,0.0,10.0,0.0,0.0,0.0,10.0,0.0,0.0,0.0,10.0,-0.176567580272,0.00199737081756,-0.0279631914458,1.0,0.0,0.0,0.0,1.0,0.0,0.0,0.0,1.0,0.0275427246094,-1.48610961914,10.0315393066,0.1,0.0,0.0,0.0,0.1,0.0,0.0,0.0,0.1
1446036913141106491,41,1446036913136903047,robocape,-5.80352532946,13.425404531,21.8537315188,0.0,10.0,0.0,0.0,0.0,10.0,0.0,0.0,0.0,10.0,-0.0825579937925,0.00838895743375,-0.0279631914458,1.0,0.0,0.0,0.0,1.0,0.0,0.0,0.0,1.0,0.0371228027344,-1.60466308594,10.0770446777,0.1,0.0,0.0,0.0,0.1,0.0,0.0,0.0,0.1
1446036913173221991,42,1446036913169737100,robocape,-5.78688180354,13.4209755046,21.7911097742,0.0,10.0,0.0,0.0,0.0,10.0,0.0,0.0,0.0,10.0,0.0066579027252,0.0151800182135,-0.00572579634367,1.0,0.0,0.0,0.0,1.0,0.0,0.0,0.0,1.0,0.0898132324219,-1.55915771484,10.0255517578,0.1,0.0,0.0,0.0,0.1,0.0,0.0,0.0,0.1
1446036913206913533,43,1446036913203319072,robocape,-5.64343488771,13.4294441077,21.7513796917,0.0,10.0,0.0,0.0,0.0,10.0,0.0,0.0,0.0,10.0,0.0705737688871,0.0205063403936,0.00612527050718,1.0,0.0,0.0,0.0,1.0,0.0,0.0,0.0,1.0,0.0586779785156,-1.39749389648,10.0375268555,0.1,0.0,0.0,0.0,0.1,0.0,0.0,0.0,0.1
1446036913241107699,44,1446036913237894058,robocape,-5.41093452316,13.4436643664,21.7074185208,0.0,10.0,0.0,0.0,0.0,10.0,0.0,0.0,0.0,10.0,0.1182443524,0.0233026595382,0.0034621094171,1.0,0.0,0.0,0.0,1.0,0.0,0.0,0.0,1.0,0.028740234375,-1.01189575195,10.075847168,0.1,0.0,0.0,0.0,0.1,0.0,0.0,0.0,0.1
1446036913273497533,45,1446036913270212888,robocape,-5.18783652954,13.4615598858,21.7178435356,0.0,10.0,0.0,0.0,0.0,10.0,0.0,0.0,0.0,10.0,0.106526443603,0.0233026595382,0.0323574072445,1.0,0.0,0.0,0.0,1.0,0.0,0.0,0.0,1.0,-0.00718505859375,-0.334105224609,10.0447119141,0.1,0.0,0.0,0.0,0.1,0.0,0.0,0.0,0.1
1446036913306537824,46,1446036913302990913,robocape,-5.29299610174,13.4936450487,22.0404600476,0.0,10.0,0.0,0.0,0.0,10.0,0.0,0.0,0.0,10.0,-0.106792759712,0.0211721306661,0.200669188137,1.0,0.0,0.0,0.0,1.0,0.0,0.0,0.0,1.0,-0.167651367188,-1.00111816406,10.0566870117,0.1,0.0,0.0,0.0,0.1,0.0,0.0,0.0,0.1
1446036913339848533,47,1446036913335947036,robocape,-5.06617671829,13.5147854632,21.9754192298,0.0,10.0,0.0,0.0,0.0,10.0,0.0,0.0,0.0,10.0,0.1182443524,0.0278300333913,-0.0067910607797,1.0,0.0,0.0,0.0,1.0,0.0,0.0,0.0,1.0,0.196391601563,-1.74836425781,10.0207617188,0.1,0.0,0.0,0.0,0.1,0.0,0.0,0.0,0.1
1446036913372682408,48,1446036913369416952,robocape,-4.71564152482,13.5290203416,21.8814727815,0.0,10.0,0.0,0.0,0.0,10.0,0.0,0.0,0.0,10.0,0.187486540742,0.0245010820287,-0.0235689756472,1.0,0.0,0.0,0.0,1.0,0.0,0.0,0.0,1.0,-0.111368408203,-0.690963134766,10.039921875,0.1,0.0,0.0,0.0,0.1,0.0,0.0,0.0,0.1
1446036913405893491,49,1446036913402535915,robocape,-4.47294663504,13.5346505914,21.7489666932,0.0,10.0,0.0,0.0,0.0,10.0,0.0,0.0,0.0,10.0,0.136087531703,0.0213052887206,-0.0439421579863,1.0,0.0,0.0,0.0,1.0,0.0,0.0,0.0,1.0,-0.0371228027344,-0.143701171875,10.0890197754,0.1,0.0,0.0,0.0,0.1,0.0,0.0,0.0,0.1
1446036913440569075,50,1446036913436379909,robocape,-4.47366041394,13.5312000581,21.6801528704,0.0,10.0,0.0,0.0,0.0,10.0,0.0,0.0,0.0,10.0,0.0,0.0154463343225,-0.00945422186978,1.0,0.0,0.0,0.0,1.0,0.0,0.0,0.0,1.0,-0.067060546875,0.0730480957031,10.0279467773,0.1,0.0,0.0,0.0,0.1,0.0,0.0,0.0,0.1
1446036913472537741,51,1446036913469264030,robocape,-4.67721302644,13.518941913,21.64631523,0.0,10.0,0.0,0.0,0.0,10.0,0.0,0.0,0.0,10.0,-0.111320133565,0.0105194863058,0.00972053797879,1.0,0.0,0.0,0.0,1.0,0.0,0.0,0.0,1.0,0.00838256835938,-0.258662109375,10.0530944824,0.1,0.0,0.0,0.0,0.1,0.0,0.0,0.0,0.1
1446036913506392825,52,1446036913502855062,robocape,-4.95077056572,13.4988881787,21.5879874118,0.0,10.0,0.0,0.0,0.0,10.0,0.0,0.0,0.0,10.0,-0.145275437464,0.00745685105222,-0.0031957933081,1.0,0.0,0.0,0.0,1.0,0.0,0.0,0.0,1.0,-0.047900390625,-0.8813671875,10.0746496582,0.1,0.0,0.0,0.0,0.1,0.0,0.0,0.0,0.1
1446036913539415325,53,1446036913536328077,robocape,-5.14789454781,13.4845535654,21.5345126283,0.0,10.0,0.0,0.0,0.0,10.0,0.0,0.0,0.0,10.0,-0.105993811385,0.0101200121423,-0.000798948327024,1.0,0.0,0.0,0.0,1.0,0.0,0.0,0.0,1.0,0.0395178222656,-1.21187988281,10.080637207,0.1,0.0,0.0,0.0,0.1,0.0,0.0,0.0,0.1
1446036913572158200,54,1446036913568876028,robocape,-5.1930036149,13.4799343771,21.4786670068,0.0,10.0,0.0,0.0,0.0,10.0,0.0,0.0,0.0,10.0,-0.0258326625738,0.0147805440499,-0.00253000303558,1.0,0.0,0.0,0.0,1.0,0.0,0.0,0.0,1.0,0.0586779785156,-1.50766479492,10.0590820312,0.1,0.0,0.0,0.0,0.1,0.0,0.0,0.0,0.1
1446036913605347158,55,1446036913602191925,robocape,-5.14826792002,13.487007723,21.5289554665,0.0,10.0,0.0,0.0,0.0,10.0,0.0,0.0,0.0,10.0,0.00772316716123,0.016911072922,0.0535295379106,1.0,0.0,0.0,0.0,1.0,0.0,0.0,0.0,1.0,0.0263452148438,-1.87530029297,10.0291442871,0.1,0.0,0.0,0.0,0.1,0.0,0.0,0.0,0.1
1446036913638298491,56,1446036913634308099,robocape,-5.06128893509,13.5113049351,21.6799744777,0.0,10.0,0.0,0.0,0.0,10.0,0.0,0.0,0.0,10.0,0.016911072922,0.0225037112112,0.107591708039,1.0,0.0,0.0,0.0,1.0,0.0,0.0,0.0,1.0,0.0383203125,-0.682580566406,10.1081799316,0.1,0.0,0.0,0.0,0.1,0.0,0.0,0.0,0.1
1446036913670613116,57,1446036913667464017,robocape,-4.74946935681,13.541226769,21.8300179851,0.0,10.0,0.0,0.0,0.0,10.0,0.0,0.0,0.0,10.0,0.135554899485,0.0250337142467,0.10612696944,1.0,0.0,0.0,0.0,1.0,0.0,0.0,0.0,1.0,0.0562829589844,-2.20820800781,10.0363293457,0.1,0.0,0.0,0.0,0.1,0.0,0.0,0.0,0.1
1446036913704029408,58,1446036913700886964,robocape,-4.19949358324,13.5634724566,21.6663648947,0.0,10.0,0.0,0.0,0.0,10.0,0.0,0.0,0.0,10.0,0.30186930956,0.0296942461544,-0.0616521792353,1.0,0.0,0.0,0.0,1.0,0.0,0.0,0.0,1.0,0.00838256835938,-0.389190673828,10.0902172852,0.1,0.0,0.0,0.0,0.1,0.0,0.0,0.0,0.1
1446036913737515075,59,1446036913734074115,robocape,-3.8178647355,13.5581999943,21.5194750805,0.0,10.0,0.0,0.0,0.0,10.0,0.0,0.0,0.0,10.0,0.211721306661,0.0147805440499,-0.0533963798561,1.0,0.0,0.0,0.0,1.0,0.0,0.0,0.0,1.0,-0.0395178222656,0.221539306641,10.0351318359,0.1,0.0,0.0,0.0,0.1,0.0,0.0,0.0,0.1
1446036913772275825,60,1446036913769208908,robocape,-3.83863848101,13.5551224221,21.4694875525,0.0,10.0,0.0,0.0,0.0,10.0,0.0,0.0,0.0,10.0,-0.0121173829599,0.0149137021044,0.0,1.0,0.0,0.0,0.0,1.0,0.0,0.0,0.0,1.0,-0.0526904296875,0.359252929688,10.0123791504,0.1,0.0,0.0,0.0,0.1,0.0,0.0,0.0,0.1
1446036913803558241,61,1446036913800458908,robocape,-4.11266058221,13.5492494004,21.4388583552,0.0,10.0,0.0,0.0,0.0,10.0,0.0,0.0,0.0,10.0,-0.147938598554,0.0138484376684,0.0114515926873,1.0,0.0,0.0,0.0,1.0,0.0,0.0,0.0,1.0,-0.0383203125,0.111368408203,10.0854272461,0.1,0.0,0.0,0.0,0.1,0.0,0.0,0.0,0.1
1446036913836261616,62,1446036913833137989,robocape,-4.47001094287,13.5273747066,21.368134558,0.0,10.0,0.0,0.0,0.0,10.0,0.0,0.0,0.0,10.0,-0.186953908524,0.0067910607797,-0.0099868540878,1.0,0.0,0.0,0.0,1.0,0.0,0.0,0.0,1.0,-0.0311352539063,-0.553249511719,10.0530944824,0.1,0.0,0.0,0.0,0.1,0.0,0.0,0.0,0.1
1446036913869734241,63,1446036913866709947,robocape,-4.89215616199,13.5089335144,21.376648477,0.0,10.0,0.0,0.0,0.0,10.0,0.0,0.0,0.0,10.0,-0.231828172891,0.0066579027252,0.032490565299,1.0,0.0,0.0,0.0,1.0,0.0,0.0,0.0,1.0,-0.009580078125,-0.700543212891,10.1177600098,0.1,0.0,0.0,0.0,0.1,0.0,0.0,0.0,0.1
1446036913903084366,64,1446036913899888038,robocape,-5.13552444586,13.4984169613,21.5145697273,0.0,10.0,0.0,0.0,0.0,10.0,0.0,0.0,0.0,10.0,-0.154995975443,0.00585895439817,0.100401173096,1.0,0.0,0.0,0.0,1.0,0.0,0.0,0.0,1.0,0.0802331542969,-3.16621582031,10.0303417969,0.1,0.0,0.0,0.0,0.1,0.0,0.0,0.0,0.1
1446036913935988366,65,1446036913932959079,robocape,-4.80722407736,13.5118853406,21.3593089861,0.0,10.0,0.0,0.0,0.0,10.0,0.0,0.0,0.0,10.0,0.183758115215,0.0260989786828,-0.0565921731642,1.0,0.0,0.0,0.0,1.0,0.0,0.0,0.0,1.0,0.199984130859,-1.55796020508,10.080637207,0.1,0.0,0.0,0.0,0.1,0.0,0.0,0.0,0.1
1446036913969855283,66,1446036913966819047,robocape,-4.39415577078,13.5290989924,21.2494579488,0.0,10.0,0.0,0.0,0.0,10.0,0.0,0.0,0.0,10.0,0.22290658324,0.0259658206283,-0.033289513626,1.0,0.0,0.0,0.0,1.0,0.0,0.0,0.0,1.0,-0.116158447266,-1.04183349609,10.0830322266,0.1,0.0,0.0,0.0,0.1,0.0,0.0,0.0,0.1
1446036914002747825,67,1446036913999658107,robocape,-4.17227694304,13.549226079,21.3094835079,0.0,10.0,0.0,0.0,0.0,10.0,0.0,0.0,0.0,10.0,0.100800647259,0.0234358175927,0.0575242795457,1.0,0.0,0.0,0.0,1.0,0.0,0.0,0.0,1.0,-0.0047900390625,0.265847167969,10.0997973633,0.1,0.0,0.0,0.0,0.1,0.0,0.0,0.0,0.1
1446036914036249033,68,1446036914033195018,robocape,-4.05729461326,13.576334597,21.5489059942,0.0,10.0,0.0,0.0,0.0,10.0,0.0,0.0,0.0,10.0,0.0215716048296,0.0231695014837,0.153398078789,1.0,0.0,0.0,0.0,1.0,0.0,0.0,0.0,1.0,0.126936035156,-1.69088378906,10.0866247559,0.1,0.0,0.0,0.0,0.1,0.0,0.0,0.0,0.1
1446036914069561658,69,1446036914066315889,robocape,-3.67386478517,13.5787938417,21.4167670094,0.0,10.0,0.0,0.0,0.0,10.0,0.0,0.0,0.0,10.0,0.210922358334,0.0183758115215,-0.0454068965859,1.0,0.0,0.0,0.0,1.0,0.0,0.0,0.0,1.0,-0.0455053710938,-0.393980712891,10.1429077148,0.1,0.0,0.0,0.0,0.1,0.0,0.0,0.0,0.1
1446036914103060033,70,1446036914099936962,robocape,-3.39714247477,13.58125208,21.2995520846,0.0,10.0,0.0,0.0,0.0,10.0,0.0,0.0,0.0,10.0,0.153264920734,0.0181094954125,-0.0371510972066,1.0,0.0,0.0,0.0,1.0,0.0,0.0,0.0,1.0,-0.0143701171875,-0.132923583984,10.0710571289,0.1,0.0,0.0,0.0,0.1,0.0,0.0,0.0,0.1
1446036914136271242,71,1446036914133160114,robocape,-3.30399838277,13.5806138235,21.1877360393,0.0,10.0,0.0,0.0,0.0,10.0,0.0,0.0,0.0,10.0,0.0563258570552,0.0167779148675,-0.0336889877895,1.0,0.0,0.0,0.0,1.0,0.0,0.0,0.0,1.0,-0.0431103515625,-0.0550854492188,10.024354248,0.1,0.0,0.0,0.0,0.1,0.0,0.0,0.0,0.1
1446036914169920450,72,1446036914166836023,robocape,-3.35944243525,13.5857876485,21.2531162396,0.0,10.0,0.0,0.0,0.0,10.0,0.0,0.0,0.0,10.0,-0.0444747902043,0.0170442309765,0.0607200728538,1.0,0.0,0.0,0.0,1.0,0.0,0.0,0.0,1.0,-0.0311352539063,0.508941650391,10.019564209,0.1,0.0,0.0,0.0,0.1,0.0,0.0,0.0,0.1
1446036914202957075,73,1446036914199805974,robocape,-3.64519151758,13.5927342996,21.4052146076,0.0,10.0,0.0,0.0,0.0,10.0,0.0,0.0,0.0,10.0,-0.176967054436,0.016911072922,0.107991182203,1.0,0.0,0.0,0.0,1.0,0.0,0.0,0.0,1.0,-0.0167651367188,-1.46575195313,9.98723144531,0.1,0.0,0.0,0.0,0.1,0.0,0.0,0.0,0.1
1446036914236045992,74,1446036914232944011,robocape,-3.87127205796,13.5912681202,21.4483954257,0.0,10.0,0.0,0.0,0.0,10.0,0.0,0.0,0.0,10.0,-0.131959632013,0.0143810698864,0.050200586548,1.0,0.0,0.0,0.0,1.0,0.0,0.0,0.0,1.0,-0.01916015625,-0.232316894531,10.0626745605,0.1,0.0,0.0,0.0,0.1,0.0,0.0,0.0,0.1
1446036914269339367,75,1446036914266246080,robocape,-3.86038273493,13.5932823943,21.4435565052,0.0,10.0,0.0,0.0,0.0,10.0,0.0,0.0,0.0,10.0,-0.00133158054504,0.0165115987585,0.0238352917562,1.0,0.0,0.0,0.0,1.0,0.0,0.0,0.0,1.0,0.0299377441406,-2.51357299805,9.96328125,0.1,0.0,0.0,0.0,0.1,0.0,0.0,0.0,0.1
1446036914303231575,76,1446036914300198078,robocape,-3.63531472769,13.6028719798,21.4010875227,0.0,10.0,0.0,0.0,0.0,10.0,0.0,0.0,0.0,10.0,0.116246981582,0.0206394984481,0.00306263525359,1.0,0.0,0.0,0.0,1.0,0.0,0.0,0.0,1.0,0.0239501953125,-0.307760009766,10.1165625,0.1,0.0,0.0,0.0,0.1,0.0,0.0,0.0,0.1
1446036914336153658,77,1446036914333093881,robocape,-3.33497929635,13.6193137712,21.455039708,0.0,10.0,0.0,0.0,0.0,10.0,0.0,0.0,0.0,10.0,0.14367754081,0.0221042370477,0.0537958540196,1.0,0.0,0.0,0.0,1.0,0.0,0.0,0.0,1.0,-0.0694555664063,-1.53880004883,10.1081799316,0.1,0.0,0.0,0.0,0.1,0.0,0.0,0.0,0.1
1446036914369117242,78,1446036914366060972,robocape,-2.8917011133,13.6262766547,21.4191575599,0.0,10.0,0.0,0.0,0.0,10.0,0.0,0.0,0.0,10.0,0.230762908455,0.0183758115215,0.00519316412565,1.0,0.0,0.0,0.0,1.0,0.0,0.0,0.0,1.0,0.00359252929688,-0.0993933105469,10.0135766602,0.1,0.0,0.0,0.0,0.1,0.0,0.0,0.0,0.1
1446036914402575325,79,1446036914399504899,robocape,-2.45752752139,13.6317155053,21.3629984843,0.0,10.0,0.0,0.0,0.0,10.0,0.0,0.0,0.0,10.0,0.229031853747,0.0178431793035,-0.00559263828917,1.0,0.0,0.0,0.0,1.0,0.0,0.0,0.0,1.0,-0.0131726074219,-1.59867553711,10.1177600098,0.1,0.0,0.0,0.0,0.1,0.0,0.0,0.0,0.1
1446036914435938825,80,1446036914432878017,robocape,-1.74276175152,13.6301426292,21.0275467803,0.0,10.0,0.0,0.0,0.0,10.0,0.0,0.0,0.0,10.0,0.412523652853,0.0151800182135,-0.154729659334,1.0,0.0,0.0,0.0,1.0,0.0,0.0,0.0,1.0,0.0395178222656,-1.25139770508,10.0051940918,0.1,0.0,0.0,0.0,0.1,0.0,0.0,0.0,0.1
1446036914469329742,81,1446036914466315031,robocape,-1.37131213149,13.6542701936,21.0034151764,0.0,10.0,0.0,0.0,0.0,10.0,0.0,0.0,0.0,10.0,0.193212337085,0.0275637172823,0.0114515926873,1.0,0.0,0.0,0.0,1.0,0.0,0.0,0.0,1.0,-0.1916015625,0.638272705078,9.95489868164,0.1,0.0,0.0,0.0,0.1,0.0,0.0,0.0,0.1
1446036914502719783,82,1446036914499685049,robocape,-1.15115616015,13.6630675924,21.0792388509,0.0,10.0,0.0,0.0,0.0,10.0,0.0,0.0,0.0,10.0,0.101466437532,0.0198405501211,0.0643153403254,1.0,0.0,0.0,0.0,1.0,0.0,0.0,0.0,1.0,0.0131726074219,-0.562829589844,10.0674645996,0.1,0.0,0.0,0.0,0.1,0.0,0.0,0.0,0.1
1446036914535769367,83,1446036914532766103,robocape,-0.962713993695,13.6656531872,21.0069305959,0.0,10.0,0.0,0.0,0.0,10.0,0.0,0.0,0.0,10.0,0.103863282513,0.0165115987585,-0.0138484376684,1.0,0.0,0.0,0.0,1.0,0.0,0.0,0.0,1.0,-0.0562829589844,0.208366699219,9.97286132813,0.1,0.0,0.0,0.0,0.1,0.0,0.0,0.0,0.1
1446036914569815742,84,1446036914566513061,robocape,-0.952860679936,13.6673150177,20.9538270101,0.0,10.0,0.0,0.0,0.0,10.0,0.0,0.0,0.0,10.0,0.00785632521573,0.016378440704,-0.0033289513626,1.0,0.0,0.0,0.0,1.0,0.0,0.0,0.0,1.0,-0.00119750976563,0.534089355469,9.96807128906,0.1,0.0,0.0,0.0,0.1,0.0,0.0,0.0,0.1
1446036914602920450,85,1446036914599540948,robocape,-1.13898781766,13.6667886186,20.8862595729,0.0,10.0,0.0,0.0,0.0,10.0,0.0,0.0,0.0,10.0,-0.0932106381528,0.015579492377,-0.0105194863058,1.0,0.0,0.0,0.0,1.0,0.0,0.0,0.0,1.0,-0.00119750976563,0.0802331542969,10.0207617188,0.1,0.0,0.0,0.0,0.1,0.0,0.0,0.0,0.1
1446036914636275283,86,1446036914632838964,robocape,-1.38138390062,13.6651172957,20.8265670013,0.0,10.0,0.0,0.0,0.0,10.0,0.0,0.0,0.0,10.0,-0.123970148743,0.0151800182135,-0.00625842856169,1.0,0.0,0.0,0.0,1.0,0.0,0.0,0.0,1.0,-0.0047900390625,-0.274229736328,10.0483044434,0.1,0.0,0.0,0.0,0.1,0.0,0.0,0.0,0.1
1446036914669808492,87,1446036914666332960,robocape,-1.53497372812,13.6626284865,20.759896087,0.0,10.0,0.0,0.0,0.0,10.0,0.0,0.0,0.0,10.0,-0.0766990393943,0.0146473859954,-0.0102531701968,1.0,0.0,0.0,0.0,1.0,0.0,0.0,0.0,1.0,-0.0167651367188,-0.837059326172,10.1165625,0.1,0.0,0.0,0.0,0.1,0.0,0.0,0.0,0.1
1446036914703098408,88,1446036914699820041,robocape,-1.55198395765,13.6621743608,20.693872174,0.0,10.0,0.0,0.0,0.0,10.0,0.0,0.0,0.0,10.0,-0.00519316412565,0.0154463343225,-0.0103863282513,1.0,0.0,0.0,0.0,1.0,0.0,0.0,0.0,1.0,0.0131726074219,-0.882564697266,10.1093774414,0.1,0.0,0.0,0.0,0.1,0.0,0.0,0.0,0.1
1446036914736193450,89,1446036914732937097,robocape,-1.54225321583,13.6647665304,20.6586234143,0.0,10.0,0.0,0.0,0.0,10.0,0.0,0.0,0.0,10.0,0.00492684801665,0.016911072922,0.00572579634367,1.0,0.0,0.0,0.0,1.0,0.0,0.0,0.0,1.0,0.0,-0.158071289063,10.0914147949,0.1,0.0,0.0,0.0,0.1,0.0,0.0,0.0,0.1
1446036914770504200,90,1446036914767446041,robocape,-1.65234735581,13.6819910134,21.0627629898,0.0,10.0,0.0,0.0,0.0,10.0,0.0,0.0,0.0,10.0,-0.11411645271,0.0237021337017,0.238352917562,1.0,0.0,0.0,0.0,1.0,0.0,0.0,0.0,1.0,0.0359252929688,-0.675395507813,10.060279541,0.1,0.0,0.0,0.0,0.1,0.0,0.0,0.0,0.1
1446036914803069784,91,1446036914799792051,robocape,-1.45847881757,13.6952331783,21.295370278,0.0,10.0,0.0,0.0,0.0,10.0,0.0,0.0,0.0,10.0,0.0672448175245,0.0217047628841,0.14753912439,1.0,0.0,0.0,0.0,1.0,0.0,0.0,0.0,1.0,-0.0215551757813,-2.05013671875,10.0734521484,0.1,0.0,0.0,0.0,0.1,0.0,0.0,0.0,0.1
1446036914836107534,92,1446036914832986116,robocape,-1.02169702579,13.7017362599,21.2615561663,0.0,10.0,0.0,0.0,0.0,10.0,0.0,0.0,0.0,10.0,0.229031853747,0.018242653467,0.00612527050718,1.0,0.0,0.0,0.0,1.0,0.0,0.0,0.0,1.0,0.0562829589844,0.0407153320313,9.97884887695,0.1,0.0,0.0,0.0,0.1,0.0,0.0,0.0,0.1
1446036914869447284,93,1446036914866364955,robocape,-0.625114924499,13.7079156679,21.2716577788,0.0,10.0,0.0,0.0,0.0,10.0,0.0,0.0,0.0,10.0,0.20279971701,0.0183758115215,0.0294279300454,1.0,0.0,0.0,0.0,1.0,0.0,0.0,0.0,1.0,0.0610729980469,-0.307760009766,10.1261425781,0.1,0.0,0.0,0.0,0.1,0.0,0.0,0.0,0.1
1446036914902765534,94,1446036914899671077,robocape,-0.314424462549,13.7107220712,21.1238085983,0.0,10.0,0.0,0.0,0.0,10.0,0.0,0.0,0.0,10.0,0.178165476926,0.0157126504315,-0.0537958540196,1.0,0.0,0.0,0.0,1.0,0.0,0.0,0.0,1.0,-0.137713623047,0.754431152344,10.0255517578,0.1,0.0,0.0,0.0,0.1,0.0,0.0,0.0,0.1
1446036914937426284,95,1446036914934276103,robocape,-0.315122665271,13.7070395729,20.9213395054,0.0,10.0,0.0,0.0,0.0,10.0,0.0,0.0,0.0,10.0,0.0219710789932,0.0121173829599,-0.0821585196289,1.0,0.0,0.0,0.0,1.0,0.0,0.0,0.0,1.0,0.107775878906,1.05261108398,9.94292358398,0.1,0.0,0.0,0.0,0.1,0.0,0.0,0.0,0.1
1446036914971053075,96,1446036914967950105,robocape,-0.654369714188,13.7040821739,20.7236775235,0.0,10.0,0.0,0.0,0.0,10.0,0.0,0.0,0.0,10.0,-0.156327555988,0.0133158054504,-0.0790958843754,1.0,0.0,0.0,0.0,1.0,0.0,0.0,0.0,1.0,0.00359252929688,0.568817138672,9.98244140625,0.1,0.0,0.0,0.0,0.1,0.0,0.0,0.0,0.1
1446036915004045992,97,1446036915000936031,robocape,-1.20639202093,13.6928676501,20.555852134,0.0,10.0,0.0,0.0,0.0,10.0,0.0,0.0,0.0,10.0,-0.272175063406,0.0101200121423,-0.0631169178349,1.0,0.0,0.0,0.0,1.0,0.0,0.0,0.0,1.0,-0.110170898438,0.0419128417969,10.0495019531,0.1,0.0,0.0,0.0,0.1,0.0,0.0,0.0,0.1
1446036915038053700,98,1446036915034523010,robocape,-2.11504185943,13.6861459401,20.8684614215,0.0,10.0,0.0,0.0,0.0,10.0,0.0,0.0,0.0,10.0,-0.521713257547,0.0126500151779,0.191481282377,1.0,0.0,0.0,0.0,1.0,0.0,0.0,0.0,1.0,-0.0383203125,0.427510986328,9.96807128906,0.1,0.0,0.0,0.0,0.1,0.0,0.0,0.0,0.1
1446036915069993409,99,1446036915066637039,robocape,-3.09032464614,13.6601859394,21.339204142,0.0,10.0,0.0,0.0,0.0,10.0,0.0,0.0,0.0,10.0,-0.578838062929,-0.00146473859954,0.276302963096,1.0,0.0,0.0,0.0,1.0,0.0,0.0,0.0,1.0,-0.0131726074219,-2.88599853516,10.1812280273,0.1,0.0,0.0,0.0,0.1,0.0,0.0,0.0,0.1
1446036915104676534,100,1446036915101372957,robocape,-3.28411744195,13.6562669809,21.4042770477,0.0,10.0,0.0,0.0,0.0,10.0,0.0,0.0,0.0,10.0,-0.117045929909,0.0129163312869,0.0611195470173,1.0,0.0,0.0,0.0,1.0,0.0,0.0,0.0,1.0,0.158071289063,-3.24884399414,10.024354248,0.1,0.0,0.0,0.0,0.1,0.0,0.0,0.0,0.1
1446036915138219992,101,1446036915134744882,robocape,-2.81980841579,13.6804324421,21.1057904012,0.0,10.0,0.0,0.0,0.0,10.0,0.0,0.0,0.0,10.0,0.275637172823,0.0315584589174,-0.133024896449,1.0,0.0,0.0,0.0,1.0,0.0,0.0,0.0,1.0,-0.00359252929688,-1.69806884766,9.99441650391,0.1,0.0,0.0,0.0,0.1,0.0,0.0,0.0,0.1
1446036915171604325,102,1446036915167998075,robocape,-2.2078139896,13.6813886097,20.7506843216,0.0,10.0,0.0,0.0,0.0,10.0,0.0,0.0,0.0,10.0,0.36099148576,0.0181094954125,-0.164849671476,1.0,0.0,0.0,0.0,1.0,0.0,0.0,0.0,1.0,-0.0227526855469,-0.256267089844,10.0447119141,0.1,0.0,0.0,0.0,0.1,0.0,0.0,0.0,0.1
1446036915204763159,103,1446036915201353073,robocape,-2.00394513538,13.6881631969,20.8427989646,0.0,10.0,0.0,0.0,0.0,10.0,0.0,0.0,0.0,10.0,0.0898816867902,0.0178431793035,0.0725711397047,1.0,0.0,0.0,0.0,1.0,0.0,0.0,0.0,1.0,-0.0550854492188,0.217946777344,10.0686621094,0.1,0.0,0.0,0.0,0.1,0.0,0.0,0.0,0.1
1446036915239967409,104,1446036915236054897,robocape,-1.63202907642,13.6949184622,20.6918572072,0.0,10.0,0.0,0.0,0.0,10.0,0.0,0.0,0.0,10.0,0.209457619735,0.0189084437396,-0.0561926990007,1.0,0.0,0.0,0.0,1.0,0.0,0.0,0.0,1.0,-0.0155676269531,-1.0346484375,10.1045874023,0.1,0.0,0.0,0.0,0.1,0.0,0.0,0.0,0.1
1446036915274342409,105,1446036915270340919,robocape,-1.14737313472,13.6985156998,20.3719643646,0.0,10.0,0.0,0.0,0.0,10.0,0.0,0.0,0.0,10.0,0.290550874928,0.016644756813,-0.145941227736,1.0,0.0,0.0,0.0,1.0,0.0,0.0,0.0,1.0,-0.0311352539063,-0.221539306641,10.0866247559,0.1,0.0,0.0,0.0,0.1,0.0,0.0,0.0,0.1
1446036915306248825,106,1446036915301753997,robocape,-0.921076035182,13.698327849,20.2447506622,0.0,10.0,0.0,0.0,0.0,10.0,0.0,0.0,0.0,10.0,0.130894367577,0.0146473859954,-0.0440753160408,1.0,0.0,0.0,0.0,1.0,0.0,0.0,0.0,1.0,-0.0742456054688,0.880169677734,10.0435144043,0.1,0.0,0.0,0.0,0.1,0.0,0.0,0.0,0.1
1446036915338834284,107,1446036915334813117,robocape,-1.16597127004,13.7017435467,20.3903663946,0.0,10.0,0.0,0.0,0.0,10.0,0.0,0.0,0.0,10.0,-0.151001233807,0.017976337358,0.100800647259,1.0,0.0,0.0,0.0,1.0,0.0,0.0,0.0,1.0,-0.01916015625,1.05740112305,10.0171691895,0.1,0.0,0.0,0.0,0.1,0.0,0.0,0.0,0.1
1446036915373441825,108,1446036915370148897,robocape,-1.74472477868,13.7062444637,20.9797565785,0.0,10.0,0.0,0.0,0.0,10.0,0.0,0.0,0.0,10.0,-0.383628355026,0.017976337358,0.336357245677,1.0,0.0,0.0,0.0,1.0,0.0,0.0,0.0,1.0,-0.0359252929688,-0.799936523438,10.0423168945,0.1,0.0,0.0,0.0,0.1,0.0,0.0,0.0,0.1
1446036915407271909,109,1446036915403397083,robocape,-1.79632087291,13.7043958037,20.8465905598,0.0,10.0,0.0,0.0,0.0,10.0,0.0,0.0,0.0,10.0,-0.0150468601589,0.015313176268,-0.0452737385313,1.0,0.0,0.0,0.0,1.0,0.0,0.0,0.0,1.0,-0.0323327636719,-1.22026245117,10.1812280273,0.1,0.0,0.0,0.0,0.1,0.0,0.0,0.0,0.1
1446036915439794742,110,1446036915436610937,robocape,-2.04635346725,13.705546649,21.005962429,0.0,10.0,0.0,0.0,0.0,10.0,0.0,0.0,0.0,10.0,-0.156860188206,0.015845808486,0.109722236911,1.0,0.0,0.0,0.0,1.0,0.0,0.0,0.0,1.0,0.0119750976563,-0.0251477050781,10.080637207,0.1,0.0,0.0,0.0,0.1,0.0,0.0,0.0,0.1
1446036915473890617,111,1446036915469968080,robocape,-2.28970014595,13.7056280345,21.1232075279,0.0,10.0,0.0,0.0,0.0,10.0,0.0,0.0,0.0,10.0,-0.148338072717,0.015313176268,0.0878843159726,1.0,0.0,0.0,0.0,1.0,0.0,0.0,0.0,1.0,0.00359252929688,-1.23702758789,10.0974023437,0.1,0.0,0.0,0.0,0.1,0.0,0.0,0.0,0.1
1446036915507366992,112,1446036915503695964,robocape,-2.34623891492,13.7060861523,21.1388730736,0.0,10.0,0.0,0.0,0.0,10.0,0.0,0.0,0.0,10.0,-0.0374174133156,0.015845808486,0.033822145844,1.0,0.0,0.0,0.0,1.0,0.0,0.0,0.0,1.0,-0.0419128417969,-1.31965576172,10.0495019531,0.1,0.0,0.0,0.0,0.1,0.0,0.0,0.0,0.1
1446036915540428659,113,1446036915536938905,robocape,-2.19925476491,13.7045372824,20.9088100296,0.0,10.0,0.0,0.0,0.0,10.0,0.0,0.0,0.0,10.0,0.101066963369,0.016378440704,-0.0968059056244,1.0,0.0,0.0,0.0,1.0,0.0,0.0,0.0,1.0,-0.0167651367188,-0.601149902344,10.0950073242,0.1,0.0,0.0,0.0,0.1,0.0,0.0,0.0,0.1
1446036915572787576,114,1446036915569216012,robocape,-2.25311324221,13.7066055085,20.8911647837,0.0,10.0,0.0,0.0,0.0,10.0,0.0,0.0,0.0,10.0,-0.0315584589174,0.016911072922,0.015845808486,1.0,0.0,0.0,0.0,1.0,0.0,0.0,0.0,1.0,0.0179626464844,-0.281414794922,10.0447119141,0.1,0.0,0.0,0.0,0.1,0.0,0.0,0.0,0.1
1446036915608158867,115,1446036915604896068,robocape,-2.25859045654,13.7026924173,20.7061908414,0.0,10.0,0.0,0.0,0.0,10.0,0.0,0.0,0.0,10.0,0.015313176268,0.0150468601589,-0.0728374558137,1.0,0.0,0.0,0.0,1.0,0.0,0.0,0.0,1.0,-0.05748046875,-0.749641113281,10.0483044434,0.1,0.0,0.0,0.0,0.1,0.0,0.0,0.0,0.1
1446036915640332617,116,1446036915637110948,robocape,-2.51307740806,13.6983429549,20.7527054294,0.0,10.0,0.0,0.0,0.0,10.0,0.0,0.0,0.0,10.0,-0.145275437464,0.0133158054504,0.049934270439,1.0,0.0,0.0,0.0,1.0,0.0,0.0,0.0,1.0,-0.168848876953,-0.456251220703,10.0495019531,0.1,0.0,0.0,0.0,0.1,0.0,0.0,0.0,0.1
1446036915672584492,117,1446036915669351100,robocape,-2.67664624116,13.7407712948,20.7933490266,0.0,10.0,0.0,0.0,0.0,10.0,0.0,0.0,0.0,10.0,-0.0972053797879,0.0379500455336,0.0483363737849,1.0,0.0,0.0,0.0,1.0,0.0,0.0,0.0,1.0,-1.89805297852,-1.66813110352,10.7165148926,0.1,0.0,0.0,0.0,0.1,0.0,0.0,0.0,0.1
1446036915705451576,118,1446036915702145099,robocape,-2.73873810338,13.824510522,20.8461869054,0.0,10.0,0.0,0.0,0.0,10.0,0.0,0.0,0.0,10.0,-0.0458063707494,0.0595216503633,0.0560595409462,1.0,0.0,0.0,0.0,1.0,0.0,0.0,0.0,1.0,-4.06913818359,-0.968785400391,11.3607751465,0.1,0.0,0.0,0.0,0.1,0.0,0.0,0.0,0.1
1446036915738815117,119,1446036915735538005,robocape,-2.57858365837,13.9108586491,20.6120458798,0.0,10.0,0.0,0.0,0.0,10.0,0.0,0.0,0.0,10.0,0.108257498312,0.0639158661619,-0.0960069572974,1.0,0.0,0.0,0.0,1.0,0.0,0.0,0.0,1.0,-8.43885131836,-0.820294189453,11.5990795898,0.1,0.0,0.0,0.0,0.1,0.0,0.0,0.0,0.1
1446036915774196576,120,1446036915771145105,robocape,-2.75863690168,13.9932049098,20.6826283448,0.0,10.0,0.0,0.0,0.0,10.0,0.0,0.0,0.0,10.0,-0.110121711075,0.0591221761998,0.0655137628159,1.0,0.0,0.0,0.0,1.0,0.0,0.0,0.0,1.0,-10.612331543,-1.8812878418,11.6625476074,0.1,0.0,0.0,0.0,0.1,0.0,0.0,0.0,0.1
1446036915806099826,121,1446036915802973985,robocape,-3.20716869902,13.8538727817,20.7325478612,0.0,10.0,0.0,0.0,0.0,10.0,0.0,0.0,0.0,10.0,-0.248206613595,-0.0577905956547,0.0475374254579,1.0,0.0,0.0,0.0,1.0,0.0,0.0,0.0,1.0,-9.19088745117,-0.67060546875,10.024354248,0.1,0.0,0.0,0.0,0.1,0.0,0.0,0.0,0.1
1446036915838712992,122,1446036915835664033,robocape,-4.37926132382,14.2234283614,20.680500105,0.0,10.0,0.0,0.0,0.0,10.0,0.0,0.0,0.0,10.0,-0.618252847062,0.216914470787,0.0207726565026,1.0,0.0,0.0,0.0,1.0,0.0,0.0,0.0,1.0,-5.61392578125,0.764011230469,12.7666516113,0.1,0.0,0.0,0.0,0.1,0.0,0.0,0.0,0.1
1446036915873402492,123,1446036915870127916,robocape,-5.0720620673,13.9376448481,20.6738818356,0.0,10.0,0.0,0.0,0.0,10.0,0.0,0.0,0.0,10.0,-0.371111497903,-0.133024896449,0.0099868540878,1.0,0.0,0.0,0.0,1.0,0.0,0.0,0.0,1.0,-3.61647949219,-2.10641967773,9.36213134766,0.1,0.0,0.0,0.0,0.1,0.0,0.0,0.0,0.1
1446036915905987451,124,1446036915902841091,robocape,-5.25603613276,14.0621488641,19.7377760951,0.0,10.0,0.0,0.0,0.0,10.0,0.0,0.0,0.0,10.0,0.0183758115215,0.114515926873,-0.457264759167,1.0,0.0,0.0,0.0,1.0,0.0,0.0,0.0,1.0,-7.34193237305,-2.23814575195,11.8529516602,0.1,0.0,0.0,0.0,0.1,0.0,0.0,0.0,0.1
1446036915938889284,125,1446036915935745954,robocape,-4.39789324133,14.0607279851,18.3326033322,0.0,10.0,0.0,0.0,0.0,10.0,0.0,0.0,0.0,10.0,0.629837597804,0.0557932248372,-0.716390333231,1.0,0.0,0.0,0.0,1.0,0.0,0.0,0.0,1.0,-5.69535644531,-1.9890637207,9.87586303711,0.1,0.0,0.0,0.0,0.1,0.0,0.0,0.0,0.1
1446036915971834659,126,1446036915968614101,robocape,-3.16799904295,13.9132675553,16.8615605211,0.0,10.0,0.0,0.0,0.0,10.0,0.0,0.0,0.0,10.0,0.832370998704,-0.0334226716805,-0.758468278455,1.0,0.0,0.0,0.0,1.0,0.0,0.0,0.0,1.0,-11.5380065918,-1.4525793457,10.6877746582,0.1,0.0,0.0,0.0,0.1,0.0,0.0,0.0,0.1
1446036916004477909,127,1446036916001447916,robocape,-1.46075381829,13.9623165066,15.4283620443,0.0,10.0,0.0,0.0,0.0,10.0,0.0,0.0,0.0,10.0,1.07565076428,0.0513990090385,-0.731170877281,1.0,0.0,0.0,0.0,1.0,0.0,0.0,0.0,1.0,-9.80401245117,-1.04901855469,13.0528564453,0.1,0.0,0.0,0.0,0.1,0.0,0.0,0.0,0.1
1446036916037197117,128,1446036916034096002,robocape,0.700750029281,13.8979550712,14.8903918157,0.0,10.0,0.0,0.0,0.0,10.0,0.0,0.0,0.0,10.0,1.19935459692,-0.0270310850643,-0.268313479825,1.0,0.0,0.0,0.0,1.0,0.0,0.0,0.0,1.0,-6.8940637207,-1.1879296875,8.6220703125,0.1,0.0,0.0,0.0,0.1,0.0,0.0,0.0,0.1
1446036916070681909,129,1446036916067606925,robocape,3.99768444426,14.1759533534,14.9548707478,0.0,10.0,0.0,0.0,0.0,10.0,0.0,0.0,0.0,10.0,1.72080153835,0.161787036222,0.0423442613323,1.0,0.0,0.0,0.0,1.0,0.0,0.0,0.0,1.0,-10.4518652344,-0.912502441406,12.0361706543,0.1,0.0,0.0,0.0,0.1,0.0,0.0,0.0,0.1
1446036916103520159,130,1446036916100415945,robocape,7.7705632387,14.3946615141,15.4275626479,0.0,10.0,0.0,0.0,0.0,10.0,0.0,0.0,0.0,10.0,1.92506599396,0.164583355367,0.252867145503,1.0,0.0,0.0,0.0,1.0,0.0,0.0,0.0,1.0,-3.91705444336,-1.02985839844,9.73216186523,0.1,0.0,0.0,0.0,0.1,0.0,0.0,0.0,0.1
1446036916136756118,131,1446036916133652925,robocape,11.8681457463,14.3809473585,15.8472822774,0.0,10.0,0.0,0.0,0.0,10.0,0.0,0.0,0.0,10.0,2.1137509572,0.0641821822709,0.244611346124,1.0,0.0,0.0,0.0,1.0,0.0,0.0,0.0,1.0,-10.9176965332,0.616717529297,10.4470751953,0.1,0.0,0.0,0.0,0.1,0.0,0.0,0.0,0.1
1446036916170661618,132,1446036916167550086,robocape,15.7932508842,14.417042753,16.92190539,0.0,10.0,0.0,0.0,0.0,10.0,0.0,0.0,0.0,10.0,1.96075235257,0.202932875064,0.576041743784,1.0,0.0,0.0,0.0,1.0,0.0,0.0,0.0,1.0,-8.43765380859,1.58430541992,9.16094970703,0.1,0.0,0.0,0.0,0.1,0.0,0.0,0.0,0.1
1446036916203301451,133,1446036916200160980,robocape,17.0715311656,14.4218582147,18.3931776163,0.0,10.0,0.0,0.0,0.0,10.0,0.0,0.0,0.0,10.0,0.518117990075,0.261389260991,0.760465649272,1.0,0.0,0.0,0.0,1.0,0.0,0.0,0.0,1.0,-14.2288110352,6.3958996582,14.9329467773,0.1,0.0,0.0,0.0,0.1,0.0,0.0,0.0,0.1
1446036916236108368,134,1446036916233006000,robocape,16.8933176043,14.2160857264,19.5418931016,0.0,10.0,0.0,0.0,0.0,10.0,0.0,0.0,0.0,10.0,-0.216381838569,0.0982706442239,0.620117059825,1.0,0.0,0.0,0.0,1.0,0.0,0.0,0.0,1.0,-8.10833862305,0.914897460938,7.28325439453,0.1,0.0,0.0,0.0,0.1,0.0,0.0,0.0,0.1
1446036916269583784,135,1446036916266514062,robocape,15.3465217415,14.9885296308,21.5516148336,0.0,10.0,0.0,0.0,0.0,10.0,0.0,0.0,0.0,10.0,-1.04901915338,0.710398220779,0.906806351172,1.0,0.0,0.0,0.0,1.0,0.0,0.0,0.0,1.0,-11.1464208984,3.06442749023,16.9627258301,0.1,0.0,0.0,0.0,0.1,0.0,0.0,0.0,0.1
1446036916302932118,136,1446036916299789905,robocape,13.2903084326,15.4096525078,23.1951831998,0.0,10.0,0.0,0.0,0.0,10.0,0.0,0.0,0.0,10.0,-1.28484206791,0.452071595041,0.787496734336,1.0,0.0,0.0,0.0,1.0,0.0,0.0,0.0,1.0,-6.12406494141,-1.98068115234,7.2078112793,0.1,0.0,0.0,0.0,0.1,0.0,0.0,0.0,0.1
1446036916335972701,137,1446036916332904100,robocape,11.5882764424,15.470512622,23.7205473705,0.0,10.0,0.0,0.0,0.0,10.0,0.0,0.0,0.0,10.0,-0.955275883011,0.108656972475,0.276702437259,1.0,0.0,0.0,0.0,1.0,0.0,0.0,0.0,1.0,-5.94803100586,-2.70038452148,13.1306945801,0.1,0.0,0.0,0.0,0.1,0.0,0.0,0.0,0.1
1446036916369682034,138,1446036916366641044,robocape,11.2584364269,15.1544270271,23.0594539908,0.0,10.0,0.0,0.0,0.0,10.0,0.0,0.0,0.0,10.0,-0.0776311457758,-0.220509738259,-0.284691920529,1.0,0.0,0.0,0.0,1.0,0.0,0.0,0.0,1.0,-4.90739501953,-2.26928100586,7.39701782227,0.1,0.0,0.0,0.0,0.1,0.0,0.0,0.0,0.1
1446036916403140034,139,1446036916400052070,robocape,11.7681905525,15.0663890023,23.1501404785,0.0,10.0,0.0,0.0,0.0,10.0,0.0,0.0,0.0,10.0,0.267381373444,-0.0101200121423,0.0866858934821,1.0,0.0,0.0,0.0,1.0,0.0,0.0,0.0,1.0,-5.44627441406,0.32572265625,11.4314282227,0.1,0.0,0.0,0.0,0.1,0.0,0.0,0.0,0.1
1446036916436020868,140,1446036916432980060,robocape,12.3768589668,15.0976337958,23.4105454598,0.0,10.0,0.0,0.0,0.0,10.0,0.0,0.0,0.0,10.0,0.299339306525,0.0743021944132,0.163917565094,1.0,0.0,0.0,0.0,1.0,0.0,0.0,0.0,1.0,-5.63907348633,-0.0742456054688,10.0638720703,0.1,0.0,0.0,0.0,0.1,0.0,0.0,0.0,0.1
1446036916469650576,141,1446036916466454029,robocape,13.3018569321,15.3638080631,23.5555415022,0.0,10.0,0.0,0.0,0.0,10.0,0.0,0.0,0.0,10.0,0.483763212013,0.18655443436,0.082691151847,1.0,0.0,0.0,0.0,1.0,0.0,0.0,0.0,1.0,-5.07983642578,0.90052734375,11.5463891602,0.1,0.0,0.0,0.0,0.1,0.0,0.0,0.0,0.1
1446036916503025618,142,1446036916499938964,robocape,13.4860537233,15.6595662484,24.5716149699,0.0,10.0,0.0,0.0,0.0,10.0,0.0,0.0,0.0,10.0,-0.0213052887206,0.315185115011,0.518916938402,1.0,0.0,0.0,0.0,1.0,0.0,0.0,0.0,1.0,-5.00439331055,2.8009753418,11.2613818359,0.1,0.0,0.0,0.0,0.1,0.0,0.0,0.0,0.1
1446036916536668618,143,1446036916533550977,robocape,12.9097434381,15.9055117856,25.564192171,0.0,10.0,0.0,0.0,0.0,10.0,0.0,0.0,0.0,10.0,-0.423043139159,0.281096653058,0.509462716532,1.0,0.0,0.0,0.0,1.0,0.0,0.0,0.0,1.0,-5.58997558594,-0.0131726074219,12.0649108887,0.1,0.0,0.0,0.0,0.1,0.0,0.0,0.0,0.1
1446036916570044243,144,1446036916566724061,robocape,12.5293566798,15.9347135195,25.5017020569,0.0,10.0,0.0,0.0,0.0,10.0,0.0,0.0,0.0,10.0,-0.179363899417,0.0308926686449,-0.00492684801665,1.0,0.0,0.0,0.0,1.0,0.0,0.0,0.0,1.0,-6.95992675781,-1.97110107422,9.55493041992,0.1,0.0,0.0,0.0,0.1,0.0,0.0,0.0,0.1
1446036916603718618,145,1446036916600354909,robocape,13.6204129223,15.9029520772,25.0356797591,0.0,10.0,0.0,0.0,0.0,10.0,0.0,0.0,0.0,10.0,0.651542360688,-0.0447411063133,-0.193744969303,1.0,0.0,0.0,0.0,1.0,0.0,0.0,0.0,1.0,-1.93038574219,-0.718505859375,10.556048584,0.1,0.0,0.0,0.0,0.1,0.0,0.0,0.0,0.1
1446036916639846451,146,1446036916636782884,robocape,14.7003170268,16.0771293414,25.4214389898,0.0,10.0,0.0,0.0,0.0,10.0,0.0,0.0,0.0,10.0,0.535029062997,0.17976337358,0.220110264095,1.0,0.0,0.0,0.0,1.0,0.0,0.0,0.0,1.0,-1.02387084961,1.1879296875,9.46990722656,0.1,0.0,0.0,0.0,0.1,0.0,0.0,0.0,0.1
1446036916669488576,147,1446036916666380882,robocape,15.1966483982,16.1654390087,26.2567781211,0.0,10.0,0.0,0.0,0.0,10.0,0.0,0.0,0.0,10.0,0.166580726184,0.202000768683,0.454601598077,1.0,0.0,0.0,0.0,1.0,0.0,0.0,0.0,1.0,-5.24389526367,1.90883056641,11.572734375,0.1,0.0,0.0,0.0,0.1,0.0,0.0,0.0,0.1
1446036916704120534,148,1446036916701039075,robocape,14.5868429559,16.6004510645,27.4372573981,0.0,10.0,0.0,0.0,0.0,10.0,0.0,0.0,0.0,10.0,-0.466852139091,0.424774193868,0.579503853201,1.0,0.0,0.0,0.0,1.0,0.0,0.0,0.0,1.0,-5.38999145508,3.755390625,12.5858276367,0.1,0.0,0.0,0.0,0.1,0.0,0.0,0.0,0.1
1446036916736154576,149,1446036916733055114,robocape,12.034731869,16.4245904711,29.4681045451,0.0,10.0,0.0,0.0,0.0,10.0,0.0,0.0,0.0,10.0,-1.62119931359,0.194277601521,1.08004498008,1.0,0.0,0.0,0.0,1.0,0.0,0.0,0.0,1.0,-2.11480224609,2.53033813477,10.402767334,0.1,0.0,0.0,0.0,0.1,0.0,0.0,0.0,0.1
1446036916776797409,150,1446036916773396015,robocape,8.339138943,16.2285263302,30.5264049733,0.0,10.0,0.0,0.0,0.0,10.0,0.0,0.0,0.0,10.0,-2.08618723991,0.0218379209386,0.584963333436,1.0,0.0,0.0,0.0,1.0,0.0,0.0,0.0,1.0,-3.48116088867,0.319735107422,10.0159716797,0.1,0.0,0.0,0.0,0.1,0.0,0.0,0.0,0.1
1446036916806250326,151,1446036916802923917,robocape,4.23852412393,16.083443976,31.3549362089,0.0,10.0,0.0,0.0,0.0,10.0,0.0,0.0,0.0,10.0,-2.26967903902,0.0034621094171,0.478303731778,1.0,0.0,0.0,0.0,1.0,0.0,0.0,0.0,1.0,-3.02011962891,0.01916015625,7.27008178711,0.1,0.0,0.0,0.0,0.1,0.0,0.0,0.0,0.1
1446036916839526160,152,1446036916836230993,robocape,-0.079012126752,15.6603865829,32.0554910884,0.0,10.0,0.0,0.0,0.0,10.0,0.0,0.0,0.0,10.0,-2.37287653126,-0.171108100038,0.432364202974,1.0,0.0,0.0,0.0,1.0,0.0,0.0,0.0,1.0,-6.88089111328,-0.337697753906,9.60642333984,0.1,0.0,0.0,0.0,0.1,0.0,0.0,0.0,0.1
1446036916873018076,153,1446036916869828939,robocape,-4.01120666638,14.5165058236,32.2299572207,0.0,10.0,0.0,0.0,0.0,10.0,0.0,0.0,0.0,10.0,-2.09883725509,-0.576041743784,0.125834361506,1.0,0.0,0.0,0.0,1.0,0.0,0.0,0.0,1.0,18.8320385742,-3.58414672852,6.17436035156,0.1,0.0,0.0,0.0,0.1,0.0,0.0,0.0,0.1
1446036916905531868,154,1446036916902302026,robocape,-6.67053663462,14.357549214,31.2398898395,0.0,10.0,0.0,0.0,0.0,10.0,0.0,0.0,0.0,10.0,-1.27485521382,-0.0217047628841,-0.47244477738,1.0,0.0,0.0,0.0,1.0,0.0,0.0,0.0,1.0,-3.12310546875,-2.88599853516,6.30848144531,0.1,0.0,0.0,0.0,0.1,0.0,0.0,0.0,0.1
1446036916938460660,155,1446036916935277938,robocape,-7.72357924587,14.4548482396,29.9824212406,0.0,10.0,0.0,0.0,0.0,10.0,0.0,0.0,0.0,10.0,-0.393082576896,0.136620163921,-0.611062312119,1.0,0.0,0.0,0.0,1.0,0.0,0.0,0.0,1.0,3.79131591797,-4.061953125,12.604987793,0.1,0.0,0.0,0.0,0.1,0.0,0.0,0.0,0.1
1446036916972191910,156,1446036916968489885,robocape,-7.42292158365,14.079613412,29.2289816497,0.0,10.0,0.0,0.0,0.0,10.0,0.0,0.0,0.0,10.0,0.252068197176,-0.141547011938,-0.397743108803,1.0,0.0,0.0,0.0,1.0,0.0,0.0,0.0,1.0,4.08829833984,-0.150886230469,5.10498413086,0.1,0.0,0.0,0.0,0.1,0.0,0.0,0.0,0.1
1446036917005765451,157,1446036917002665042,robocape,-6.70253686776,13.8254089785,28.8387479609,0.0,10.0,0.0,0.0,0.0,10.0,0.0,0.0,0.0,10.0,0.420646294178,-0.100933805314,-0.19600865623,1.0,0.0,0.0,0.0,1.0,0.0,0.0,0.0,1.0,-1.56634277344,-1.6513659668,7.99337768555,0.1,0.0,0.0,0.0,0.1,0.0,0.0,0.0,0.1
1446036917038092035,158,1446036917035064935,robocape,-5.06778218872,14.1789670632,27.6875696684,0.0,10.0,0.0,0.0,0.0,10.0,0.0,0.0,0.0,10.0,1.00494383734,0.239551340053,-0.573511740749,1.0,0.0,0.0,0.0,1.0,0.0,0.0,0.0,1.0,-1.3412109375,-3.2991394043,12.1271813965,0.1,0.0,0.0,0.0,0.1,0.0,0.0,0.0,0.1
1446036917072680451,159,1446036917069341897,robocape,-2.16850276435,13.7553999271,26.4529553272,0.0,10.0,0.0,0.0,0.0,10.0,0.0,0.0,0.0,10.0,1.68125359617,-0.197606552884,-0.674845020226,1.0,0.0,0.0,0.0,1.0,0.0,0.0,0.0,1.0,-4.6020300293,-2.27047851563,8.85678222656,0.1,0.0,0.0,0.0,0.1,0.0,0.0,0.0,0.1
1446036917105274285,160,1446036917102159023,robocape,1.67060291731,13.4336049031,25.8297184648,0.0,10.0,0.0,0.0,0.0,10.0,0.0,0.0,0.0,10.0,2.08818461073,-0.171640732256,-0.327169339916,1.0,0.0,0.0,0.0,1.0,0.0,0.0,0.0,1.0,0.283809814453,0.967587890625,7.03297485352,0.1,0.0,0.0,0.0,0.1,0.0,0.0,0.0,0.1
1446036917138775326,161,1446036917135481119,robocape,4.08355534004,13.6943641594,26.903816464,0.0,10.0,0.0,0.0,0.0,10.0,0.0,0.0,0.0,10.0,1.13344135994,0.198272343156,0.605070199666,1.0,0.0,0.0,0.0,1.0,0.0,0.0,0.0,1.0,4.36372558594,5.3229309082,10.1584753418,0.1,0.0,0.0,0.0,0.1,0.0,0.0,0.0,0.1
1446036917171549743,162,1446036917168428897,robocape,2.41250355428,13.5809641834,28.9985632843,0.0,10.0,0.0,0.0,0.0,10.0,0.0,0.0,0.0,10.0,-1.13850136601,0.0523311154201,1.16846192827,1.0,0.0,0.0,0.0,1.0,0.0,0.0,0.0,1.0,0.686173095703,4.10506347656,8.36939575195,0.1,0.0,0.0,0.0,0.1,0.0,0.0,0.0,0.1
1446036917204079951,163,1446036917201021909,robocape,-0.709074488012,13.8078349642,29.7391043612,0.0,10.0,0.0,0.0,0.0,10.0,0.0,0.0,0.0,10.0,-1.73797892739,0.161387562059,0.451672120877,1.0,0.0,0.0,0.0,1.0,0.0,0.0,0.0,1.0,1.58191040039,-0.852626953125,11.2529992676,0.1,0.0,0.0,0.0,0.1,0.0,0.0,0.0,0.1
1446036917237206410,164,1446036917234129905,robocape,-2.49355917667,13.8770615496,28.6568867079,0.0,10.0,0.0,0.0,0.0,10.0,0.0,0.0,0.0,10.0,-0.801877804223,0.0587227020362,-0.533830640506,1.0,0.0,0.0,0.0,1.0,0.0,0.0,0.0,1.0,-1.01069824219,-6.27734619141,10.0662670898,0.1,0.0,0.0,0.0,0.1,0.0,0.0,0.0,0.1
1446036917270735493,165,1446036917267656087,robocape,-1.23456940754,13.7276157596,26.7227126493,0.0,10.0,0.0,0.0,0.0,10.0,0.0,0.0,0.0,10.0,0.906273718954,-0.0625842856169,-1.0199906975,1.0,0.0,0.0,0.0,1.0,0.0,0.0,0.0,1.0,0.724493408203,-4.86428466797,8.60291015625,0.1,0.0,0.0,0.0,0.1,0.0,0.0,0.0,0.1
1446036917303367035,166,1446036917300334930,robocape,1.95624708596,14.9022763671,25.1122055757,0.0,10.0,0.0,0.0,0.0,10.0,0.0,0.0,0.0,10.0,1.8801917296,0.604670725502,-0.831172576214,1.0,0.0,0.0,0.0,1.0,0.0,0.0,0.0,1.0,-7.84608398438,-1.51604736328,13.3091235352,0.1,0.0,0.0,0.0,0.1,0.0,0.0,0.0,0.1
1446036917336194285,167,1446036917333127021,robocape,4.98484846525,14.6746825267,25.3347513975,0.0,10.0,0.0,0.0,0.0,10.0,0.0,0.0,0.0,10.0,1.55834871186,-0.0933437962073,0.151267549917,1.0,0.0,0.0,0.0,1.0,0.0,0.0,0.0,1.0,1.76393188477,3.16142578125,11.1751611328,0.1,0.0,0.0,0.0,0.1,0.0,0.0,0.0,0.1
1446036917369739826,168,1446036917366681098,robocape,6.21374023514,14.7654218891,26.5021372206,0.0,10.0,0.0,0.0,0.0,10.0,0.0,0.0,0.0,10.0,0.494948488591,0.147006492172,0.652341309015,1.0,0.0,0.0,0.0,1.0,0.0,0.0,0.0,1.0,3.6057019043,1.31007568359,6.84616333008,0.1,0.0,0.0,0.0,0.1,0.0,0.0,0.0,0.1
1446036917403101618,169,1446036917400038003,robocape,5.8498956218,14.2208204854,27.0105045049,0.0,10.0,0.0,0.0,0.0,10.0,0.0,0.0,0.0,10.0,-0.25366609383,-0.231961330946,0.327701972134,1.0,0.0,0.0,0.0,1.0,0.0,0.0,0.0,1.0,-5.54207519531,0.481398925781,8.97653320313,0.1,0.0,0.0,0.0,0.1,0.0,0.0,0.0,0.1
1446036917437727160,170,1446036917434587001,robocape,4.21597292186,13.919164001,27.9415422837,0.0,10.0,0.0,0.0,0.0,10.0,0.0,0.0,0.0,10.0,-0.97298590426,-0.0844222065555,0.541287491559,1.0,0.0,0.0,0.0,1.0,0.0,0.0,0.0,1.0,-1.8812878418,1.82620239258,7.68681518555,0.1,0.0,0.0,0.0,0.1,0.0,0.0,0.0,0.1
1446036917472092118,171,1446036917468687057,robocape,0.749206503255,14.1942793432,29.4940377798,0.0,10.0,0.0,0.0,0.0,10.0,0.0,0.0,0.0,10.0,-2.02320348013,0.226635008766,0.874981576146,1.0,0.0,0.0,0.0,1.0,0.0,0.0,0.0,1.0,5.72170166016,2.48363525391,10.9787695313,0.1,0.0,0.0,0.0,0.1,0.0,0.0,0.0,0.1
1446036917505501743,172,1446036917502161979,robocape,-4.24457493024,14.1116524742,30.6971204993,0.0,10.0,0.0,0.0,0.0,10.0,0.0,0.0,0.0,10.0,-2.79924862178,-0.0126500151779,0.717189281558,1.0,0.0,0.0,0.0,1.0,0.0,0.0,0.0,1.0,-3.30273193359,0.122145996094,8.62925537109,0.1,0.0,0.0,0.0,0.1,0.0,0.0,0.0,0.1
1446036917537591660,173,1446036917534562110,robocape,-9.789099195,13.8425778713,31.2716917388,0.0,10.0,0.0,0.0,0.0,10.0,0.0,0.0,0.0,10.0,-3.03227521716,-0.126100677615,0.40000679573,1.0,0.0,0.0,0.0,1.0,0.0,0.0,0.0,1.0,-1.39150634766,-2.65487915039,9.32860107422,0.1,0.0,0.0,0.0,0.1,0.0,0.0,0.0,0.1
1446036917570505285,174,1446036917567198038,robocape,-14.4046382643,14.2304298646,30.0631306905,0.0,10.0,0.0,0.0,0.0,10.0,0.0,0.0,0.0,10.0,-2.31655067421,0.361657276033,-0.464721610219,1.0,0.0,0.0,0.0,1.0,0.0,0.0,0.0,1.0,3.56498657227,-7.19224365234,13.9390136719,0.1,0.0,0.0,0.0,0.1,0.0,0.0,0.0,0.1
1446036917604606452,175,1446036917601535081,robocape,-15.1896134032,14.8092527896,27.4666789578,0.0,10.0,0.0,0.0,0.0,10.0,0.0,0.0,0.0,10.0,-0.0577905956547,0.62144864037,-1.21546672151,1.0,0.0,0.0,0.0,1.0,0.0,0.0,0.0,1.0,4.60921508789,-9.12981445313,10.3536694336,0.1,0.0,0.0,0.0,0.1,0.0,0.0,0.0,0.1
1446036917636139077,176,1446036917632886886,robocape,-13.186020932,15.1013501218,25.5692877861,0.0,10.0,0.0,0.0,0.0,10.0,0.0,0.0,0.0,10.0,1.33810528971,0.360192537433,-0.949150612504,1.0,0.0,0.0,0.0,1.0,0.0,0.0,0.0,1.0,2.64649658203,-3.06322998047,9.85550537109,0.1,0.0,0.0,0.0,0.1,0.0,0.0,0.0,0.1
1446036917669809660,177,1446036917666706085,robocape,-10.4832516457,14.6783703772,25.0293063362,0.0,10.0,0.0,0.0,0.0,10.0,0.0,0.0,0.0,10.0,1.50468601589,-0.174969683618,-0.345411993383,1.0,0.0,0.0,0.0,1.0,0.0,0.0,0.0,1.0,-4.47030395508,-0.906514892578,7.96343994141,0.1,0.0,0.0,0.0,0.1,0.0,0.0,0.0,0.1
1446036917703210493,178,1446036917700089931,robocape,-8.05784168501,14.7696561731,24.6187844116,0.0,10.0,0.0,0.0,0.0,10.0,0.0,0.0,0.0,10.0,1.32811843562,0.0769653555033,-0.205329720045,1.0,0.0,0.0,0.0,1.0,0.0,0.0,0.0,1.0,2.03337158203,1.1879296875,9.196875,0.1,0.0,0.0,0.0,0.1,0.0,0.0,0.0,0.1
1446036917736232202,179,1446036917732992887,robocape,-7.40291147157,15.6923339634,25.0585831091,0.0,10.0,0.0,0.0,0.0,10.0,0.0,0.0,0.0,10.0,0.259258732119,0.478836363996,0.34234935813,1.0,0.0,0.0,0.0,1.0,0.0,0.0,0.0,1.0,-0.743653564453,3.84759887695,13.146262207,0.1,0.0,0.0,0.0,0.1,0.0,0.0,0.0,0.1
1446036917774681368,180,1446036917771107912,robocape,-9.96572563054,15.5877079278,26.4924530132,0.0,10.0,0.0,0.0,0.0,10.0,0.0,0.0,0.0,10.0,-1.59962770876,-0.108523814421,0.817057822436,1.0,0.0,0.0,0.0,1.0,0.0,0.0,0.0,1.0,-6.73359741211,4.04279296875,9.90340576172,0.1,0.0,0.0,0.0,0.1,0.0,0.0,0.0,0.1
1446036917805063868,181,1446036917801934003,robocape,-14.3839232768,14.875717157,27.6102197296,0.0,10.0,0.0,0.0,0.0,10.0,0.0,0.0,0.0,10.0,-2.55397148539,-0.426238932467,0.609730731574,1.0,0.0,0.0,0.0,1.0,0.0,0.0,0.0,1.0,-1.1148815918,1.33881591797,8.02571044922,0.1,0.0,0.0,0.0,0.1,0.0,0.0,0.0,0.1
1446036917835874702,182,1446036917832773923,robocape,-18.7796110255,14.9064624124,26.9832220564,0.0,10.0,0.0,0.0,0.0,10.0,0.0,0.0,0.0,10.0,-2.31069171981,0.154063869061,-0.177766002763,1.0,0.0,0.0,0.0,1.0,0.0,0.0,0.0,1.0,1.90643554688,-4.46551391602,9.32261352539,0.1,0.0,0.0,0.0,0.1,0.0,0.0,0.0,0.1
1446036917870831035,183,1446036917867547988,robocape,-20.3358629768,15.6626079392,24.1587300203,0.0,10.0,0.0,0.0,0.0,10.0,0.0,0.0,0.0,10.0,-0.433163151301,0.85500786797,-1.20228407412,1.0,0.0,0.0,0.0,1.0,0.0,0.0,0.0,1.0,-6.94316162109,-10.0363293457,16.0705810547,0.1,0.0,0.0,0.0,0.1,0.0,0.0,0.0,0.1
1446036917907216827,184,1446036917903743028,robocape,-18.5520708672,16.3105957461,20.8738058614,0.0,10.0,0.0,0.0,0.0,10.0,0.0,0.0,0.0,10.0,1.47525808585,0.82957467956,-1.52479288212,1.0,0.0,0.0,0.0,1.0,0.0,0.0,0.0,1.0,-5.41394165039,-6.07137451172,14.500645752,0.1,0.0,0.0,0.0,0.1,0.0,0.0,0.0,0.1
1446036917939833993,185,1446036917936172962,robocape,-14.9413838129,16.322838475,20.5877878892,0.0,10.0,0.0,0.0,0.0,10.0,0.0,0.0,0.0,10.0,1.9674102553,0.0229031853747,-0.180296005798,1.0,0.0,0.0,0.0,1.0,0.0,0.0,0.0,1.0,-2.85127075195,2.49800537109,7.29642700195,0.1,0.0,0.0,0.0,0.1,0.0,0.0,0.0,0.1
1446036917974062202,186,1446036917970901966,robocape,-14.8659615677,16.5700660052,22.186453131,0.0,10.0,0.0,0.0,0.0,10.0,0.0,0.0,0.0,10.0,-0.253399777721,-0.0402137324602,0.883636849688,1.0,0.0,0.0,0.0,1.0,0.0,0.0,0.0,1.0,2.28245361328,6.14801513672,9.8902331543,0.1,0.0,0.0,0.0,0.1,0.0,0.0,0.0,0.1
1446036918007060160,187,1446036918003948926,robocape,-18.2184094561,16.2673928432,23.9429560826,0.0,10.0,0.0,0.0,0.0,10.0,0.0,0.0,0.0,10.0,-2.13572203619,-0.33289513626,0.943025341997,1.0,0.0,0.0,0.0,1.0,0.0,0.0,0.0,1.0,-2.79618530273,3.75658813477,5.25826538086,0.1,0.0,0.0,0.0,0.1,0.0,0.0,0.0,0.1
1446036918039709702,188,1446036918036312103,robocape,-22.6981709653,16.0475658106,23.8768712528,0.0,10.0,0.0,0.0,0.0,10.0,0.0,0.0,0.0,10.0,-2.47780507821,-0.0304931944814,0.0719053494321,1.0,0.0,0.0,0.0,1.0,0.0,0.0,0.0,1.0,3.61408447266,-4.22720947266,8.4723815918,0.1,0.0,0.0,0.0,0.1,0.0,0.0,0.0,0.1
1446036918072351493,189,1446036918068849086,robocape,-25.1144365304,15.9166084714,21.3374024505,0.0,10.0,0.0,0.0,0.0,10.0,0.0,0.0,0.0,10.0,-0.940229022852,0.473243725707,-1.15980665473,1.0,0.0,0.0,0.0,1.0,0.0,0.0,0.0,1.0,0.358055419922,-9.4232043457,12.1032312012,0.1,0.0,0.0,0.0,0.1,0.0,0.0,0.0,0.1
1446036918105568118,190,1446036918102375030,robocape,-24.2101807991,16.0907578152,18.8365174118,0.0,10.0,0.0,0.0,0.0,10.0,0.0,0.0,0.0,10.0,0.879775266108,0.587493336471,-1.14475979457,1.0,0.0,0.0,0.0,1.0,0.0,0.0,0.0,1.0,-1.68848876953,-5.78756469727,12.4121887207,0.1,0.0,0.0,0.0,0.1,0.0,0.0,0.0,0.1
1446036918138936327,191,1446036918135679006,robocape,-21.6454019186,15.7865462722,17.8757213365,0.0,10.0,0.0,0.0,0.0,10.0,0.0,0.0,0.0,10.0,1.53704342314,0.0139815957229,-0.556733825881,1.0,0.0,0.0,0.0,1.0,0.0,0.0,0.0,1.0,-8.00295776367,-2.07648193359,9.20765258789,0.1,0.0,0.0,0.0,0.1,0.0,0.0,0.0,0.1
1446036918173365035,192,1446036918169378995,robocape,-19.9128945909,15.7428256003,17.8966122052,0.0,10.0,0.0,0.0,0.0,10.0,0.0,0.0,0.0,10.0,0.908670563935,-0.0275637172823,-0.00239684498107,1.0,0.0,0.0,0.0,1.0,0.0,0.0,0.0,1.0,-0.634680175781,1.53161499023,8.40053100586,0.1,0.0,0.0,0.0,0.1,0.0,0.0,0.0,0.1
1446036918205854285,193,1446036918202795028,robocape,-20.7306777585,15.5878865906,19.0519509211,0.0,10.0,0.0,0.0,0.0,10.0,0.0,0.0,0.0,10.0,-0.664059217811,-0.241282394761,0.584697017327,1.0,0.0,0.0,0.0,1.0,0.0,0.0,0.0,1.0,-0.494571533203,4.67986816406,7.38624023438,0.1,0.0,0.0,0.0,0.1,0.0,0.0,0.0,0.1
1446036918238544035,194,1446036918235235929,robocape,-24.1472531126,15.3763052407,20.2336093165,0.0,10.0,0.0,0.0,0.0,10.0,0.0,0.0,0.0,10.0,-2.1093567414,-0.264851370408,0.639691293837,1.0,0.0,0.0,0.0,1.0,0.0,0.0,0.0,1.0,1.8010546875,2.33035400391,8.71427856445,0.1,0.0,0.0,0.0,0.1,0.0,0.0,0.0,0.1
1446036918271796494,195,1446036918268675088,robocape,-29.0783089995,14.8997214441,20.5653137648,0.0,10.0,0.0,0.0,0.0,10.0,0.0,0.0,0.0,10.0,-2.85730553355,-0.223971847676,0.206794458645,1.0,0.0,0.0,0.0,1.0,0.0,0.0,0.0,1.0,5.98874633789,-2.32316894531,6.72880737305,0.1,0.0,0.0,0.0,0.1,0.0,0.0,0.0,0.1
1446036918304407285,196,1446036918301259040,robocape,-33.5368215453,14.4905020036,19.3416784397,0.0,10.0,0.0,0.0,0.0,10.0,0.0,0.0,0.0,10.0,-2.40137235492,0.200669188137,-0.494682172482,1.0,0.0,0.0,0.0,1.0,0.0,0.0,0.0,1.0,-0.629890136719,-4.21403686523,8.813671875,0.1,0.0,0.0,0.0,0.1,0.0,0.0,0.0,0.1
1446036918336904952,197,1446036918333851099,robocape,-36.4929226132,13.8257633381,18.574157892,0.0,10.0,0.0,0.0,0.0,10.0,0.0,0.0,0.0,10.0,-1.65728514636,-0.0167779148675,-0.399341005457,1.0,0.0,0.0,0.0,1.0,0.0,0.0,0.0,1.0,19.6194012451,-2.22018310547,9.83634521484,0.1,0.0,0.0,0.0,0.1,0.0,0.0,0.0,0.1
1446036918370222452,198,1446036918367139101,robocape,-38.776091754,14.5167916996,15.924142745,0.0,10.0,0.0,0.0,0.0,10.0,0.0,0.0,0.0,10.0,-1.02078964583,1.14715663955,-0.758734594564,1.0,0.0,0.0,0.0,1.0,0.0,0.0,0.0,1.0,6.88089111328,-8.48794921875,10.4949755859,0.1,0.0,0.0,0.0,0.1,0.0,0.0,0.0,0.1
1446036918402862910,199,1446036918399621009,robocape,-37.7647532525,15.1047411349,12.986593172,0.0,10.0,0.0,0.0,0.0,10.0,0.0,0.0,0.0,10.0,0.986434867765,1.1455587429,-1.00734068232,1.0,0.0,0.0,0.0,1.0,0.0,0.0,0.0,1.0,2.53033813477,-9.05916137695,16.518449707,0.1,0.0,0.0,0.0,0.1,0.0,0.0,0.0,0.1
1446036918436068952,200,1446036918432877063,robocape,-35.2659905752,14.778276514,11.9465157613,0.0,10.0,0.0,0.0,0.0,10.0,0.0,0.0,0.0,10.0,1.56434082431,0.142345960265,-0.576840692111,1.0,0.0,0.0,0.0,1.0,0.0,0.0,0.0,1.0,-0.100590820313,-2.2573059082,8.85917724609,0.1,0.0,0.0,0.0,0.1,0.0,0.0,0.0,0.1
1446036918470954744,201,1446036918467338085,robocape,-32.7686084821,15.2398387927,10.0531186141,0.0,10.0,0.0,0.0,0.0,10.0,0.0,0.0,0.0,10.0,1.66380989103,0.701077156963,-0.702541895563,1.0,0.0,0.0,0.0,1.0,0.0,0.0,0.0,1.0,-1.59867553711,-2.24173828125,13.1426696777,0.1,0.0,0.0,0.0,0.1,0.0,0.0,0.0,0.1
1446036918502844077,202,1446036918499646902,robocape,-29.9705359707,15.069230416,8.42134858943,0.0,10.0,0.0,0.0,0.0,10.0,0.0,0.0,0.0,10.0,1.79204109751,0.310924057267,-0.793622004844,1.0,0.0,0.0,0.0,1.0,0.0,0.0,0.0,1.0,-3.37098999023,-1.16637451172,11.1883337402,0.1,0.0,0.0,0.0,0.1,0.0,0.0,0.0,0.1
1446036918535647577,203,1446036918532716035,robocape,-27.2881287251,15.0137073432,7.51920035905,0.0,10.0,0.0,0.0,0.0,10.0,0.0,0.0,0.0,10.0,1.59390191241,0.162585984549,-0.441418950681,1.0,0.0,0.0,0.0,1.0,0.0,0.0,0.0,1.0,-1.88967041016,-0.299377441406,9.26393554688,0.1,0.0,0.0,0.0,0.1,0.0,0.0,0.0,0.1
1446036918571928952,204,1446036918567594051,robocape,-25.0277853048,14.739930392,6.73635658898,0.0,10.0,0.0,0.0,0.0,10.0,0.0,0.0,0.0,10.0,1.33291212558,0.0237021337017,-0.436225786555,1.0,0.0,0.0,0.0,1.0,0.0,0.0,0.0,1.0,3.70270019531,-1.06578369141,10.0985998535,0.1,0.0,0.0,0.0,0.1,0.0,0.0,0.0,0.1
1446036918603344952,205,1446036918599836111,robocape,-22.7360276814,15.1927085941,5.28315560806,0.0,10.0,0.0,0.0,0.0,10.0,0.0,0.0,0.0,10.0,1.42865276677,0.4952148047,-0.588425442853,1.0,0.0,0.0,0.0,1.0,0.0,0.0,0.0,1.0,6.92639648438,-2.2573059082,10.0327368164,0.1,0.0,0.0,0.0,0.1,0.0,0.0,0.0,0.1
1446036918635867035,206,1446036918632842063,robocape,-19.9616457226,14.999034886,4.13517228391,0.0,10.0,0.0,0.0,0.0,10.0,0.0,0.0,0.0,10.0,1.64823039865,0.0898816867902,-0.591221761998,1.0,0.0,0.0,0.0,1.0,0.0,0.0,0.0,1.0,-3.14945068359,-1.78668457031,9.66390380859,0.1,0.0,0.0,0.0,0.1,0.0,0.0,0.0,0.1
1446036918669638327,207,1446036918666362047,robocape,-17.1193268367,14.957076322,3.48637298921,0.0,10.0,0.0,0.0,0.0,10.0,0.0,0.0,0.0,10.0,1.60082613125,0.0635163919984,-0.326769865753,1.0,0.0,0.0,0.0,1.0,0.0,0.0,0.0,1.0,-0.221539306641,2.06809936523,8.71188354492,0.1,0.0,0.0,0.0,0.1,0.0,0.0,0.0,0.1
1446036918703021660,208,1446036918699769973,robocape,-15.8842504488,15.1577241182,3.96928874483,0.0,10.0,0.0,0.0,0.0,10.0,0.0,0.0,0.0,10.0,0.573378582694,0.0380832035881,0.266848741226,1.0,0.0,0.0,0.0,1.0,0.0,0.0,0.0,1.0,-2.77103759766,3.06322998047,9.50942504883,0.1,0.0,0.0,0.0,0.1,0.0,0.0,0.0,0.1
1446036918735973410,209,1446036918732876062,robocape,-16.6772009353,15.2960700551,4.66587878745,0.0,10.0,0.0,0.0,0.0,10.0,0.0,0.0,0.0,10.0,-0.543418020431,-0.00199737081756,0.370712023739,1.0,0.0,0.0,0.0,1.0,0.0,0.0,0.0,1.0,1.9124230957,2.11839477539,9.2387878418,0.1,0.0,0.0,0.0,0.1,0.0,0.0,0.0,0.1
1446036918770215369,210,1446036918767075061,robocape,-18.9711704271,15.3095488384,5.15929522462,0.0,10.0,0.0,0.0,0.0,10.0,0.0,0.0,0.0,10.0,-1.32598790675,-0.0280963495003,0.26045715461,1.0,0.0,0.0,0.0,1.0,0.0,0.0,0.0,1.0,2.18904785156,0.0502954101563,9.99681152344,0.1,0.0,0.0,0.0,0.1,0.0,0.0,0.0,0.1
1446036918803157119,211,1446036918799938917,robocape,-21.4190372791,14.7756760223,4.94259471797,0.0,10.0,0.0,0.0,0.0,10.0,0.0,0.0,0.0,10.0,-1.31253894325,-0.186421276306,-0.179497057471,1.0,0.0,0.0,0.0,1.0,0.0,0.0,0.0,1.0,-3.29434936523,-2.09204956055,9.22322021484,0.1,0.0,0.0,0.0,0.1,0.0,0.0,0.0,0.1
1446036918838594119,212,1446036918835525035,robocape,-23.8488154224,14.2639248642,4.78064698909,0.0,10.0,0.0,0.0,0.0,10.0,0.0,0.0,0.0,10.0,-1.32598790675,-0.174836525564,-0.156460714042,1.0,0.0,0.0,0.0,1.0,0.0,0.0,0.0,1.0,-4.49545166016,-0.959205322266,7.39821533203,0.1,0.0,0.0,0.0,0.1,0.0,0.0,0.0,0.1
1446036918869240077,213,1446036918866085052,robocape,-26.6552652887,14.0962280343,4.87583425174,0.0,10.0,0.0,0.0,0.0,10.0,0.0,0.0,0.0,10.0,-1.59296980603,-0.0472711093489,0.0376837294246,1.0,0.0,0.0,0.0,1.0,0.0,0.0,0.0,1.0,-2.19383789063,-0.111368408203,7.91553955078,0.1,0.0,0.0,0.0,0.1,0.0,0.0,0.0,0.1
1446036918903064535,214,1446036918899811029,robocape,-29.9382705222,13.2728170777,5.29769041921,0.0,10.0,0.0,0.0,0.0,10.0,0.0,0.0,0.0,10.0,-1.91760914291,-0.424907351922,0.0230363434292,1.0,0.0,0.0,0.0,1.0,0.0,0.0,0.0,1.0,2.41657470703,0.0742456054688,8.01972290039,0.1,0.0,0.0,0.0,0.1,0.0,0.0,0.0,0.1
1446036918935659786,215,1446036918932672023,robocape,-33.6601322801,14.2821283338,4.20103912695,0.0,10.0,0.0,0.0,0.0,10.0,0.0,0.0,0.0,10.0,-2.03625296947,0.829308363451,-0.140881221665,1.0,0.0,0.0,0.0,1.0,0.0,0.0,0.0,1.0,15.1473010254,-5.06666381836,13.0145361328,0.1,0.0,0.0,0.0,0.1,0.0,0.0,0.0,0.1
1446036918969436244,216,1446036918966308116,robocape,-35.568612894,12.7345204519,2.93654149106,0.0,10.0,0.0,0.0,0.0,10.0,0.0,0.0,0.0,10.0,-0.955941673284,-0.263386631809,-0.970189585116,1.0,0.0,0.0,0.0,1.0,0.0,0.0,0.0,1.0,19.6194012451,-8.68553833008,12.1259838867,0.1,0.0,0.0,0.0,0.1,0.0,0.0,0.0,0.1
1446036919002869661,217,1446036918999638080,robocape,-33.5130478193,12.2893449709,-0.276710591176,0.0,10.0,0.0,0.0,0.0,10.0,0.0,0.0,0.0,10.0,1.52505919823,0.707335585525,-1.49616390041,1.0,0.0,0.0,0.0,1.0,0.0,0.0,0.0,1.0,0.282612304688,-7.77303588867,14.194083252,0.1,0.0,0.0,0.0,0.1,0.0,0.0,0.0,0.1
1446036919035660577,218,1446036919032706022,robocape,-28.8851004221,12.042671043,-3.04898978548,0.0,10.0,0.0,0.0,0.0,10.0,0.0,0.0,0.0,10.0,2.88420346056,0.554070664791,-1.28737207094,1.0,0.0,0.0,0.0,1.0,0.0,0.0,0.0,1.0,-1.86811523438,-3.49433349609,8.96455810547,0.1,0.0,0.0,0.0,0.1,0.0,0.0,0.0,0.1
1446036919069423661,219,1446036919066245079,robocape,-24.887895192,10.0909609301,-4.85521990788,0.0,10.0,0.0,0.0,0.0,10.0,0.0,0.0,0.0,10.0,2.37753706317,-0.54102117545,-1.28124680044,1.0,0.0,0.0,0.0,1.0,0.0,0.0,0.0,1.0,-2.20461547852,-0.177231445313,11.7403857422,0.1,0.0,0.0,0.0,0.1,0.0,0.0,0.0,0.1
1446036919106120869,220,1446036919102906942,robocape,-20.7024976903,10.181366544,-7.04374214295,0.0,10.0,0.0,0.0,0.0,10.0,0.0,0.0,0.0,10.0,2.44864346427,0.448742643678,-1.01027015952,1.0,0.0,0.0,0.0,1.0,0.0,0.0,0.0,1.0,2.4177722168,-1.15799194336,-0.100590820313,0.1,0.0,0.0,0.0,0.1,0.0,0.0,0.0,0.1
1446036919135664369,221,1446036919132651090,robocape,-14.5219003541,10.7521612454,-7.22063956444,0.0,10.0,0.0,0.0,0.0,10.0,0.0,0.0,0.0,10.0,3.30711344166,0.269112428153,0.0223705531567,1.0,0.0,0.0,0.0,1.0,0.0,0.0,0.0,1.0,4.76010131836,1.59388549805,15.7005505371,0.1,0.0,0.0,0.0,0.1,0.0,0.0,0.0,0.1
1446036919169179161,222,1446036919166182994,robocape,-10.9148420682,10.8173117496,-5.29168026677,0.0,10.0,0.0,0.0,0.0,10.0,0.0,0.0,0.0,10.0,1.71534205812,-0.201468136464,0.981508019749,1.0,0.0,0.0,0.0,1.0,0.0,0.0,0.0,1.0,-2.20341796875,6.62821655273,6.88208862305,0.1,0.0,0.0,0.0,0.1,0.0,0.0,0.0,0.1
1446036919202844702,223,1446036919199625015,robocape,-12.3627079964,11.2117784051,-2.66421531935,0.0,10.0,0.0,0.0,0.0,10.0,0.0,0.0,0.0,10.0,-1.03596966404,-0.0567253312187,1.36273952979,1.0,0.0,0.0,0.0,1.0,0.0,0.0,0.0,1.0,-2.31478637695,9.03161865234,10.2913989258,0.1,0.0,0.0,0.0,0.1,0.0,0.0,0.0,0.1
1446036919238935827,224,1446036919235776901,robocape,-18.230841195,11.1197613683,-0.897530831206,0.0,10.0,0.0,0.0,0.0,10.0,0.0,0.0,0.0,10.0,-3.32082872127,-0.24687503305,0.864728405949,1.0,0.0,0.0,0.0,1.0,0.0,0.0,0.0,1.0,-3.13388305664,2.27047851563,7.18026855469,0.1,0.0,0.0,0.0,0.1,0.0,0.0,0.0,0.1
1446036919269435911,225,1446036919266211986,robocape,-24.4297498301,10.8139169202,-0.754901590711,0.0,10.0,0.0,0.0,0.0,10.0,0.0,0.0,0.0,10.0,-3.39739460261,-0.116113823527,0.0150468601589,1.0,0.0,0.0,0.0,1.0,0.0,0.0,0.0,1.0,3.35182983398,-2.9470715332,8.45561645508,0.1,0.0,0.0,0.0,0.1,0.0,0.0,0.0,0.1
1446036919302794244,226,1446036919299680948,robocape,-29.172027149,10.3925193498,-1.49939175953,0.0,10.0,0.0,0.0,0.0,10.0,0.0,0.0,0.0,10.0,-2.58073625434,0.0386158358061,-0.4375573671,1.0,0.0,0.0,0.0,1.0,0.0,0.0,0.0,1.0,-0.589174804688,-3.57576416016,7.82213378906,0.1,0.0,0.0,0.0,0.1,0.0,0.0,0.0,0.1
1446036919335857452,227,1446036919332818984,robocape,-32.2162757245,10.4147806445,-2.71257968183,0.0,10.0,0.0,0.0,0.0,10.0,0.0,0.0,0.0,10.0,-1.64143933787,0.386025200007,-0.530501689144,1.0,0.0,0.0,0.0,1.0,0.0,0.0,0.0,1.0,1.21187988281,-4.98044311523,12.5355322266,0.1,0.0,0.0,0.0,0.1,0.0,0.0,0.0,0.1
1446036919369176952,228,1446036919366044044,robocape,-33.1966240772,10.2939222685,-5.15304614637,0.0,10.0,0.0,0.0,0.0,10.0,0.0,0.0,0.0,10.0,-0.374973081483,0.660064476176,-1.096956053,1.0,0.0,0.0,0.0,1.0,0.0,0.0,0.0,1.0,-3.27638671875,-6.88927368164,13.7725598145,0.1,0.0,0.0,0.0,0.1,0.0,0.0,0.0,0.1
1446036919402748369,229,1446036919399733066,robocape,-30.4702081031,9.6728534728,-7.87435943686,0.0,10.0,0.0,0.0,0.0,10.0,0.0,0.0,0.0,10.0,1.7385115596,0.437690525155,-1.35475004652,1.0,0.0,0.0,0.0,1.0,0.0,0.0,0.0,1.0,-1.89326293945,-6.86652099609,13.8743481445,0.1,0.0,0.0,0.0,0.1,0.0,0.0,0.0,0.1
1446036919435915786,230,1446036919432951927,robocape,-25.8186615313,9.51968967467,-10.3244757369,0.0,10.0,0.0,0.0,0.0,10.0,0.0,0.0,0.0,10.0,2.74625171609,0.478570047887,-1.12665029916,1.0,0.0,0.0,0.0,1.0,0.0,0.0,0.0,1.0,-0.858614501953,-3.58055419922,11.4086755371,0.1,0.0,0.0,0.0,0.1,0.0,0.0,0.0,0.1
1446036919471635077,231,1446036919468528032,robocape,-20.5875339467,8.72320207857,-11.5119990207,0.0,10.0,0.0,0.0,0.0,10.0,0.0,0.0,0.0,10.0,2.91616139364,-0.186154960197,-0.692821357584,1.0,0.0,0.0,0.0,1.0,0.0,0.0,0.0,1.0,-5.07265136719,1.25259521484,5.57081542969,0.1,0.0,0.0,0.0,0.1,0.0,0.0,0.0,0.1
1446036919503134869,232,1446036919500050067,robocape,-16.2519372962,12.2039953494,-12.4173756718,0.0,10.0,0.0,0.0,0.0,10.0,0.0,0.0,0.0,10.0,2.37274337321,1.86421276306,0.143278066646,1.0,0.0,0.0,0.0,1.0,0.0,0.0,0.0,1.0,19.5816796875,3.70030517578,16.6022753906,0.1,0.0,0.0,0.0,0.1,0.0,0.0,0.0,0.1
1446036919535847452,233,1446036919532831907,robocape,-12.9646058543,13.0710735595,-13.138961895,0.0,10.0,0.0,0.0,0.0,10.0,0.0,0.0,0.0,10.0,1.80695479962,0.529303266653,-0.239950814216,1.0,0.0,0.0,0.0,1.0,0.0,0.0,0.0,1.0,-16.8992578125,2.52435058594,9.03161865234,0.1,0.0,0.0,0.0,0.1,0.0,0.0,0.0,0.1
1446036919569370577,234,1446036919566200971,robocape,-9.94279195295,8.38337929631,-12.3086055064,0.0,10.0,0.0,0.0,0.0,10.0,0.0,0.0,0.0,10.0,1.52705656905,-2.5217472362,-0.0336889877895,1.0,0.0,0.0,0.0,1.0,0.0,0.0,0.0,1.0,-1.76872192383,-0.00598754882813,-0.36404296875,0.1,0.0,0.0,0.0,0.1,0.0,0.0,0.0,0.1
1446036919603379327,235,1446036919600270032,robocape,-7.83466060314,8.8387889683,-11.803084988,0.0,10.0,0.0,0.0,0.0,10.0,0.0,0.0,0.0,10.0,1.06379969743,0.195875498175,0.294678774617,1.0,0.0,0.0,0.0,1.0,0.0,0.0,0.0,1.0,6.89166870117,0.750838623047,5.57440795898,0.1,0.0,0.0,0.0,0.1,0.0,0.0,0.0,0.1
1446036919635974036,236,1446036919632898092,robocape,-7.24713956114,11.2989287328,-11.4811257807,0.0,10.0,0.0,0.0,0.0,10.0,0.0,0.0,0.0,10.0,0.269245586207,1.27219205273,0.318913540537,1.0,0.0,0.0,0.0,1.0,0.0,0.0,0.0,1.0,-8.51429443359,5.37442382813,10.1441052246,0.1,0.0,0.0,0.0,0.1,0.0,0.0,0.0,0.1
1446036919669947494,237,1446036919666831016,robocape,-8.25408642705,10.7623513027,-12.3374189212,0.0,10.0,0.0,0.0,0.0,10.0,0.0,0.0,0.0,10.0,-0.450606856441,-0.203731823391,-0.489355850302,1.0,0.0,0.0,0.0,1.0,0.0,0.0,0.0,1.0,-11.9954553223,-2.53393066406,13.4360595703,0.1,0.0,0.0,0.0,0.1,0.0,0.0,0.0,0.1
1446036919703952744,238,1446036919700903892,robocape,-7.83473958856,9.86830787832,-13.498622512,0.0,10.0,0.0,0.0,0.0,10.0,0.0,0.0,0.0,10.0,0.321976175791,-0.368847810976,-0.670717120536,1.0,0.0,0.0,0.0,1.0,0.0,0.0,0.0,1.0,3.9122644043,-0.912502441406,7.56706420898,0.1,0.0,0.0,0.0,0.1,0.0,0.0,0.0,0.1
1446036919735820994,239,1446036919732743024,robocape,-7.39530397257,10.2353912565,-13.4756017737,0.0,10.0,0.0,0.0,0.0,10.0,0.0,0.0,0.0,10.0,0.222107634913,0.199470765647,0.0251668723012,1.0,0.0,0.0,0.0,1.0,0.0,0.0,0.0,1.0,0.831071777344,2.32556396484,10.9931396484,0.1,0.0,0.0,0.0,0.1,0.0,0.0,0.0,0.1
1446036919771117369,240,1446036919768001079,robocape,-8.58594183514,10.2708387742,-12.6517945781,0.0,10.0,0.0,0.0,0.0,10.0,0.0,0.0,0.0,10.0,-0.706403479144,-0.0315584589174,0.413056285071,1.0,0.0,0.0,0.0,1.0,0.0,0.0,0.0,1.0,0.24908203125,1.6825012207,9.81598754883,0.1,0.0,0.0,0.0,0.1,0.0,0.0,0.0,0.1
1446036919802730911,241,1446036919799458026,robocape,-10.0820239562,10.4517276814,-12.6290411078,0.0,10.0,0.0,0.0,0.0,10.0,0.0,0.0,0.0,10.0,-0.798415694806,0.107991182203,0.00985369603329,1.0,0.0,0.0,0.0,1.0,0.0,0.0,0.0,1.0,0.592767333984,0.455053710938,10.3955822754,0.1,0.0,0.0,0.0,0.1,0.0,0.0,0.0,0.1
1446036919835761244,242,1446036919832743883,robocape,-12.2348390498,10.4036453404,-12.3139829362,0.0,10.0,0.0,0.0,0.0,10.0,0.0,0.0,0.0,10.0,-1.17458719878,-0.0382163616426,0.136487005867,1.0,0.0,0.0,0.0,1.0,0.0,0.0,0.0,1.0,-4.11464355469,0.931662597656,8.77415405273,0.1,0.0,0.0,0.0,0.1,0.0,0.0,0.0,0.1
1446036919870124994,243,1446036919867049932,robocape,-15.3427364955,10.4165624039,-11.7026587125,0.0,10.0,0.0,0.0,0.0,10.0,0.0,0.0,0.0,10.0,-1.71560837423,-0.0442084740953,0.285224552747,1.0,0.0,0.0,0.0,1.0,0.0,0.0,0.0,1.0,-2.56027587891,1.31726074219,9.2316027832,0.1,0.0,0.0,0.0,0.1,0.0,0.0,0.0,0.1
1446036919903000786,244,1446036919899789094,robocape,-19.1557597408,10.5060536791,-11.288742546,0.0,10.0,0.0,0.0,0.0,10.0,0.0,0.0,0.0,10.0,-2.09271198458,0.0183758115215,0.187087066578,1.0,0.0,0.0,0.0,1.0,0.0,0.0,0.0,1.0,-0.397573242188,0.599952392578,10.0291442871,0.1,0.0,0.0,0.0,0.1,0.0,0.0,0.0,0.1
1446036919936167953,245,1446036919933146953,robocape,-23.2537965671,10.9284601683,-11.2470416181,0.0,10.0,0.0,0.0,0.0,10.0,0.0,0.0,0.0,10.0,-2.24557743115,0.252867145503,0.0604537567448,1.0,0.0,0.0,0.0,1.0,0.0,0.0,0.0,1.0,-2.40819213867,-0.47900390625,9.04479125977,0.1,0.0,0.0,0.0,0.1,0.0,0.0,0.0,0.1
1446036919974094786,246,1446036919969877958,robocape,-26.9299436134,10.5946696026,-11.7300369075,0.0,10.0,0.0,0.0,0.0,10.0,0.0,0.0,0.0,10.0,-1.99856924005,0.00785632521573,-0.34354778062,1.0,0.0,0.0,0.0,1.0,0.0,0.0,0.0,1.0,1.4944921875,-3.28237426758,11.3356274414,0.1,0.0,0.0,0.0,0.1,0.0,0.0,0.0,0.1
1446036920005657619,247,1446036920002203941,robocape,-27.8903082828,10.2554485934,-13.833789443,0.0,10.0,0.0,0.0,0.0,10.0,0.0,0.0,0.0,10.0,-0.385492567789,0.384027829189,-1.07778129316,1.0,0.0,0.0,0.0,1.0,0.0,0.0,0.0,1.0,3.29315185547,-5.93845092773,12.0409606934,0.1,0.0,0.0,0.0,0.1,0.0,0.0,0.0,0.1
1446036920035746661,248,1446036920032763957,robocape,-26.5912770738,9.86066434862,-15.9566265753,0.0,10.0,0.0,0.0,0.0,10.0,0.0,0.0,0.0,10.0,0.852477864934,0.329566184897,-1.07937918981,1.0,0.0,0.0,0.0,1.0,0.0,0.0,0.0,1.0,-2.13396240234,-3.28476928711,10.2985839844,0.1,0.0,0.0,0.0,0.1,0.0,0.0,0.0,0.1
1446036920069185119,249,1446036920066191911,robocape,-25.4353438575,9.80598673829,-16.453740823,0.0,10.0,0.0,0.0,0.0,10.0,0.0,0.0,0.0,10.0,0.638093397183,0.0933437962073,-0.249804510249,1.0,0.0,0.0,0.0,1.0,0.0,0.0,0.0,1.0,-0.434696044922,3.15663574219,9.2699230957,0.1,0.0,0.0,0.0,0.1,0.0,0.0,0.0,0.1
1446036920107905786,250,1446036920104182958,robocape,-26.2419839883,9.69501703843,-15.7152828148,0.0,10.0,0.0,0.0,0.0,10.0,0.0,0.0,0.0,10.0,-0.531034321362,-0.19600865623,0.294279300454,1.0,0.0,0.0,0.0,1.0,0.0,0.0,0.0,1.0,-1.37234619141,4.69902832031,8.89270751953,0.1,0.0,0.0,0.0,0.1,0.0,0.0,0.0,0.1
1446036920135800286,251,1446036920132786989,robocape,-29.2925579305,9.64650857131,-14.8008145759,0.0,10.0,0.0,0.0,0.0,10.0,0.0,0.0,0.0,10.0,-1.79137530724,-0.191214966268,0.355398847471,1.0,0.0,0.0,0.0,1.0,0.0,0.0,0.0,1.0,0.603544921875,2.27766357422,8.88312744141,0.1,0.0,0.0,0.0,0.1,0.0,0.0,0.0,0.1
1446036920169290786,252,1446036920166184902,robocape,-33.3798523903,9.77232280538,-15.1150356408,0.0,10.0,0.0,0.0,0.0,10.0,0.0,0.0,0.0,10.0,-2.32174383833,0.228765537638,-0.184290747433,1.0,0.0,0.0,0.0,1.0,0.0,0.0,0.0,1.0,7.86404663086,-2.2644909668,13.7090917969,0.1,0.0,0.0,0.0,0.1,0.0,0.0,0.0,0.1
1446036920203289994,253,1446036920199644088,robocape,-36.8270232448,9.97162388417,-16.2484168591,0.0,10.0,0.0,0.0,0.0,10.0,0.0,0.0,0.0,10.0,-1.95169760486,0.525308525018,-0.507731661824,1.0,0.0,0.0,0.0,1.0,0.0,0.0,0.0,1.0,-6.667734375,-2.96623168945,14.1964782715,0.1,0.0,0.0,0.0,0.1,0.0,0.0,0.0,0.1
1446036920235994828,254,1446036920232899904,robocape,-39.2604676241,9.48720023931,-17.2923940599,0.0,10.0,0.0,0.0,0.0,10.0,0.0,0.0,0.0,10.0,-1.4116085358,0.224770796003,-0.664059217811,1.0,0.0,0.0,0.0,1.0,0.0,0.0,0.0,1.0,0.366437988281,-1.76033935547,12.7594665527,0.1,0.0,0.0,0.0,0.1,0.0,0.0,0.0,0.1
1446036920269609203,255,1446036920266472101,robocape,-41.1247246294,8.96905505377,-18.0008936031,0.0,10.0,0.0,0.0,0.0,10.0,0.0,0.0,0.0,10.0,-1.13344135994,0.112119081892,-0.533298008288,1.0,0.0,0.0,0.0,1.0,0.0,0.0,0.0,1.0,-2.29921875,-1.46096191406,7.87721923828,0.1,0.0,0.0,0.0,0.1,0.0,0.0,0.0,0.1
1446036920303126328,256,1446036920299398899,robocape,-42.9808853648,9.15916664598,-18.9591602515,0.0,10.0,0.0,0.0,0.0,10.0,0.0,0.0,0.0,10.0,-1.14222979153,0.501340075207,-0.389753625533,1.0,0.0,0.0,0.0,1.0,0.0,0.0,0.0,1.0,-3.09436523438,-4.981640625,12.0218005371,0.1,0.0,0.0,0.0,0.1,0.0,0.0,0.0,0.1
1446036920335814828,257,1446036920332768917,robocape,-43.1958356559,8.88856534896,-20.6231269456,0.0,10.0,0.0,0.0,0.0,10.0,0.0,0.0,0.0,10.0,-0.133424370613,0.548211710393,-0.7864314699,1.0,0.0,0.0,0.0,1.0,0.0,0.0,0.0,1.0,1.79506713867,-7.53712646484,14.1210351563,0.1,0.0,0.0,0.0,0.1,0.0,0.0,0.0,0.1
1446036920369249411,258,1446036920366156101,robocape,-42.494773694,8.73608493512,-21.5579852066,0.0,10.0,0.0,0.0,0.0,10.0,0.0,0.0,0.0,10.0,0.36898096903,0.300537729015,-0.439821054027,1.0,0.0,0.0,0.0,1.0,0.0,0.0,0.0,1.0,7.95984741211,-2.36148925781,10.9500292969,0.1,0.0,0.0,0.0,0.1,0.0,0.0,0.0,0.1
1446036920403067078,259,1446036920399579048,robocape,-42.719080272,8.42615165323,-21.7495794064,0.0,10.0,0.0,0.0,0.0,10.0,0.0,0.0,0.0,10.0,-0.222240792967,-0.00466053190764,-0.235023966199,1.0,0.0,0.0,0.0,1.0,0.0,0.0,0.0,1.0,-0.136516113281,0.238304443359,6.44978759766,0.1,0.0,0.0,0.0,0.1,0.0,0.0,0.0,0.1
1446036920435889828,260,1446036920432872056,robocape,-43.2530797977,8.24548497377,-22.2892137864,0.0,10.0,0.0,0.0,0.0,10.0,0.0,0.0,0.0,10.0,-0.395745737986,0.183624957161,-0.33822145844,1.0,0.0,0.0,0.0,1.0,0.0,0.0,0.0,1.0,1.28373046875,-5.59356811523,11.4541809082,0.1,0.0,0.0,0.0,0.1,0.0,0.0,0.0,0.1
1446036920471590203,261,1446036920468342065,robocape,-42.8052294186,8.0299467295,-23.4906514988,0.0,10.0,0.0,0.0,0.0,10.0,0.0,0.0,0.0,10.0,0.216648154678,0.38669099028,-0.582566488455,1.0,0.0,0.0,0.0,1.0,0.0,0.0,0.0,1.0,-0.674197998047,-4.83314941406,11.4697485352,0.1,0.0,0.0,0.0,0.1,0.0,0.0,0.0,0.1
1446036920503018370,262,1446036920499871969,robocape,-42.4952981172,7.89057482259,-24.2727498166,0.0,10.0,0.0,0.0,0.0,10.0,0.0,0.0,0.0,10.0,0.11411645271,0.264718212354,-0.40000679573,1.0,0.0,0.0,0.0,1.0,0.0,0.0,0.0,1.0,-1.91841064453,-1.28732299805,8.34784057617,0.1,0.0,0.0,0.0,0.1,0.0,0.0,0.0,0.1
1446036920535883161,263,1446036920532887935,robocape,-42.1803848794,8.1889956154,-25.672378492,0.0,10.0,0.0,0.0,0.0,10.0,0.0,0.0,0.0,10.0,0.141547011938,0.659665002013,-0.497744807736,1.0,0.0,0.0,0.0,1.0,0.0,0.0,0.0,1.0,0.975970458984,-2.68840942383,13.2252978516,0.1,0.0,0.0,0.0,0.1,0.0,0.0,0.0,0.1
1446036920569526578,264,1446036920566297054,robocape,-40.5555602136,7.97337528199,-28.3369240664,0.0,10.0,0.0,0.0,0.0,10.0,0.0,0.0,0.0,10.0,0.963132208227,0.86978841202,-1.16380139636,1.0,0.0,0.0,0.0,1.0,0.0,0.0,0.0,1.0,-8.49633178711,-5.17922973633,13.2672106934,0.1,0.0,0.0,0.0,0.1,0.0,0.0,0.0,0.1
1446036920603124370,265,1446036920599646091,robocape,-37.0223794658,7.42668772427,-31.150029585,0.0,10.0,0.0,0.0,0.0,10.0,0.0,0.0,0.0,10.0,2.0592893129,0.685763980695,-1.30934314994,1.0,0.0,0.0,0.0,1.0,0.0,0.0,0.0,1.0,0.838256835938,-5.73726928711,11.9930603027,0.1,0.0,0.0,0.0,0.1,0.0,0.0,0.0,0.1
1446036920637428786,266,1446036920634387969,robocape,-31.6930762738,6.57279656191,-33.3074249959,0.0,10.0,0.0,0.0,0.0,10.0,0.0,0.0,0.0,10.0,3.01389940564,0.213319203315,-1.09309446942,1.0,0.0,0.0,0.0,1.0,0.0,0.0,0.0,1.0,-7.17787353516,-0.443078613281,5.24868530273,0.1,0.0,0.0,0.0,0.1,0.0,0.0,0.0,0.1
1446036920669185953,267,1446036920666121006,robocape,-26.9935074724,6.47320608319,-34.3172732484,0.0,10.0,0.0,0.0,0.0,10.0,0.0,0.0,0.0,10.0,2.57927151574,0.175102841673,-0.409993649818,1.0,0.0,0.0,0.0,1.0,0.0,0.0,0.0,1.0,-0.264649658203,3.51349365234,7.63053222656,0.1,0.0,0.0,0.0,0.1,0.0,0.0,0.0,0.1
1446036920702540161,268,1446036920699472904,robocape,-25.251728542,6.4612954091,-33.5391622961,0.0,10.0,0.0,0.0,0.0,10.0,0.0,0.0,0.0,10.0,0.885101588288,-0.195476024012,0.387090464443,1.0,0.0,0.0,0.0,1.0,0.0,0.0,0.0,1.0,1.42264160156,7.45449829102,7.78501098633,0.1,0.0,0.0,0.0,0.1,0.0,0.0,0.0,0.1
1446036920735985661,269,1446036920732892036,robocape,-27.6888445792,6.43650970676,-31.5388255058,0.0,10.0,0.0,0.0,0.0,10.0,0.0,0.0,0.0,10.0,-1.43557698561,-0.454734756131,0.876845788909,1.0,0.0,0.0,0.0,1.0,0.0,0.0,0.0,1.0,-2.03217407227,4.51341430664,4.71100341797,0.1,0.0,0.0,0.0,0.1,0.0,0.0,0.0,0.1
1446036920769387286,270,1446036920766211032,robocape,-32.6804775397,6.91529840024,-30.6112351681,0.0,10.0,0.0,0.0,0.0,10.0,0.0,0.0,0.0,10.0,-2.86076764296,0.0601874406358,0.365518859613,1.0,0.0,0.0,0.0,1.0,0.0,0.0,0.0,1.0,0.0455053710938,1.04422851562,9.36811889648,0.1,0.0,0.0,0.0,0.1,0.0,0.0,0.0,0.1
1446036920803032245,271,1446036920799977064,robocape,-37.7923482984,7.57314410053,-31.2921296406,0.0,10.0,0.0,0.0,0.0,10.0,0.0,0.0,0.0,10.0,-2.97408514735,0.643952351581,-0.363787804905,1.0,0.0,0.0,0.0,1.0,0.0,0.0,0.0,1.0,0.857416992188,-3.39374267578,12.6145678711,0.1,0.0,0.0,0.0,0.1,0.0,0.0,0.0,0.1
1446036920835859870,272,1446036920832811117,robocape,-41.1443212268,7.25977834612,-32.2535698944,0.0,10.0,0.0,0.0,0.0,10.0,0.0,0.0,0.0,10.0,-2.03319033422,0.35153726389,-0.748348266312,1.0,0.0,0.0,0.0,1.0,0.0,0.0,0.0,1.0,-2.38663696289,-5.01876342773,12.3762634277,0.1,0.0,0.0,0.0,0.1,0.0,0.0,0.0,0.1
1446036920869568911,273,1446036920866338968,robocape,-40.8559486049,7.04312266694,-35.2625842077,0.0,10.0,0.0,0.0,0.0,10.0,0.0,0.0,0.0,10.0,0.115048559091,1.06433232965,-1.44383278499,1.0,0.0,0.0,0.0,1.0,0.0,0.0,0.0,1.0,5.57321044922,-11.2170739746,14.1270227051,0.1,0.0,0.0,0.0,0.1,0.0,0.0,0.0,0.1
1446036920902751203,274,1446036920899759054,robocape,-37.1230510227,7.21904819373,-39.2366910257,0.0,10.0,0.0,0.0,0.0,10.0,0.0,0.0,0.0,10.0,2.14198046475,1.41839959658,-1.6217319458,1.0,0.0,0.0,0.0,1.0,0.0,0.0,0.0,1.0,-6.24740844727,-6.92040893555,15.312557373,0.1,0.0,0.0,0.0,0.1,0.0,0.0,0.0,0.1
1446036920940900661,275,1446036920937757015,robocape,-31.286090691,6.78249284754,-41.5386475352,0.0,10.0,0.0,0.0,0.0,10.0,0.0,0.0,0.0,10.0,3.26476918033,0.441152634572,-1.03969808957,1.0,0.0,0.0,0.0,1.0,0.0,0.0,0.0,1.0,-1.04782104492,-1.9579284668,12.4397314453,0.1,0.0,0.0,0.0,0.1,0.0,0.0,0.0,0.1
1446036920969484245,276,1446036920966305017,robocape,-25.4158847515,6.65266083359,-42.9106855013,0.0,10.0,0.0,0.0,0.0,10.0,0.0,0.0,0.0,10.0,3.20751121689,0.24035028838,-0.575375953512,1.0,0.0,0.0,0.0,1.0,0.0,0.0,0.0,1.0,-4.95888793945,0.197589111328,5.05828125,0.1,0.0,0.0,0.0,0.1,0.0,0.0,0.0,0.1
1446036921002770536,277,1446036920999705076,robocape,-20.6850585857,7.26636047383,-43.4113222932,0.0,10.0,0.0,0.0,0.0,10.0,0.0,0.0,0.0,10.0,2.53066882585,0.3784351909,-0.0652474467069,1.0,0.0,0.0,0.0,1.0,0.0,0.0,0.0,1.0,6.37075195313,2.25012084961,10.0183666992,0.1,0.0,0.0,0.0,0.1,0.0,0.0,0.0,0.1
1446036921035780245,278,1446036921032810926,robocape,-17.9367911602,6.76193101865,-43.2825611372,0.0,10.0,0.0,0.0,0.0,10.0,0.0,0.0,0.0,10.0,1.42931855705,-0.269778218425,-0.0291616139364,1.0,0.0,0.0,0.0,1.0,0.0,0.0,0.0,1.0,0.198786621094,2.59141113281,9.5453503418,0.1,0.0,0.0,0.0,0.1,0.0,0.0,0.0,0.1
1446036921069500620,279,1446036921066294908,robocape,-16.3276081252,6.86911882024,-43.6003336874,0.0,10.0,0.0,0.0,0.0,10.0,0.0,0.0,0.0,10.0,0.83756416283,0.127831732324,-0.221974476858,1.0,0.0,0.0,0.0,1.0,0.0,0.0,0.0,1.0,-5.45705200195,0.105380859375,9.13819702148,0.1,0.0,0.0,0.0,0.1,0.0,0.0,0.0,0.1
1446036921102938287,280,1446036921099574089,robocape,-14.9251511549,7.38216040907,-44.1605171375,0.0,10.0,0.0,0.0,0.0,10.0,0.0,0.0,0.0,10.0,0.740625099151,0.37191044623,-0.31957933081,1.0,0.0,0.0,0.0,1.0,0.0,0.0,0.0,1.0,-5.93845092773,-1.02387084961,12.2038220215,0.1,0.0,0.0,0.0,0.1,0.0,0.0,0.0,0.1
1446036921136226662,281,1446036921133163928,robocape,-13.2437164376,6.99275829596,-44.5276013467,0.0,10.0,0.0,0.0,0.0,10.0,0.0,0.0,0.0,10.0,0.883370533579,-0.124236464852,-0.329166710734,1.0,0.0,0.0,0.0,1.0,0.0,0.0,0.0,1.0,0.329315185547,-0.410745849609,10.4267175293,0.1,0.0,0.0,0.0,0.1,0.0,0.0,0.0,0.1
1446036921169567537,282,1446036921166384935,robocape,-11.3281227928,6.78451764564,-44.9231390467,0.0,10.0,0.0,0.0,0.0,10.0,0.0,0.0,0.0,10.0,1.00987068536,-0.0364853069341,-0.32344091439,1.0,0.0,0.0,0.0,1.0,0.0,0.0,0.0,1.0,-5.13013183594,-0.659827880859,8.38376586914,0.1,0.0,0.0,0.0,0.1,0.0,0.0,0.0,0.1
1446036921202908245,283,1446036921199807882,robocape,-9.12479852008,6.67661000037,-45.3951178552,0.0,10.0,0.0,0.0,0.0,10.0,0.0,0.0,0.0,10.0,1.16806245411,0.0147805440499,-0.361923592142,1.0,0.0,0.0,0.0,1.0,0.0,0.0,0.0,1.0,-1.28971801758,-0.253872070313,10.8123156738,0.1,0.0,0.0,0.0,0.1,0.0,0.0,0.0,0.1
1446036921235976203,284,1446036921232898950,robocape,-6.67021752517,6.34381205734,-45.7217424073,0.0,10.0,0.0,0.0,0.0,10.0,0.0,0.0,0.0,10.0,1.29642681865,-0.127032783997,-0.296276671271,1.0,0.0,0.0,0.0,1.0,0.0,0.0,0.0,1.0,-2.25610839844,0.484991455078,8.77654907227,0.1,0.0,0.0,0.0,0.1,0.0,0.0,0.0,0.1
1446036921269301953,285,1446036921266153097,robocape,-4.04574183524,6.40991029624,-46.1108249551,0.0,10.0,0.0,0.0,0.0,10.0,0.0,0.0,0.0,10.0,1.39363219844,0.0772316716123,-0.322775124118,1.0,0.0,0.0,0.0,1.0,0.0,0.0,0.0,1.0,-0.0107775878906,0.113763427734,8.92384277344,0.1,0.0,0.0,0.0,0.1,0.0,0.0,0.0,0.1
1446036921307014537,286,1446036921303361892,robocape,-1.36565256561,6.83971286192,-46.3393928364,0.0,10.0,0.0,0.0,0.0,10.0,0.0,0.0,0.0,10.0,1.42106275767,0.253266619667,-0.23768712729,1.0,0.0,0.0,0.0,1.0,0.0,0.0,0.0,1.0,0.82388671875,0.961600341797,9.80401245117,0.1,0.0,0.0,0.0,0.1,0.0,0.0,0.0,0.1
1446036921335892620,287,1446036921332837104,robocape,1.25612225292,6.69682011863,-46.4276624606,0.0,10.0,0.0,0.0,0.0,10.0,0.0,0.0,0.0,10.0,1.38923798264,-0.0560595409462,-0.172040206419,1.0,0.0,0.0,0.0,1.0,0.0,0.0,0.0,1.0,4.77926147461,1.54359008789,10.2207458496,0.1,0.0,0.0,0.0,0.1,0.0,0.0,0.0,0.1
1446036921369296662,288,1446036921366094112,robocape,2.99153345615,6.35684636421,-45.6843321114,0.0,10.0,0.0,0.0,0.0,10.0,0.0,0.0,0.0,10.0,0.870321044238,-0.157659136533,0.344080412838,1.0,0.0,0.0,0.0,1.0,0.0,0.0,0.0,1.0,4.69663330078,4.87386474609,8.72385864258,0.1,0.0,0.0,0.0,0.1,0.0,0.0,0.0,0.1
1446036921402964703,289,1446036921399812936,robocape,1.9451311892,6.74914362882,-43.8911444673,0.0,10.0,0.0,0.0,0.0,10.0,0.0,0.0,0.0,10.0,-0.660996582558,0.237953443399,0.985635919438,1.0,0.0,0.0,0.0,1.0,0.0,0.0,0.0,1.0,2.58183105469,6.21028564453,9.86388793945,0.1,0.0,0.0,0.0,0.1,0.0,0.0,0.0,0.1
1446036921435955912,290,1446036921432939052,robocape,-2.91492216895,7.04687413691,-42.0297993482,0.0,10.0,0.0,0.0,0.0,10.0,0.0,0.0,0.0,10.0,-2.66262845786,0.134356476994,1.0656639102,1.0,0.0,0.0,0.0,1.0,0.0,0.0,0.0,1.0,3.48116088867,4.215234375,9.25315795898,0.1,0.0,0.0,0.0,0.1,0.0,0.0,0.0,0.1
1446036921469528370,291,1446036921466314077,robocape,-8.33348969709,6.78596369084,-40.9412586054,0.0,10.0,0.0,0.0,0.0,10.0,0.0,0.0,0.0,10.0,-2.90857138453,-0.190948650159,0.546613813739,1.0,0.0,0.0,0.0,1.0,0.0,0.0,0.0,1.0,-0.36404296875,-2.09085205078,6.58031616211,0.1,0.0,0.0,0.0,0.1,0.0,0.0,0.0,0.1
1446036921502686078,292,1446036921499641895,robocape,-12.2766870254,6.4917862574,-41.4919322553,0.0,10.0,0.0,0.0,0.0,10.0,0.0,0.0,0.0,10.0,-2.06874353477,-0.0636495500529,-0.471512670999,1.0,0.0,0.0,0.0,1.0,0.0,0.0,0.0,1.0,4.84991455078,-3.37817504883,8.91785522461,0.1,0.0,0.0,0.0,0.1,0.0,0.0,0.0,0.1
1446036921535803953,293,1446036921532824039,robocape,-14.2515762396,6.40612533211,-42.2433073275,0.0,10.0,0.0,0.0,0.0,10.0,0.0,0.0,0.0,10.0,-1.03796703486,0.0920122156622,-0.568318576623,1.0,0.0,0.0,0.0,1.0,0.0,0.0,0.0,1.0,2.07648193359,-1.57352783203,10.5883813477,0.1,0.0,0.0,0.0,0.1,0.0,0.0,0.0,0.1
1446036921569454495,294,1446036921566274881,robocape,-15.5937966975,6.04854884213,-42.1661204432,0.0,10.0,0.0,0.0,0.0,10.0,0.0,0.0,0.0,10.0,-0.741424047478,-0.161254404004,-0.12210593598,1.0,0.0,0.0,0.0,1.0,0.0,0.0,0.0,1.0,-1.73040161133,0.09580078125,8.76696899414,0.1,0.0,0.0,0.0,0.1,0.0,0.0,0.0,0.1
1446036921604015953,295,1446036921600106000,robocape,-17.6063505616,6.40989643617,-41.7486712806,0.0,10.0,0.0,0.0,0.0,10.0,0.0,0.0,0.0,10.0,-1.11546502258,0.149536495208,0.157126504315,1.0,0.0,0.0,0.0,1.0,0.0,0.0,0.0,1.0,0.953217773438,0.917292480469,9.97046630859,0.1,0.0,0.0,0.0,0.1,0.0,0.0,0.0,0.1
1446036921635891328,296,1446036921632838010,robocape,-20.8043481981,6.52084297569,-41.0379138721,0.0,10.0,0.0,0.0,0.0,10.0,0.0,0.0,0.0,10.0,-1.77007001852,-0.0294279300454,0.248206613595,1.0,0.0,0.0,0.0,1.0,0.0,0.0,0.0,1.0,-0.626297607422,1.76752441406,10.5141357422,0.1,0.0,0.0,0.0,0.1,0.0,0.0,0.0,0.1
1446036921672415537,297,1446036921669399023,robocape,-24.6429913921,5.86796498612,-40.36826368,0.0,10.0,0.0,0.0,0.0,10.0,0.0,0.0,0.0,10.0,-2.13785256506,-0.396544686313,0.0256995045193,1.0,0.0,0.0,0.0,1.0,0.0,0.0,0.0,1.0,-2.7626550293,0.622705078125,6.50247802734,0.1,0.0,0.0,0.0,0.1,0.0,0.0,0.0,0.1
1446036921725743245,298,1446036921699480056,robocape,-28.6670856081,6.07787544587,-40.2313225654,0.0,10.0,0.0,0.0,0.0,10.0,0.0,0.0,0.0,10.0,-2.26754851015,0.152199656298,-0.116513297691,1.0,0.0,0.0,0.0,1.0,0.0,0.0,0.0,1.0,3.86316650391,-0.684975585938,10.5728137207,0.1,0.0,0.0,0.0,0.1,0.0,0.0,0.0,0.1
1446036921749080954,299,1446036921746021032,robocape,-32.3633944454,6.26124642897,-40.412951758,0.0,10.0,0.0,0.0,0.0,10.0,0.0,0.0,0.0,10.0,-2.12906413346,0.243546081688,-0.300271412906,1.0,0.0,0.0,0.0,1.0,0.0,0.0,0.0,1.0,-0.196391601563,-1.28971801758,12.7307263184,0.1,0.0,0.0,0.0,0.1,0.0,0.0,0.0,0.1
1446036921776466037,300,1446036921773052930,robocape,-35.7732271787,6.38357620684,-40.8855341794,0.0,10.0,0.0,0.0,0.0,10.0,0.0,0.0,0.0,10.0,-2.01468136464,0.331696713769,-0.471379512944,1.0,0.0,0.0,0.0,1.0,0.0,0.0,0.0,1.0,0.490979003906,-2.00103881836,8.86276977539,0.1,0.0,0.0,0.0,0.1,0.0,0.0,0.0,0.1
1446036921802645287,301,1446036921799498081,robocape,-38.8460906314,6.65645356224,-41.4782884699,0.0,10.0,0.0,0.0,0.0,10.0,0.0,0.0,0.0,10.0,-1.86767487247,0.462591081347,-0.478303731778,1.0,0.0,0.0,0.0,1.0,0.0,0.0,0.0,1.0,1.81063476563,-2.36508178711,10.9835595703,0.1,0.0,0.0,0.0,0.1,0.0,0.0,0.0,0.1
1446036921835921829,302,1446036921832890987,robocape,-39.6816646246,6.68022818577,-43.4278602773,0.0,10.0,0.0,0.0,0.0,10.0,0.0,0.0,0.0,10.0,-0.600276509704,0.821052564071,-1.08803446335,1.0,0.0,0.0,0.0,1.0,0.0,0.0,0.0,1.0,11.3464050293,-9.26034301758,16.324453125,0.1,0.0,0.0,0.0,0.1,0.0,0.0,0.0,0.1
1446036921869293995,303,1446036921866161108,robocape,-36.8160142367,6.79447001784,-47.1290502979,0.0,10.0,0.0,0.0,0.0,10.0,0.0,0.0,0.0,10.0,1.55275607357,1.36620163921,-1.7042899396,1.0,0.0,0.0,0.0,1.0,0.0,0.0,0.0,1.0,2.66445922852,-9.120234375,14.8179858398,0.1,0.0,0.0,0.0,0.1,0.0,0.0,0.0,0.1
1446036921902736912,304,1446036921899625062,robocape,-31.1844768247,6.3454867015,-50.4559038927,0.0,10.0,0.0,0.0,0.0,10.0,0.0,0.0,0.0,10.0,3.09925371858,0.818389402981,-1.65874988496,1.0,0.0,0.0,0.0,1.0,0.0,0.0,0.0,1.0,-6.16837280273,-4.24636962891,10.8817712402,0.1,0.0,0.0,0.0,0.1,0.0,0.0,0.0,0.1
1446036921936053912,305,1446036921933037042,robocape,-24.3595156915,5.9043606197,-52.8209284494,0.0,10.0,0.0,0.0,0.0,10.0,0.0,0.0,0.0,10.0,3.70325865381,0.377369926464,-1.21733093428,1.0,0.0,0.0,0.0,1.0,0.0,0.0,0.0,1.0,-3.51229614258,0.131726074219,7.04135742188,0.1,0.0,0.0,0.0,0.1,0.0,0.0,0.0,0.1
1446036921969455662,306,1446036921966196060,robocape,-18.9102396497,6.25211172308,-53.1196732756,0.0,10.0,0.0,0.0,0.0,10.0,0.0,0.0,0.0,10.0,2.88859767635,0.207859723081,-0.0206394984481,1.0,0.0,0.0,0.0,1.0,0.0,0.0,0.0,1.0,2.28245361328,5.10618164063,7.92511962891,0.1,0.0,0.0,0.0,0.1,0.0,0.0,0.0,0.1
1446036922004719995,307,1446036922001643896,robocape,-17.2172643383,6.69892949117,-51.6918904555,0.0,10.0,0.0,0.0,0.0,10.0,0.0,0.0,0.0,10.0,0.821452038235,-0.0290284558819,0.852078390771,1.0,0.0,0.0,0.0,1.0,0.0,0.0,0.0,1.0,3.38895263672,8.24006469727,7.39462280273,0.1,0.0,0.0,0.0,0.1,0.0,0.0,0.0,0.1
1446036922036043579,308,1446036922032980918,robocape,-20.8068055567,6.78746430988,-49.4332634487,0.0,10.0,0.0,0.0,0.0,10.0,0.0,0.0,0.0,10.0,-2.01761084184,-0.340218829258,1.13064504079,1.0,0.0,0.0,0.0,1.0,0.0,0.0,0.0,1.0,3.39613769531,5.3301159668,5.75762695313,0.1,0.0,0.0,0.0,0.1,0.0,0.0,0.0,0.1
1446036922069691245,309,1446036922066351890,robocape,-25.8850309559,7.0553971003,-48.4572253427,0.0,10.0,0.0,0.0,0.0,10.0,0.0,0.0,0.0,10.0,-2.82121970078,-0.00253000303558,0.306263525359,1.0,0.0,0.0,0.0,1.0,0.0,0.0,0.0,1.0,5.87258789063,-3.05364990234,8.5490222168,0.1,0.0,0.0,0.0,0.1,0.0,0.0,0.0,0.1
1446036922102567329,310,1446036922099409103,robocape,-28.7341569331,7.33648619595,-50.0778409784,0.0,10.0,0.0,0.0,0.0,10.0,0.0,0.0,0.0,10.0,-1.60695140175,0.687761351513,-1.11985923838,1.0,0.0,0.0,0.0,1.0,0.0,0.0,0.0,1.0,1.36396362305,-9.52738769531,14.3593395996,0.1,0.0,0.0,0.0,0.1,0.0,0.0,0.0,0.1
1446036922136147162,311,1446036922132898092,robocape,-27.2634140775,7.2944589065,-53.3090912275,0.0,10.0,0.0,0.0,0.0,10.0,0.0,0.0,0.0,10.0,0.790293053481,0.951946931649,-1.93598495443,1.0,0.0,0.0,0.0,1.0,0.0,0.0,0.0,1.0,-1.92439819336,-9.50942504883,14.5629162598,0.1,0.0,0.0,0.0,0.1,0.0,0.0,0.0,0.1
1446036922169444037,312,1446036922166132926,robocape,-22.1138505038,7.25646618115,-56.2499086151,0.0,10.0,0.0,0.0,0.0,10.0,0.0,0.0,0.0,10.0,2.80497441813,0.727975083973,-1.67712569648,1.0,0.0,0.0,0.0,1.0,0.0,0.0,0.0,1.0,-5.3301159668,-4.49305664063,9.97286132813,0.1,0.0,0.0,0.0,0.1,0.0,0.0,0.0,0.1
1446036922203009954,313,1446036922199609994,robocape,-15.5858894716,6.93525561138,-57.942387475,0.0,10.0,0.0,0.0,0.0,10.0,0.0,0.0,0.0,10.0,3.50218999151,0.174037577237,-1.04249440871,1.0,0.0,0.0,0.0,1.0,0.0,0.0,0.0,1.0,0.742456054688,-0.825084228516,8.53824462891,0.1,0.0,0.0,0.0,0.1,0.0,0.0,0.0,0.1
1446036922235957370,314,1446036922232876062,robocape,-9.52703254395,7.17418162584,-58.6043336408,0.0,10.0,0.0,0.0,0.0,10.0,0.0,0.0,0.0,10.0,3.2063127944,0.230363434292,-0.439821054027,1.0,0.0,0.0,0.0,1.0,0.0,0.0,0.0,1.0,-1.34839599609,2.26688598633,7.50120117188,0.1,0.0,0.0,0.0,0.1,0.0,0.0,0.0,0.1
1446036922269726120,315,1446036922266244888,robocape,-4.64567969845,7.32154987954,-58.6153787961,0.0,10.0,0.0,0.0,0.0,10.0,0.0,0.0,0.0,10.0,2.55676780453,0.105727495276,-0.138617534739,1.0,0.0,0.0,0.0,1.0,0.0,0.0,0.0,1.0,-0.639470214844,2.32436645508,9.86748046875,0.1,0.0,0.0,0.0,0.1,0.0,0.0,0.0,0.1
1446036922302474079,316,1446036922299412965,robocape,-0.866226946813,7.49662505074,-58.3285380174,0.0,10.0,0.0,0.0,0.0,10.0,0.0,0.0,0.0,10.0,1.96820920362,0.109455920802,-0.00452737385313,1.0,0.0,0.0,0.0,1.0,0.0,0.0,0.0,1.0,0.857416992188,2.15432006836,8.37897583008,0.1,0.0,0.0,0.0,0.1,0.0,0.0,0.0,0.1
1446036922335880662,317,1446036922332837104,robocape,2.12306220878,7.61071862407,-57.965345372,0.0,10.0,0.0,0.0,0.0,10.0,0.0,0.0,0.0,10.0,1.55768292159,0.084022732392,0.0139815957229,1.0,0.0,0.0,0.0,1.0,0.0,0.0,0.0,1.0,-0.696950683594,1.44539428711,10.7871679688,0.1,0.0,0.0,0.0,0.1,0.0,0.0,0.0,0.1
1446036922369239495,318,1446036922366039037,robocape,4.67617112809,7.73606344732,-57.6434474368,0.0,10.0,0.0,0.0,0.0,10.0,0.0,0.0,0.0,10.0,1.34196687329,0.0958737992429,-0.0334226716805,1.0,0.0,0.0,0.0,1.0,0.0,0.0,0.0,1.0,2.90276367188,0.773591308594,9.11304931641,0.1,0.0,0.0,0.0,0.1,0.0,0.0,0.0,0.1
1446036922402739954,319,1446036922399744987,robocape,7.17046622413,7.84003740898,-57.3208895361,0.0,10.0,0.0,0.0,0.0,10.0,0.0,0.0,0.0,10.0,1.3214605329,0.0892158965177,-0.0503337446025,1.0,0.0,0.0,0.0,1.0,0.0,0.0,0.0,1.0,1.12805419922,0.416733398438,10.1716479492,0.1,0.0,0.0,0.0,0.1,0.0,0.0,0.0,0.1
1446036922435808162,320,1446036922432760953,robocape,9.7666314613,8.17565166864,-57.0031369451,0.0,10.0,0.0,0.0,0.0,10.0,0.0,0.0,0.0,10.0,1.38977061486,0.214517625806,-0.102265385859,1.0,0.0,0.0,0.0,1.0,0.0,0.0,0.0,1.0,3.74221801758,0.483793945313,8.83642456055,0.1,0.0,0.0,0.0,0.1,0.0,0.0,0.0,0.1
1446036922469298121,321,1446036922466155052,robocape,12.5838834052,8.12228027852,-56.5739731545,0.0,10.0,0.0,0.0,0.0,10.0,0.0,0.0,0.0,10.0,1.50748233504,0.0266316109008,-0.0115847507418,1.0,0.0,0.0,0.0,1.0,0.0,0.0,0.0,1.0,2.42256225586,0.990340576172,9.06035888672,0.1,0.0,0.0,0.0,0.1,0.0,0.0,0.0,0.1
1446036922502697079,322,1446036922499660015,robocape,15.5063283331,8.4619607774,-55.9930015334,0.0,10.0,0.0,0.0,0.0,10.0,0.0,0.0,0.0,10.0,1.56727030151,0.253000303558,-0.0034621094171,1.0,0.0,0.0,0.0,1.0,0.0,0.0,0.0,1.0,0.126936035156,0.511336669922,9.83874023438,0.1,0.0,0.0,0.0,0.1,0.0,0.0,0.0,0.1
1446036922535813954,323,1446036922532819032,robocape,18.6455964987,8.77113029355,-55.2501531277,0.0,10.0,0.0,0.0,0.0,10.0,0.0,0.0,0.0,10.0,1.68431623142,0.270710324807,0.0583232278727,1.0,0.0,0.0,0.0,1.0,0.0,0.0,0.0,1.0,-1.58071289063,1.11967163086,9.71060668945,0.1,0.0,0.0,0.0,0.1,0.0,0.0,0.0,0.1
1446036922573798912,324,1446036922570051908,robocape,22.0260443064,8.54398804932,-54.4597984109,0.0,10.0,0.0,0.0,0.0,10.0,0.0,0.0,0.0,10.0,1.82666219169,0.0262321367373,0.155661765715,1.0,0.0,0.0,0.0,1.0,0.0,0.0,0.0,1.0,-2.23694824219,0.86220703125,9.23280029297,0.1,0.0,0.0,0.0,0.1,0.0,0.0,0.0,0.1
1446036922602468287,325,1446036922599489927,robocape,25.5201301536,8.5425068164,-53.4152511826,0.0,10.0,0.0,0.0,0.0,10.0,0.0,0.0,0.0,10.0,1.88884700314,0.205729194209,0.216914470787,1.0,0.0,0.0,0.0,1.0,0.0,0.0,0.0,1.0,-1.11847412109,1.2609777832,9.23759033203,0.1,0.0,0.0,0.0,0.1,0.0,0.0,0.0,0.1
1446036922636293496,326,1446036922633204936,robocape,29.0009926689,8.70698321051,-51.9753967293,0.0,10.0,0.0,0.0,0.0,10.0,0.0,0.0,0.0,10.0,1.85955223115,0.401604692384,0.362589382414,1.0,0.0,0.0,0.0,1.0,0.0,0.0,0.0,1.0,2.64170654297,2.11360473633,11.823013916,0.1,0.0,0.0,0.0,0.1,0.0,0.0,0.0,0.1
1446036922669465912,327,1446036922666136980,robocape,31.3219687093,8.15677457637,-50.3195896965,0.0,10.0,0.0,0.0,0.0,10.0,0.0,0.0,0.0,10.0,1.17085877325,0.169510203384,0.756737223746,1.0,0.0,0.0,0.0,1.0,0.0,0.0,0.0,1.0,-4.37929321289,11.0015222168,9.33818115234,0.1,0.0,0.0,0.0,0.1,0.0,0.0,0.0,0.1
1446036922702552871,328,1446036922699482917,robocape,29.5561989119,8.7691610422,-46.7682282308,0.0,10.0,0.0,0.0,0.0,10.0,0.0,0.0,0.0,10.0,-1.42039696739,1.23930201327,1.77592897292,1.0,0.0,0.0,0.0,1.0,0.0,0.0,0.0,1.0,6.60785888672,9.14059204102,12.9426855469,0.1,0.0,0.0,0.0,0.1,0.0,0.0,0.0,0.1
1446036922736082246,329,1446036922733004093,robocape,24.5605701208,9.60419767349,-43.3240795207,0.0,10.0,0.0,0.0,0.0,10.0,0.0,0.0,0.0,10.0,-3.19819015308,1.22145883396,1.89297490283,1.0,0.0,0.0,0.0,1.0,0.0,0.0,0.0,1.0,-8.28557006836,7.57185424805,12.2145996094,0.1,0.0,0.0,0.0,0.1,0.0,0.0,0.0,0.1
1446036922769417496,330,1446036922766341924,robocape,17.0380638079,9.73444488259,-41.3822223992,0.0,10.0,0.0,0.0,0.0,10.0,0.0,0.0,0.0,10.0,-4.31738360118,0.415719446161,1.3556821529,1.0,0.0,0.0,0.0,1.0,0.0,0.0,0.0,1.0,-5.78157714844,1.90523803711,5.90971069336,0.1,0.0,0.0,0.0,0.1,0.0,0.0,0.0,0.1
1446036922802544371,331,1446036922799500942,robocape,9.01717347862,9.66319111606,-40.6296916273,0.0,10.0,0.0,0.0,0.0,10.0,0.0,0.0,0.0,10.0,-4.34694468928,0.0318247750264,0.642354454927,1.0,0.0,0.0,0.0,1.0,0.0,0.0,0.0,1.0,-0.523311767578,-0.793948974609,7.48204101563,0.1,0.0,0.0,0.0,0.1,0.0,0.0,0.0,0.1
1446036922835937246,332,1446036922832865953,robocape,2.09370897431,9.59022092442,-40.303749364,0.0,10.0,0.0,0.0,0.0,10.0,0.0,0.0,0.0,10.0,-3.66970282407,-0.034621094171,0.258859257956,1.0,0.0,0.0,0.0,1.0,0.0,0.0,0.0,1.0,-2.82013549805,-2.05133422852,5.03552856445,0.1,0.0,0.0,0.0,0.1,0.0,0.0,0.0,0.1
1446036922869210746,333,1446036922866099119,robocape,-3.88500954113,9.97324503231,-40.3976679188,0.0,10.0,0.0,0.0,0.0,10.0,0.0,0.0,0.0,10.0,-3.12521953921,0.209723935844,-0.0828243099015,1.0,0.0,0.0,0.0,1.0,0.0,0.0,0.0,1.0,12.1559216309,-1.762734375,13.5785632324,0.1,0.0,0.0,0.0,0.1,0.0,0.0,0.0,0.1
1446036922902847787,334,1446036922899827957,robocape,-9.1117871542,10.7883298379,-40.7655799713,0.0,10.0,0.0,0.0,0.0,10.0,0.0,0.0,0.0,10.0,-2.71895431492,0.48043426065,-0.258326625738,1.0,0.0,0.0,0.0,1.0,0.0,0.0,0.0,1.0,-1.42743164063,-5.69655395508,4.51461181641,0.1,0.0,0.0,0.0,0.1,0.0,0.0,0.0,0.1
1446036922935866204,335,1446036922932825088,robocape,-12.5557931206,11.0969781353,-40.969803561,0.0,10.0,0.0,0.0,0.0,10.0,0.0,0.0,0.0,10.0,-1.80988427682,0.223572373512,-0.202267084792,1.0,0.0,0.0,0.0,1.0,0.0,0.0,0.0,1.0,-0.173638916016,-0.602347412109,13.3103210449,0.1,0.0,0.0,0.0,0.1,0.0,0.0,0.0,0.1
1446036922969479287,336,1446036922966243028,robocape,-15.6821842045,10.5006257739,-40.607079176,0.0,10.0,0.0,0.0,0.0,10.0,0.0,0.0,0.0,10.0,-1.70029519796,-0.312921428084,0.00785632521573,1.0,0.0,0.0,0.0,1.0,0.0,0.0,0.0,1.0,2.35669921875,0.0467028808594,8.14905395508,0.1,0.0,0.0,0.0,0.1,0.0,0.0,0.0,0.1
1446036923003122829,337,1446036923000022888,robocape,-19.3220388191,10.1197605016,-40.1606603913,0.0,10.0,0.0,0.0,0.0,10.0,0.0,0.0,0.0,10.0,-1.99484081452,-0.212253938879,0.0384826777516,1.0,0.0,0.0,0.0,1.0,0.0,0.0,0.0,1.0,-3.15783325195,0.419128417969,9.27950317383,0.1,0.0,0.0,0.0,0.1,0.0,0.0,0.0,0.1
1446036923035824287,338,1446036923032825946,robocape,-23.0835240105,10.0325798999,-40.0568869816,0.0,10.0,0.0,0.0,0.0,10.0,0.0,0.0,0.0,10.0,-2.06341721259,0.0113184346328,-0.137818586412,1.0,0.0,0.0,0.0,1.0,0.0,0.0,0.0,1.0,-0.492176513672,-2.44172241211,10.6877746582,0.1,0.0,0.0,0.0,0.1,0.0,0.0,0.0,0.1
1446036923069474912,339,1446036923066247940,robocape,-25.159586214,9.90498964543,-41.3530334316,0.0,10.0,0.0,0.0,0.0,10.0,0.0,0.0,0.0,10.0,-1.09575763051,0.323174598281,-0.8765794728,1.0,0.0,0.0,0.0,1.0,0.0,0.0,0.0,1.0,-3.34224975586,-6.58271118164,10.1596728516,0.1,0.0,0.0,0.0,0.1,0.0,0.0,0.0,0.1
1446036923102574121,340,1446036923099446058,robocape,-24.1542876031,9.66951885122,-44.2959170175,0.0,10.0,0.0,0.0,0.0,10.0,0.0,0.0,0.0,10.0,0.662061846994,0.649678147925,-1.7042899396,1.0,0.0,0.0,0.0,1.0,0.0,0.0,0.0,1.0,2.34831665039,-7.19463867188,12.4816442871,0.1,0.0,0.0,0.0,0.1,0.0,0.0,0.0,0.1
1446036923135941121,341,1446036923132915019,robocape,-19.8236475195,9.80565089881,-47.8392118949,0.0,10.0,0.0,0.0,0.0,10.0,0.0,0.0,0.0,10.0,2.50230616024,0.860866822368,-1.91800861708,1.0,0.0,0.0,0.0,1.0,0.0,0.0,0.0,1.0,-5.28101806641,-7.01740722656,12.1918469238,0.1,0.0,0.0,0.0,0.1,0.0,0.0,0.0,0.1
1446036923169125746,342,1446036923166132926,robocape,-13.4454248889,9.69545749993,-50.2394732649,0.0,10.0,0.0,0.0,0.0,10.0,0.0,0.0,0.0,10.0,3.52802265408,0.36245622436,-1.37246006777,1.0,0.0,0.0,0.0,1.0,0.0,0.0,0.0,1.0,-0.387993164063,-2.30041625977,7.2078112793,0.1,0.0,0.0,0.0,0.1,0.0,0.0,0.0,0.1
1446036923202806079,343,1446036923199594974,robocape,-6.50761116557,9.82102230276,-51.4530908719,0.0,10.0,0.0,0.0,0.0,10.0,0.0,0.0,0.0,10.0,3.74040975102,0.217979735223,-0.752209849893,1.0,0.0,0.0,0.0,1.0,0.0,0.0,0.0,1.0,4.15056884766,0.683778076172,5.15408203125,0.1,0.0,0.0,0.0,0.1,0.0,0.0,0.0,0.1
1446036923236091329,344,1446036923233012914,robocape,-0.322711690704,9.77234763469,-51.8087768962,0.0,10.0,0.0,0.0,0.0,10.0,0.0,0.0,0.0,10.0,3.28674025932,0.0241016078652,-0.349007260855,1.0,0.0,0.0,0.0,1.0,0.0,0.0,0.0,1.0,-2.00582885742,1.45497436523,5.56722290039,0.1,0.0,0.0,0.0,0.1,0.0,0.0,0.0,0.1
1446036923270978871,345,1446036923267590999,robocape,4.88876298972,9.81594397785,-51.5070822009,0.0,10.0,0.0,0.0,0.0,10.0,0.0,0.0,0.0,10.0,2.73240327842,0.0589890181453,-0.0107858024148,1.0,0.0,0.0,0.0,1.0,0.0,0.0,0.0,1.0,0.695753173828,2.50519042969,10.6195166016,0.1,0.0,0.0,0.0,0.1,0.0,0.0,0.0,0.1
1446036923302780538,346,1446036923299614906,robocape,9.25114719974,9.74979137194,-50.936511841,0.0,10.0,0.0,0.0,0.0,10.0,0.0,0.0,0.0,10.0,2.2779348384,0.0253000303558,0.123970148743,1.0,0.0,0.0,0.0,1.0,0.0,0.0,0.0,1.0,0.657432861328,1.89805297852,8.15504150391,0.1,0.0,0.0,0.0,0.1,0.0,0.0,0.0,0.1
1446036923337342079,347,1446036923334202051,robocape,12.8738333477,10.0053977509,-50.2075176812,0.0,10.0,0.0,0.0,0.0,10.0,0.0,0.0,0.0,10.0,1.89044489979,0.22290658324,0.15965650735,1.0,0.0,0.0,0.0,1.0,0.0,0.0,0.0,1.0,1.02027832031,1.34240844727,8.19815185547,0.1,0.0,0.0,0.0,0.1,0.0,0.0,0.0,0.1
1446036923369514371,348,1446036923366321086,robocape,16.0859368365,10.0755358379,-49.3874398492,0.0,10.0,0.0,0.0,0.0,10.0,0.0,0.0,0.0,10.0,1.67659306426,0.155528607661,0.219444473823,1.0,0.0,0.0,0.0,1.0,0.0,0.0,0.0,1.0,4.70142333984,1.92559570313,10.8590185547,0.1,0.0,0.0,0.0,0.1,0.0,0.0,0.0,0.1
1446036923402772663,349,1446036923399605989,robocape,18.3085522761,10.5655380202,-47.6958198561,0.0,10.0,0.0,0.0,0.0,10.0,0.0,0.0,0.0,10.0,1.03690177042,0.507864819878,0.68323397766,1.0,0.0,0.0,0.0,1.0,0.0,0.0,0.0,1.0,5.87857543945,4.87865478516,10.7380700684,0.1,0.0,0.0,0.0,0.1,0.0,0.0,0.0,0.1
1446036923435954954,350,1446036923432970046,robocape,17.7867251982,11.3308723736,-45.1724379552,0.0,10.0,0.0,0.0,0.0,10.0,0.0,0.0,0.0,10.0,-0.57857174682,0.773381980559,1.2327772686,1.0,0.0,0.0,0.0,1.0,0.0,0.0,0.0,1.0,6.54558837891,5.51213745117,13.4695898438,0.1,0.0,0.0,0.0,0.1,0.0,0.0,0.0,0.1
1446036923469162496,351,1446036923466166019,robocape,15.621286041,11.4364834667,-43.2257148086,0.0,10.0,0.0,0.0,0.0,10.0,0.0,0.0,0.0,10.0,-1.39909167867,0.325837759371,1.09269499526,1.0,0.0,0.0,0.0,1.0,0.0,0.0,0.0,1.0,1.14721435547,0.662222900391,7.71076538086,0.1,0.0,0.0,0.0,0.1,0.0,0.0,0.0,0.1
1446036923503183246,352,1446036923499974966,robocape,13.4233489597,12.0182564709,-42.2763133157,0.0,10.0,0.0,0.0,0.0,10.0,0.0,0.0,0.0,10.0,-1.26619994028,0.412257336744,0.431432096593,1.0,0.0,0.0,0.0,1.0,0.0,0.0,0.0,1.0,-1.65855102539,-1.89086791992,11.4865136719,0.1,0.0,0.0,0.0,0.1,0.0,0.0,0.0,0.1
1446036923535890038,353,1446036923532882928,robocape,12.646306964,11.5747237539,-42.626552701,0.0,10.0,0.0,0.0,0.0,10.0,0.0,0.0,0.0,10.0,-0.333028294314,-0.253532935776,-0.218246051332,1.0,0.0,0.0,0.0,1.0,0.0,0.0,0.0,1.0,0.0934057617188,-3.15783325195,6.06538696289,0.1,0.0,0.0,0.0,0.1,0.0,0.0,0.0,0.1
1446036923569018121,354,1446036923566051959,robocape,14.2426275281,11.5332917154,-43.199799532,0.0,10.0,0.0,0.0,0.0,10.0,0.0,0.0,0.0,10.0,0.980309597258,-0.0605869147993,-0.488157427812,1.0,0.0,0.0,0.0,1.0,0.0,0.0,0.0,1.0,-0.607137451172,-3.16980834961,9.28549072266,0.1,0.0,0.0,0.0,0.1,0.0,0.0,0.0,0.1
1446036923602460329,355,1446036923599462985,robocape,17.2584668421,11.283067017,-43.6435467063,0.0,10.0,0.0,0.0,0.0,10.0,0.0,0.0,0.0,10.0,1.74303893346,-0.158324926805,-0.435959470446,1.0,0.0,0.0,0.0,1.0,0.0,0.0,0.0,1.0,-4.52658691406,-0.477806396484,10.0471069336,0.1,0.0,0.0,0.0,0.1,0.0,0.0,0.0,0.1
1446036923635979538,356,1446036923632946968,robocape,21.5484682116,11.3157062325,-43.5995545444,0.0,10.0,0.0,0.0,0.0,10.0,0.0,0.0,0.0,10.0,2.40709815127,0.051265850984,-0.282960865821,1.0,0.0,0.0,0.0,1.0,0.0,0.0,0.0,1.0,-0.165256347656,-0.560434570312,7.82333129883,0.1,0.0,0.0,0.0,0.1,0.0,0.0,0.0,0.1
1446036923669327538,357,1446036923666146039,robocape,26.4640031453,11.6924191346,-42.8398725456,0.0,10.0,0.0,0.0,0.0,10.0,0.0,0.0,0.0,10.0,2.70790219639,0.361390959924,-0.0478037415669,1.0,0.0,0.0,0.0,1.0,0.0,0.0,0.0,1.0,2.40340209961,1.09452392578,9.95010864258,0.1,0.0,0.0,0.0,0.1,0.0,0.0,0.0,0.1
1446036923702614038,358,1446036923699556112,robocape,31.5592492759,11.8133427911,-41.5886914676,0.0,10.0,0.0,0.0,0.0,10.0,0.0,0.0,0.0,10.0,2.79552019626,0.380033087554,0.197073920666,1.0,0.0,0.0,0.0,1.0,0.0,0.0,0.0,1.0,-1.71004394531,0.931662597656,7.48683105469,0.1,0.0,0.0,0.0,0.1,0.0,0.0,0.0,0.1
1446036923735848621,359,1446036923732778072,robocape,34.8688123407,11.8267640294,-38.9901123012,0.0,10.0,0.0,0.0,0.0,10.0,0.0,0.0,0.0,10.0,1.57645820727,0.738627728333,0.97298590426,1.0,0.0,0.0,0.0,1.0,0.0,0.0,0.0,1.0,6.07616455078,16.7208288574,16.2490100098,0.1,0.0,0.0,0.0,0.1,0.0,0.0,0.0,0.1
1446036923769402996,360,1446036923766299962,robocape,34.3456410071,12.6459954825,-35.6128219895,0.0,10.0,0.0,0.0,0.0,10.0,0.0,0.0,0.0,10.0,-0.772050400014,1.32971633228,1.31227262714,1.0,0.0,0.0,0.0,1.0,0.0,0.0,0.0,1.0,-0.280217285156,5.92408081055,10.4662353516,0.1,0.0,0.0,0.0,0.1,0.0,0.0,0.0,0.1
1446036923802576454,361,1446036923799513101,robocape,32.8747139234,13.0737810032,-33.6641164413,0.0,10.0,0.0,0.0,0.0,10.0,0.0,0.0,0.0,10.0,-1.08816762141,0.730771403118,0.799747275351,1.0,0.0,0.0,0.0,1.0,0.0,0.0,0.0,1.0,0.449066162109,0.502954101562,8.26521240234,0.1,0.0,0.0,0.0,0.1,0.0,0.0,0.0,0.1
1446036923835942663,362,1446036923832874059,robocape,31.8876988659,12.6651568561,-32.9083739743,0.0,10.0,0.0,0.0,0.0,10.0,0.0,0.0,0.0,10.0,-0.622513904806,0.0245010820287,0.458463181657,1.0,0.0,0.0,0.0,1.0,0.0,0.0,0.0,1.0,0.577199707031,-1.20708984375,6.04383178711,0.1,0.0,0.0,0.0,0.1,0.0,0.0,0.0,0.1
1446036923869206246,363,1446036923866086006,robocape,31.9734502181,12.9295305617,-32.041686077,0.0,10.0,0.0,0.0,0.0,10.0,0.0,0.0,0.0,10.0,0.000532632218016,0.357263060234,0.245410294451,1.0,0.0,0.0,0.0,1.0,0.0,0.0,0.0,1.0,0.893342285156,-0.17244140625,12.5163720703,0.1,0.0,0.0,0.0,0.1,0.0,0.0,0.0,0.1
1446036923902533663,364,1446036923899488925,robocape,33.012914063,13.0980321196,-31.1727857731,0.0,10.0,0.0,0.0,0.0,10.0,0.0,0.0,0.0,10.0,0.549543290938,0.324506178826,0.222773425185,1.0,0.0,0.0,0.0,1.0,0.0,0.0,0.0,1.0,-1.08973388672,-0.650247802734,8.34544555664,0.1,0.0,0.0,0.0,0.1,0.0,0.0,0.0,0.1
1446036923936011746,365,1446036923933007001,robocape,34.9305440463,13.2197695399,-30.134309919,0.0,10.0,0.0,0.0,0.0,10.0,0.0,0.0,0.0,10.0,1.03916545735,0.36631780794,0.2616555771,1.0,0.0,0.0,0.0,1.0,0.0,0.0,0.0,1.0,-0.614322509766,0.628692626953,12.2936352539,0.1,0.0,0.0,0.0,0.1,0.0,0.0,0.0,0.1
1446036923969372496,366,1446036923966264009,robocape,37.2520824308,12.7302379929,-28.9641704826,0.0,10.0,0.0,0.0,0.0,10.0,0.0,0.0,0.0,10.0,1.25261781872,0.160721771786,0.491885853338,1.0,0.0,0.0,0.0,1.0,0.0,0.0,0.0,1.0,13.6731665039,4.87266723633,7.53952148438,0.1,0.0,0.0,0.0,0.1,0.0,0.0,0.0,0.1
1446036924002900288,367,1446036923999622106,robocape,37.693807558,12.2122447379,-26.6715308906,0.0,10.0,0.0,0.0,0.0,10.0,0.0,0.0,0.0,10.0,-0.0390153099697,0.496945859409,1.10374711378,1.0,0.0,0.0,0.0,1.0,0.0,0.0,0.0,1.0,5.42232421875,9.88544311523,10.3608544922,0.1,0.0,0.0,0.0,0.1,0.0,0.0,0.0,0.1
1446036924036050246,368,1446036924032836914,robocape,36.1410419697,12.2959803012,-24.5008099136,0.0,10.0,0.0,0.0,0.0,10.0,0.0,0.0,0.0,10.0,-1.167796138,0.690158196494,0.946087977251,1.0,0.0,0.0,0.0,1.0,0.0,0.0,0.0,1.0,-1.06578369141,2.59380615234,10.1069824219,0.1,0.0,0.0,0.0,0.1,0.0,0.0,0.0,0.1
1446036924071524830,369,1446036924068475961,robocape,34.7009380353,12.2492236477,-23.1986582659,0.0,10.0,0.0,0.0,0.0,10.0,0.0,0.0,0.0,10.0,-0.95967009881,0.358461482725,0.601208616085,1.0,0.0,0.0,0.0,1.0,0.0,0.0,0.0,1.0,4.22241943359,-0.150886230469,9.97046630859,0.1,0.0,0.0,0.0,0.1,0.0,0.0,0.0,0.1
1446036924102457163,370,1446036924099461078,robocape,33.8439144628,12.0030722319,-22.0658205247,0.0,10.0,0.0,0.0,0.0,10.0,0.0,0.0,0.0,10.0,-0.595349661687,0.216914470787,0.567386470241,1.0,0.0,0.0,0.0,1.0,0.0,0.0,0.0,1.0,4.57448730469,2.00822387695,11.3559851074,0.1,0.0,0.0,0.0,0.1,0.0,0.0,0.0,0.1
1446036924136118538,371,1446036924132844924,robocape,32.5570235936,11.4287513518,-20.4486973403,0.0,10.0,0.0,0.0,0.0,10.0,0.0,0.0,0.0,10.0,-0.915727940824,0.191348124322,0.906406877008,1.0,0.0,0.0,0.0,1.0,0.0,0.0,0.0,1.0,2.56027587891,3.71946533203,10.1704504395,0.1,0.0,0.0,0.0,0.1,0.0,0.0,0.0,0.1
1446036924170350663,372,1446036924167318105,robocape,30.0362916712,11.2963080522,-17.2219941404,0.0,10.0,0.0,0.0,0.0,10.0,0.0,0.0,0.0,10.0,-1.81055006709,0.767922500324,1.55555239272,1.0,0.0,0.0,0.0,1.0,0.0,0.0,0.0,1.0,3.32428710938,4.42120605469,10.7751928711,0.1,0.0,0.0,0.0,0.1,0.0,0.0,0.0,0.1
1446036924202698080,373,1446036924199594020,robocape,25.3662232252,10.7959204288,-14.2240664109,0.0,10.0,0.0,0.0,0.0,10.0,0.0,0.0,0.0,10.0,-2.94092879177,0.431032622429,1.61214456588,1.0,0.0,0.0,0.0,1.0,0.0,0.0,0.0,1.0,-0.546064453125,2.24173828125,8.52387451172,0.1,0.0,0.0,0.0,0.1,0.0,0.0,0.0,0.1
1446036924236120205,374,1446036924232819080,robocape,20.1227042941,10.3524736769,-12.5900003075,0.0,10.0,0.0,0.0,0.0,10.0,0.0,0.0,0.0,10.0,-3.02508468222,0.067644291688,0.950482193049,1.0,0.0,0.0,0.0,1.0,0.0,0.0,0.0,1.0,-3.11592041016,-0.979562988281,7.78860351563,0.1,0.0,0.0,0.0,0.1,0.0,0.0,0.0,0.1
1446036924273939413,375,1446036924270157098,robocape,16.1463619426,10.2645273225,-13.054708456,0.0,10.0,0.0,0.0,0.0,10.0,0.0,0.0,0.0,10.0,-2.07367038279,-0.133823844776,-0.184157589379,1.0,0.0,0.0,0.0,1.0,0.0,0.0,0.0,1.0,-0.699345703125,-5.18521728516,7.40659790039,0.1,0.0,0.0,0.0,0.1,0.0,0.0,0.0,0.1
1446036924302938955,376,1446036924299890041,robocape,14.6634038792,10.5517159525,-14.2984084409,0.0,10.0,0.0,0.0,0.0,10.0,0.0,0.0,0.0,10.0,-0.643419719363,-0.017177389031,-0.6725813333,1.0,0.0,0.0,0.0,1.0,0.0,0.0,0.0,1.0,-1.34240844727,-4.79961914063,10.0746496582,0.1,0.0,0.0,0.0,0.1,0.0,0.0,0.0,0.1
1446036924336359413,377,1446036924333076000,robocape,15.5525142347,10.824344082,-15.9139891391,0.0,10.0,0.0,0.0,0.0,10.0,0.0,0.0,0.0,10.0,0.671516068863,-0.0544616442921,-0.889096329923,1.0,0.0,0.0,0.0,1.0,0.0,0.0,0.0,1.0,1.92679321289,-3.5985168457,8.80648681641,0.1,0.0,0.0,0.0,0.1,0.0,0.0,0.0,0.1
1446036924369405163,378,1446036924366329908,robocape,18.5260799224,11.0435448212,-17.4664375285,0.0,10.0,0.0,0.0,0.0,10.0,0.0,0.0,0.0,10.0,1.80216110966,-0.0868190515366,-0.881373162762,1.0,0.0,0.0,0.0,1.0,0.0,0.0,0.0,1.0,2.44291992188,-2.96383666992,9.18968994141,0.1,0.0,0.0,0.0,0.1,0.0,0.0,0.0,0.1
1446036924402651038,379,1446036924399578094,robocape,22.8786607044,11.007537535,-18.2291446602,0.0,10.0,0.0,0.0,0.0,10.0,0.0,0.0,0.0,10.0,2.49231930615,-0.113184346328,-0.469914774344,1.0,0.0,0.0,0.0,1.0,0.0,0.0,0.0,1.0,2.69559448242,0.323327636719,7.41138793945,0.1,0.0,0.0,0.0,0.1,0.0,0.0,0.0,0.1
1446036924436178246,380,1446036924432986974,robocape,26.1645731757,11.0518011005,-16.9451651857,0.0,10.0,0.0,0.0,0.0,10.0,0.0,0.0,0.0,10.0,1.69723256271,0.324639336881,0.517851673966,1.0,0.0,0.0,0.0,1.0,0.0,0.0,0.0,1.0,1.25738525391,4.83434692383,11.8517541504,0.1,0.0,0.0,0.0,0.1,0.0,0.0,0.0,0.1
1446036924469155830,381,1446036924466166973,robocape,26.7784551295,10.8197791461,-13.6628632658,0.0,10.0,0.0,0.0,0.0,10.0,0.0,0.0,0.0,10.0,-0.017976337358,0.639691293837,1.5728629398,1.0,0.0,0.0,0.0,1.0,0.0,0.0,0.0,1.0,3.22130126953,7.39701782227,12.0014428711,0.1,0.0,0.0,0.0,0.1,0.0,0.0,0.0,0.1
1446036924502562705,382,1446036924499563932,robocape,23.9327389675,10.4780659832,-9.48447829291,0.0,10.0,0.0,0.0,0.0,10.0,0.0,0.0,0.0,10.0,-2.01228451966,0.717455597667,2.07992881135,1.0,0.0,0.0,0.0,1.0,0.0,0.0,0.0,1.0,-0.995130615234,6.22345825195,12.1942419434,0.1,0.0,0.0,0.0,0.1,0.0,0.0,0.0,0.1
1446036924535915663,383,1446036924532859086,robocape,18.1823981528,9.87061846735,-5.59595702781,0.0,10.0,0.0,0.0,0.0,10.0,0.0,0.0,0.0,10.0,-3.49792893376,0.362722540469,2.04078034333,1.0,0.0,0.0,0.0,1.0,0.0,0.0,0.0,1.0,0.887354736328,3.53744384766,9.50942504883,0.1,0.0,0.0,0.0,0.1,0.0,0.0,0.0,0.1
1446036924569044288,384,1446036924566051959,robocape,10.5314083595,9.51204983094,-2.77425303707,0.0,10.0,0.0,0.0,0.0,10.0,0.0,0.0,0.0,10.0,-4.32257676531,0.126766467888,1.48631020437,1.0,0.0,0.0,0.0,1.0,0.0,0.0,0.0,1.0,-0.997525634766,0.979562988281,5.44028686523,0.1,0.0,0.0,0.0,0.1,0.0,0.0,0.0,0.1
1446036924602481372,385,1446036924599483966,robocape,2.51980272774,8.91843386296,-0.948122760192,0.0,10.0,0.0,0.0,0.0,10.0,0.0,0.0,0.0,10.0,-4.36332312999,-0.229697644019,0.98124170364,1.0,0.0,0.0,0.0,1.0,0.0,0.0,0.0,1.0,-2.93150390625,0.86220703125,3.27878173828,0.1,0.0,0.0,0.0,0.1,0.0,0.0,0.0,0.1
1446036924635975080,386,1446036924632850885,robocape,-5.67119953261,8.6630977385,-0.096698320101,0.0,10.0,0.0,0.0,0.0,10.0,0.0,0.0,0.0,10.0,-4.36332312999,-0.148071756608,0.437956841264,1.0,0.0,0.0,0.0,1.0,0.0,0.0,0.0,1.0,1.01429077148,-0.370030517578,5.34688110352,0.1,0.0,0.0,0.0,0.1,0.0,0.0,0.0,0.1
1446036924669528622,387,1446036924666430950,robocape,-13.8960340965,8.49405380735,0.0709672961094,0.0,10.0,0.0,0.0,0.0,10.0,0.0,0.0,0.0,10.0,-4.36332312999,-0.0801611488114,0.0719053494321,1.0,0.0,0.0,0.0,1.0,0.0,0.0,0.0,1.0,-3.53025878906,-0.907712402344,4.54933959961,0.1,0.0,0.0,0.0,0.1,0.0,0.0,0.0,0.1
1446036924702573747,388,1446036924699489116,robocape,-22.083851829,8.5427794309,-0.607937853351,0.0,10.0,0.0,0.0,0.0,10.0,0.0,0.0,0.0,10.0,-4.36332312999,0.181494428289,-0.324639336881,1.0,0.0,0.0,0.0,1.0,0.0,0.0,0.0,1.0,9.56930053711,-3.67635498047,6.34320922852,0.1,0.0,0.0,0.0,0.1,0.0,0.0,0.0,0.1
1446036924735807955,389,1446036924732753992,robocape,-25.7161174155,8.7234836514,-4.84717090019,0.0,10.0,0.0,0.0,0.0,10.0,0.0,0.0,0.0,10.0,-1.67725885453,1.0214554361,-1.98112553491,1.0,0.0,0.0,0.0,1.0,0.0,0.0,0.0,1.0,17.6991943359,-19.62,19.1433911133,0.1,0.0,0.0,0.0,0.1,0.0,0.0,0.0,0.1
1446036924775365288,390,1446036924771888017,robocape,-22.2846992376,10.0557352224,-11.8683097458,0.0,10.0,0.0,0.0,0.0,10.0,0.0,0.0,0.0,10.0,2.42440869835,2.0991035712,-3.02575047249,1.0,0.0,0.0,0.0,1.0,0.0,0.0,0.0,1.0,-5.81630493164,-8.64003295898,11.3607751465,0.1,0.0,0.0,0.0,0.1,0.0,0.0,0.0,0.1
1446036924802777413,391,1446036924799438953,robocape,-16.54546387,10.8610692778,-17.5162558939,0.0,10.0,0.0,0.0,0.0,10.0,0.0,0.0,0.0,10.0,3.56610585767,1.34742635353,-2.58939152788,1.0,0.0,0.0,0.0,1.0,0.0,0.0,0.0,1.0,-2.35071166992,-4.96248046875,9.73455688477,0.1,0.0,0.0,0.0,0.1,0.0,0.0,0.0,0.1
1446036924835883580,392,1446036924832828044,robocape,-10.1678444051,11.5123747969,-20.8421360803,0.0,10.0,0.0,0.0,0.0,10.0,0.0,0.0,0.0,10.0,3.68461652618,0.722781919848,-1.5801866328,1.0,0.0,0.0,0.0,1.0,0.0,0.0,0.0,1.0,1.2226574707,1.73878417969,4.20086425781,0.1,0.0,0.0,0.0,0.1,0.0,0.0,0.0,0.1
1446036924869248955,393,1446036924866049051,robocape,-5.41785752851,11.913891826,-21.4959108268,0.0,10.0,0.0,0.0,0.0,10.0,0.0,0.0,0.0,10.0,2.55716727869,0.258193467683,-0.31012510894,1.0,0.0,0.0,0.0,1.0,0.0,0.0,0.0,1.0,0.878972167969,4.09548339844,6.974296875,0.1,0.0,0.0,0.0,0.1,0.0,0.0,0.0,0.1
1446036924902537122,394,1446036924899493932,robocape,-3.26689475514,12.1452341873,-20.438225277,0.0,10.0,0.0,0.0,0.0,10.0,0.0,0.0,0.0,10.0,1.01080279174,0.0809600971384,0.54754592012,1.0,0.0,0.0,0.0,1.0,0.0,0.0,0.0,1.0,-1.10530151367,5.42591674805,8.17659667969,0.1,0.0,0.0,0.0,0.1,0.0,0.0,0.0,0.1
1446036924935965622,395,1446036924932985067,robocape,-4.03882148855,12.1508075154,-18.5838132489,0.0,10.0,0.0,0.0,0.0,10.0,0.0,0.0,0.0,10.0,-0.607733360756,-0.0621848114534,0.95434377663,1.0,0.0,0.0,0.0,1.0,0.0,0.0,0.0,1.0,2.31478637695,4.061953125,7.80896118164,0.1,0.0,0.0,0.0,0.1,0.0,0.0,0.0,0.1
