%time,field.header.seq,field.header.stamp,field.header.frame_id,field.orientation.x,field.orientation.y,field.orientation.z,field.orientation.w,field.orientation_covariance0,field.orientation_covariance1,field.orientation_covariance2,field.orientation_covariance3,field.orientation_covariance4,field.orientation_covariance5,field.orientation_covariance6,field.orientation_covariance7,field.orientation_covariance8,field.angular_velocity.x,field.angular_velocity.y,field.angular_velocity.z,field.angular_velocity_covariance0,field.angular_velocity_covariance1,field.angular_velocity_covariance2,field.angular_velocity_covariance3,field.angular_velocity_covariance4,field.angular_velocity_covariance5,field.angular_velocity_covariance6,field.angular_velocity_covariance7,field.angular_velocity_covariance8,field.linear_acceleration.x,field.linear_acceleration.y,field.linear_acceleration.z,field.linear_acceleration_covariance0,field.linear_acceleration_covariance1,field.linear_acceleration_covariance2,field.linear_acceleration_covariance3,field.linear_acceleration_covariance4,field.linear_acceleration_covariance5,field.linear_acceleration_covariance6,field.linear_acceleration_covariance7,field.linear_acceleration_covariance8
1446039378207273920,1,1446039378204076051,robocape,10.3750809755,-2.48292971033,-26.7003454269,0.0,10.0,0.0,0.0,0.0,10.0,0.0,0.0,0.0,10.0,-0.0506000607115,0.00452737385313,0.0969390636789,1.0,0.0,0.0,0.0,1.0,0.0,0.0,0.0,1.0,-0.118553466797,-0.913699951172,10.0698596191,0.1,0.0,0.0,0.0,0.1,0.0,0.0,0.0,0.1
1446039378238506962,2,1446039378235490083,robocape,10.5357642067,-2.48021347117,-26.5525132653,0.0,10.0,0.0,0.0,0.0,10.0,0.0,0.0,0.0,10.0,0.09933590866,0.00958737992429,0.0439421579863,1.0,0.0,0.0,0.0,1.0,0.0,0.0,0.0,1.0,-0.290994873047,-0.524509277344,10.0650695801,0.1,0.0,0.0,0.0,0.1,0.0,0.0,0.0,0.1
1446039378271733462,3,1446039378268707990,robocape,10.9559671306,-2.46704781137,-26.4645950698,0.0,10.0,0.0,0.0,0.0,10.0,0.0,0.0,0.0,10.0,0.236089230636,0.00865527354276,0.00772316716123,1.0,0.0,0.0,0.0,1.0,0.0,0.0,0.0,1.0,0.0718505859375,-0.682580566406,10.1105749512,0.1,0.0,0.0,0.0,0.1,0.0,0.0,0.0,0.1
1446039378305000795,4,1446039378301649093,robocape,11.5737605586,-2.467115103,-26.3761124787,0.0,10.0,0.0,0.0,0.0,10.0,0.0,0.0,0.0,10.0,0.341417251748,0.00173105470855,0.00692421883421,1.0,0.0,0.0,0.0,1.0,0.0,0.0,0.0,1.0,0.336500244141,0.0886157226563,10.0207617188,0.1,0.0,0.0,0.0,0.1,0.0,0.0,0.0,0.1
1446039378338341003,5,1446039378335381984,robocape,12.0681159199,-2.49077192357,-26.2146240781,0.0,10.0,0.0,0.0,0.0,10.0,0.0,0.0,0.0,10.0,0.27790085975,-0.00173105470855,0.049934270439,1.0,0.0,0.0,0.0,1.0,0.0,0.0,0.0,1.0,-0.0730480957031,1.07057373047,9.93573852539,0.1,0.0,0.0,0.0,0.1,0.0,0.0,0.0,0.1
1446039378372307962,6,1446039378369019985,robocape,12.374634793,-2.49909956036,-26.0933745642,0.0,10.0,0.0,0.0,0.0,10.0,0.0,0.0,0.0,10.0,0.178698109144,0.00226368692657,0.0286289817184,1.0,0.0,0.0,0.0,1.0,0.0,0.0,0.0,1.0,0.159268798828,1.15679443359,9.96447875977,0.1,0.0,0.0,0.0,0.1,0.0,0.0,0.0,0.1
1446039378406324962,7,1446039378402512073,robocape,12.5303161602,-2.47193860177,-26.0826339854,0.0,10.0,0.0,0.0,0.0,10.0,0.0,0.0,0.0,10.0,0.0980043281149,0.00785632521573,-0.0331563555715,1.0,0.0,0.0,0.0,1.0,0.0,0.0,0.0,1.0,0.246687011719,1.45018432617,9.95489868164,0.1,0.0,0.0,0.0,0.1,0.0,0.0,0.0,0.1
1446039378439143337,8,1446039378435818910,robocape,12.3585994808,-2.431466254,-26.075624949,0.0,10.0,0.0,0.0,0.0,10.0,0.0,0.0,0.0,10.0,-0.0755006169037,0.0150468601589,-0.0326237233535,1.0,0.0,0.0,0.0,1.0,0.0,0.0,0.0,1.0,0.0514929199219,1.57592285156,9.98603393555,0.1,0.0,0.0,0.0,0.1,0.0,0.0,0.0,0.1
1446039378471809337,9,1446039378468676090,robocape,11.9965226556,-2.37200703537,-26.1265708419,0.0,10.0,0.0,0.0,0.0,10.0,0.0,0.0,0.0,10.0,-0.177233370545,0.0186421276306,-0.0635163919984,1.0,0.0,0.0,0.0,1.0,0.0,0.0,0.0,1.0,0.222736816406,1.0382409668,9.96328125,0.1,0.0,0.0,0.0,0.1,0.0,0.0,0.0,0.1
1446039378504781420,10,1446039378501657009,robocape,11.5205039042,-2.30773382962,-26.1888397367,0.0,10.0,0.0,0.0,0.0,10.0,0.0,0.0,0.0,10.0,-0.238086601453,0.0205063403936,-0.068709556124,1.0,0.0,0.0,0.0,1.0,0.0,0.0,0.0,1.0,-0.00838256835938,0.578397216797,10.0099841309,0.1,0.0,0.0,0.0,0.1,0.0,0.0,0.0,0.1
1446039378543750962,11,1446039378540549039,robocape,11.0068743327,-2.25143313107,-26.2382592479,0.0,10.0,0.0,0.0,0.0,10.0,0.0,0.0,0.0,10.0,-0.258326625738,0.0183758115215,-0.0604537567448,1.0,0.0,0.0,0.0,1.0,0.0,0.0,0.0,1.0,0.0718505859375,0.275427246094,9.95370117188,0.1,0.0,0.0,0.0,0.1,0.0,0.0,0.0,0.1
1446039378573645379,12,1446039378570013999,robocape,10.5591476748,-2.21142981156,-26.2478503052,0.0,10.0,0.0,0.0,0.0,10.0,0.0,0.0,0.0,10.0,-0.223572373512,0.0143810698864,-0.0379500455336,1.0,0.0,0.0,0.0,1.0,0.0,0.0,0.0,1.0,0.0167651367188,-0.435893554688,10.0518969727,0.1,0.0,0.0,0.0,0.1,0.0,0.0,0.0,0.1
1446039378607187087,13,1446039378603640079,robocape,10.3207154399,-2.18380572524,-26.2222790603,0.0,10.0,0.0,0.0,0.0,10.0,0.0,0.0,0.0,10.0,-0.113051188274,0.0113184346328,-0.0198405501211,1.0,0.0,0.0,0.0,1.0,0.0,0.0,0.0,1.0,-0.0790356445313,-0.639470214844,10.0938098145,0.1,0.0,0.0,0.0,0.1,0.0,0.0,0.0,0.1
1446039378642503420,14,1446039378639170885,robocape,10.2636117301,-2.16044216774,-26.1773030319,0.0,10.0,0.0,0.0,0.0,10.0,0.0,0.0,0.0,10.0,-0.0173105470855,0.0107858024148,-0.0106526443603,1.0,0.0,0.0,0.0,1.0,0.0,0.0,0.0,1.0,-0.0622705078125,-0.558039550781,10.0626745605,0.1,0.0,0.0,0.0,0.1,0.0,0.0,0.0,0.1
1446039378675726462,15,1446039378671890020,robocape,10.20644721,-2.17552078095,-25.966775857,0.0,10.0,0.0,0.0,0.0,10.0,0.0,0.0,0.0,10.0,-0.015845808486,0.00719053494321,0.0830906260105,1.0,0.0,0.0,0.0,1.0,0.0,0.0,0.0,1.0,0.0263452148438,-0.365240478516,10.0027990723,0.1,0.0,0.0,0.0,0.1,0.0,0.0,0.0,0.1
1446039378706005254,16,1446039378702578067,robocape,10.2497082974,-2.22068973089,-25.6354610539,0.0,10.0,0.0,0.0,0.0,10.0,0.0,0.0,0.0,10.0,0.0383495196971,0.0033289513626,0.150868075753,1.0,0.0,0.0,0.0,1.0,0.0,0.0,0.0,1.0,0.01916015625,-0.86220703125,10.0423168945,0.1,0.0,0.0,0.0,0.1,0.0,0.0,0.0,0.1
1446039378742136795,17,1446039378738533020,robocape,10.6170919929,-2.23931694229,-25.4368596983,0.0,10.0,0.0,0.0,0.0,10.0,0.0,0.0,0.0,10.0,0.208392355299,0.00386158358061,0.0736364041407,1.0,0.0,0.0,0.0,1.0,0.0,0.0,0.0,1.0,-0.301772460938,-0.675395507813,10.0770446777,0.1,0.0,0.0,0.0,0.1,0.0,0.0,0.0,0.1
1446039378774893087,18,1446039378771404981,robocape,11.2481560098,-2.25356329691,-25.2908277512,0.0,10.0,0.0,0.0,0.0,10.0,0.0,0.0,0.0,10.0,0.347941996419,0.000932106381528,0.0420779452233,1.0,0.0,0.0,0.0,1.0,0.0,0.0,0.0,1.0,0.0790356445313,-0.0586779785156,10.0423168945,0.1,0.0,0.0,0.0,0.1,0.0,0.0,0.0,0.1
1446039378808617920,19,1446039378805156946,robocape,11.962820006,-2.25341260396,-25.2495664232,0.0,10.0,0.0,0.0,0.0,10.0,0.0,0.0,0.0,10.0,0.392416786623,-0.00279631914458,-0.0173105470855,1.0,0.0,0.0,0.0,1.0,0.0,0.0,0.0,1.0,0.274229736328,0.668210449219,9.91418334961,0.1,0.0,0.0,0.0,0.1,0.0,0.0,0.0,0.1
1446039378841635754,20,1446039378838088989,robocape,12.4022370778,-2.24555346823,-25.2256641543,0.0,10.0,0.0,0.0,0.0,10.0,0.0,0.0,0.0,10.0,0.247673981377,-0.000399474163512,-0.0250337142467,1.0,0.0,0.0,0.0,1.0,0.0,0.0,0.0,1.0,0.0263452148438,2.11480224609,9.92376342773,0.1,0.0,0.0,0.0,0.1,0.0,0.0,0.0,0.1
1446039378874639087,21,1446039378871329069,robocape,12.4167365675,-2.22275576814,-25.1926999116,0.0,10.0,0.0,0.0,0.0,10.0,0.0,0.0,0.0,10.0,0.0230363434292,0.00918790576077,-0.0170442309765,1.0,0.0,0.0,0.0,1.0,0.0,0.0,0.0,1.0,0.292192382813,2.09803710938,9.91777587891,0.1,0.0,0.0,0.0,0.1,0.0,0.0,0.0,0.1
1446039378908086420,22,1446039378904803037,robocape,12.040372316,-2.18492048766,-25.1319568651,0.0,10.0,0.0,0.0,0.0,10.0,0.0,0.0,0.0,10.0,-0.184024431324,0.0210389726116,0.00106526443603,1.0,0.0,0.0,0.0,1.0,0.0,0.0,0.0,1.0,0.201181640625,1.78069702148,9.94891113281,0.1,0.0,0.0,0.0,0.1,0.0,0.0,0.0,0.1
1446039378941026795,23,1446039378937263965,robocape,11.3033128758,-2.17896034934,-24.9394289062,0.0,10.0,0.0,0.0,0.0,10.0,0.0,0.0,0.0,10.0,-0.374307291211,0.0199737081756,0.0800279907569,1.0,0.0,0.0,0.0,1.0,0.0,0.0,0.0,1.0,0.118553466797,0.924477539063,9.90460327148,0.1,0.0,0.0,0.0,0.1,0.0,0.0,0.0,0.1
1446039378974701670,24,1446039378971158027,robocape,10.6017446175,-2.15918894418,-24.8318091385,0.0,10.0,0.0,0.0,0.0,10.0,0.0,0.0,0.0,10.0,-0.356863586071,0.0170442309765,0.032756881408,1.0,0.0,0.0,0.0,1.0,0.0,0.0,0.0,1.0,-0.0646655273438,-0.831071777344,10.1357226563,0.1,0.0,0.0,0.0,0.1,0.0,0.0,0.0,0.1
1446039379006191295,25,1446039379002890110,robocape,10.2972522942,-2.13675866846,-24.7339977678,0.0,10.0,0.0,0.0,0.0,10.0,0.0,0.0,0.0,10.0,-0.147672282445,0.016378440704,0.0233026595382,1.0,0.0,0.0,0.0,1.0,0.0,0.0,0.0,1.0,-0.0718505859375,-0.825084228516,10.0135766602,0.1,0.0,0.0,0.0,0.1,0.0,0.0,0.0,0.1
1446039379039939004,26,1446039379036761045,robocape,10.3241871602,-2.12254829857,-24.6603810262,0.0,10.0,0.0,0.0,0.0,10.0,0.0,0.0,0.0,10.0,0.0268979270098,0.00918790576077,0.00798948327024,1.0,0.0,0.0,0.0,1.0,0.0,0.0,0.0,1.0,0.00718505859375,-0.985550537109,10.0327368164,0.1,0.0,0.0,0.0,0.1,0.0,0.0,0.0,0.1
1446039379073217254,27,1446039379070137977,robocape,10.6351101745,-2.11239124931,-24.5982790536,0.0,10.0,0.0,0.0,0.0,10.0,0.0,0.0,0.0,10.0,0.176967054436,0.00559263828917,-0.000532632218016,1.0,0.0,0.0,0.0,1.0,0.0,0.0,0.0,1.0,-0.0898132324219,-0.506546630859,10.055489502,0.1,0.0,0.0,0.0,0.1,0.0,0.0,0.0,0.1
1446039379107628212,28,1446039379104582071,robocape,11.1003274613,-2.10765451982,-24.5320512196,0.0,10.0,0.0,0.0,0.0,10.0,0.0,0.0,0.0,10.0,0.259125574065,0.00306263525359,0.000532632218016,1.0,0.0,0.0,0.0,1.0,0.0,0.0,0.0,1.0,0.0251477050781,0.0419128417969,10.075847168,0.1,0.0,0.0,0.0,0.1,0.0,0.0,0.0,0.1
1446039379140869504,29,1446039379137831926,robocape,11.5168319603,-2.11624140858,-24.4035151209,0.0,10.0,0.0,0.0,0.0,10.0,0.0,0.0,0.0,10.0,0.234624492036,0.00306263525359,0.0356863586071,1.0,0.0,0.0,0.0,1.0,0.0,0.0,0.0,1.0,0.129331054688,0.717308349609,9.95849121094,0.1,0.0,0.0,0.0,0.1,0.0,0.0,0.0,0.1
1446039379172927212,30,1446039379169795036,robocape,11.8066272744,-2.11731318445,-24.3013504374,0.0,10.0,0.0,0.0,0.0,10.0,0.0,0.0,0.0,10.0,0.167912306729,0.00452737385313,0.0219710789932,1.0,0.0,0.0,0.0,1.0,0.0,0.0,0.0,1.0,0.0694555664063,0.902922363281,10.003996582,0.1,0.0,0.0,0.0,0.1,0.0,0.0,0.0,0.1
1446039379206143837,31,1446039379202985048,robocape,11.9474941854,-2.10601665108,-24.2369206086,0.0,10.0,0.0,0.0,0.0,10.0,0.0,0.0,0.0,10.0,0.0890827384632,0.00705737688871,0.00199737081756,1.0,0.0,0.0,0.0,1.0,0.0,0.0,0.0,1.0,0.112565917969,0.935255126953,10.0075891113,0.1,0.0,0.0,0.0,0.1,0.0,0.0,0.0,0.1
1446039379238647462,32,1446039379235218048,robocape,12.0136744675,-2.05674182479,-24.3097417171,0.0,10.0,0.0,0.0,0.0,10.0,0.0,0.0,0.0,10.0,0.0486026898939,0.0111852765783,-0.0749679846857,1.0,0.0,0.0,0.0,1.0,0.0,0.0,0.0,1.0,0.105380859375,1.23104003906,10.0135766602,0.1,0.0,0.0,0.0,0.1,0.0,0.0,0.0,0.1
1446039379271293337,33,1446039379268193960,robocape,11.9758060737,-1.96897956295,-24.5351430059,0.0,10.0,0.0,0.0,0.0,10.0,0.0,0.0,0.0,10.0,-0.00745685105222,0.0138484376684,-0.160189139568,1.0,0.0,0.0,0.0,1.0,0.0,0.0,0.0,1.0,0.138911132813,1.24900268555,9.98723144531,0.1,0.0,0.0,0.0,0.1,0.0,0.0,0.0,0.1
1446039379304686546,34,1446039379301376104,robocape,11.8516383205,-1.83447886312,-24.9722779376,0.0,10.0,0.0,0.0,0.0,10.0,0.0,0.0,0.0,10.0,-0.0541953281831,0.0143810698864,-0.278832966131,1.0,0.0,0.0,0.0,1.0,0.0,0.0,0.0,1.0,0.0706530761719,1.42503662109,9.93094848633,0.1,0.0,0.0,0.0,0.1,0.0,0.0,0.0,0.1
1446039379338222837,35,1446039379334738969,robocape,11.5104627601,-1.67854066563,-25.5404453795,0.0,10.0,0.0,0.0,0.0,10.0,0.0,0.0,0.0,10.0,-0.169243887275,0.0123836990689,-0.350605157509,1.0,0.0,0.0,0.0,1.0,0.0,0.0,0.0,1.0,0.129331054688,1.51365234375,9.92376342773,0.1,0.0,0.0,0.0,0.1,0.0,0.0,0.0,0.1
1446039379370941046,36,1446039379367491006,robocape,10.7424254543,-1.58340936941,-25.9087585833,0.0,10.0,0.0,0.0,0.0,10.0,0.0,0.0,0.0,10.0,-0.394147841332,0.00612527050718,-0.232760279273,1.0,0.0,0.0,0.0,1.0,0.0,0.0,0.0,1.0,0.0826281738281,1.71603149414,9.73575439453,0.1,0.0,0.0,0.0,0.1,0.0,0.0,0.0,0.1
1446039379404118171,37,1446039379400990009,robocape,9.53661316177,-1.56598083848,-26.0168895292,0.0,10.0,0.0,0.0,0.0,10.0,0.0,0.0,0.0,10.0,-0.624910749787,-0.00452737385313,-0.0802943068659,1.0,0.0,0.0,0.0,1.0,0.0,0.0,0.0,1.0,-0.067060546875,0.32572265625,10.0279467773,0.1,0.0,0.0,0.0,0.1,0.0,0.0,0.0,0.1
1446039379437394712,38,1446039379434156894,robocape,8.22948408233,-1.62233269738,-25.8773575843,0.0,10.0,0.0,0.0,0.0,10.0,0.0,0.0,0.0,10.0,-0.677508181316,-0.0202400242846,0.0604537567448,1.0,0.0,0.0,0.0,1.0,0.0,0.0,0.0,1.0,-0.328117675781,-0.179626464844,10.1261425781,0.1,0.0,0.0,0.0,0.1,0.0,0.0,0.0,0.1
1446039379470722129,39,1446039379467655897,robocape,7.10169300699,-1.67320361013,-25.75144555,0.0,10.0,0.0,0.0,0.0,10.0,0.0,0.0,0.0,10.0,-0.583631752891,-0.0202400242846,0.0495347962755,1.0,0.0,0.0,0.0,1.0,0.0,0.0,0.0,1.0,-0.166453857422,-0.941242675781,10.0123791504,0.1,0.0,0.0,0.0,0.1,0.0,0.0,0.0,0.1
1446039379503825296,40,1446039379500718116,robocape,6.27528400093,-1.69179240702,-25.6828228052,0.0,10.0,0.0,0.0,0.0,10.0,0.0,0.0,0.0,10.0,-0.426238932467,-0.00852211548825,0.0129163312869,1.0,0.0,0.0,0.0,1.0,0.0,0.0,0.0,1.0,-0.195194091797,-1.59987304688,10.075847168,0.1,0.0,0.0,0.0,0.1,0.0,0.0,0.0,0.1
1446039379537324796,41,1446039379534229040,robocape,5.69573564571,-1.70784828024,-25.6117744347,0.0,10.0,0.0,0.0,0.0,10.0,0.0,0.0,0.0,10.0,-0.297075619598,-0.00759000910673,0.0121173829599,1.0,0.0,0.0,0.0,1.0,0.0,0.0,0.0,1.0,0.215551757813,-1.93278076172,9.99920654297,0.1,0.0,0.0,0.0,0.1,0.0,0.0,0.0,0.1
1446039379570267546,42,1446039379567190885,robocape,5.44840782783,-1.69812206961,-25.5461780986,0.0,10.0,0.0,0.0,0.0,10.0,0.0,0.0,0.0,10.0,-0.123038042362,0.00519316412565,0.00585895439817,1.0,0.0,0.0,0.0,1.0,0.0,0.0,0.0,1.0,0.308957519531,-1.92918823242,10.1141674805,0.1,0.0,0.0,0.0,0.1,0.0,0.0,0.0,0.1
1446039379603813046,43,1446039379600759029,robocape,5.64792883184,-1.66592178231,-25.48223463,0.0,10.0,0.0,0.0,0.0,10.0,0.0,0.0,0.0,10.0,0.111586449674,0.016644756813,0.00159789665405,1.0,0.0,0.0,0.0,1.0,0.0,0.0,0.0,1.0,0.15328125,-1.76991943359,10.0854272461,0.1,0.0,0.0,0.0,0.1,0.0,0.0,0.0,0.1
1446039379637047796,44,1446039379633909940,robocape,6.09467323909,-1.62160562574,-25.4361584954,0.0,10.0,0.0,0.0,0.0,10.0,0.0,0.0,0.0,10.0,0.241681868925,0.0219710789932,-0.0102531701968,1.0,0.0,0.0,0.0,1.0,0.0,0.0,0.0,1.0,0.141306152344,-1.3412109375,10.1129699707,0.1,0.0,0.0,0.0,0.1,0.0,0.0,0.0,0.1
1446039379671303796,45,1446039379668175935,robocape,6.62554848141,-1.58371786197,-25.3596867747,0.0,10.0,0.0,0.0,0.0,10.0,0.0,0.0,0.0,10.0,0.286822449402,0.0205063403936,0.00585895439817,1.0,0.0,0.0,0.0,1.0,0.0,0.0,0.0,1.0,-0.196391601563,-0.829874267578,10.0363293457,0.1,0.0,0.0,0.0,0.1,0.0,0.0,0.0,0.1
1446039379704431879,46,1446039379701280117,robocape,7.27843078076,-1.53236554351,-25.3389297281,0.0,10.0,0.0,0.0,0.0,10.0,0.0,0.0,0.0,10.0,0.351404105836,0.0239684498107,-0.0267647689553,1.0,0.0,0.0,0.0,1.0,0.0,0.0,0.0,1.0,-0.0802331542969,-0.740061035156,10.0423168945,0.1,0.0,0.0,0.0,0.1,0.0,0.0,0.0,0.1
1446039379737592504,47,1446039379734172105,robocape,7.89294219599,-1.4995544554,-25.16736038,0.0,10.0,0.0,0.0,0.0,10.0,0.0,0.0,0.0,10.0,0.333161452369,0.0251668723012,0.0563258570552,1.0,0.0,0.0,0.0,1.0,0.0,0.0,0.0,1.0,0.0215551757813,0.447868652344,10.0722546387,0.1,0.0,0.0,0.0,0.1,0.0,0.0,0.0,0.1
1446039379770747462,48,1446039379767621994,robocape,8.14019467897,-1.54649670564,-24.5657460135,0.0,10.0,0.0,0.0,0.0,10.0,0.0,0.0,0.0,10.0,0.143011750537,0.01744370514,0.298806674307,1.0,0.0,0.0,0.0,1.0,0.0,0.0,0.0,1.0,0.132923583984,-0.444276123047,9.95370117188,0.1,0.0,0.0,0.0,0.1,0.0,0.0,0.0,0.1
1446039379803887254,49,1446039379800605058,robocape,8.53402171233,-1.59856832436,-24.0311180636,0.0,10.0,0.0,0.0,0.0,10.0,0.0,0.0,0.0,10.0,0.22024342215,0.0110521185238,0.262055051264,1.0,0.0,0.0,0.0,1.0,0.0,0.0,0.0,1.0,-0.0383203125,-0.711320800781,10.0219592285,0.1,0.0,0.0,0.0,0.1,0.0,0.0,0.0,0.1
1446039379837327629,50,1446039379834052085,robocape,9.20824118297,-1.62888250388,-23.67901883,0.0,10.0,0.0,0.0,0.0,10.0,0.0,0.0,0.0,10.0,0.367516230431,0.00918790576077,0.159523349296,1.0,0.0,0.0,0.0,1.0,0.0,0.0,0.0,1.0,-0.227526855469,-0.483793945313,10.0099841309,0.1,0.0,0.0,0.0,0.1,0.0,0.0,0.0,0.1
1446039379870568171,51,1446039379867463111,robocape,10.0453737577,-1.65556043069,-23.4792580361,0.0,10.0,0.0,0.0,0.0,10.0,0.0,0.0,0.0,10.0,0.453669491695,-0.000798948327024,0.0753674588492,1.0,0.0,0.0,0.0,1.0,0.0,0.0,0.0,1.0,0.229921875,-0.165256347656,9.98603393555,0.1,0.0,0.0,0.0,0.1,0.0,0.0,0.0,0.1
1446039379903959088,52,1446039379900715112,robocape,10.8571529434,-1.6739032258,-23.3122520387,0.0,10.0,0.0,0.0,0.0,10.0,0.0,0.0,0.0,10.0,0.441552108735,0.00146473859954,0.0565921731642,1.0,0.0,0.0,0.0,1.0,0.0,0.0,0.0,1.0,0.0922082519531,1.29690307617,9.99441650391,0.1,0.0,0.0,0.0,0.1,0.0,0.0,0.0,0.1
1446039379938352129,53,1446039379935126066,robocape,11.2872165974,-1.7734231386,-23.0805628789,0.0,10.0,0.0,0.0,0.0,10.0,0.0,0.0,0.0,10.0,0.241282394761,-0.0323574072445,0.102664860023,1.0,0.0,0.0,0.0,1.0,0.0,0.0,0.0,1.0,0.136516113281,1.39390136719,9.93454101563,0.1,0.0,0.0,0.0,0.1,0.0,0.0,0.0,0.1
1446039379970638588,54,1446039379967582941,robocape,11.5528004441,-1.76592861871,-23.0093668868,0.0,10.0,0.0,0.0,0.0,10.0,0.0,0.0,0.0,10.0,0.153930711007,0.00625842856169,0.00745685105222,1.0,0.0,0.0,0.0,1.0,0.0,0.0,0.0,1.0,0.147293701172,1.29690307617,10.0411193848,0.1,0.0,0.0,0.0,0.1,0.0,0.0,0.0,0.1
1446039380004238379,55,1446039380000859022,robocape,11.5042709888,-1.72733465134,-23.0318327149,0.0,10.0,0.0,0.0,0.0,10.0,0.0,0.0,0.0,10.0,-0.0126500151779,0.0126500151779,-0.0427437354958,1.0,0.0,0.0,0.0,1.0,0.0,0.0,0.0,1.0,0.199984130859,1.84775756836,9.9285534668,0.1,0.0,0.0,0.0,0.1,0.0,0.0,0.0,0.1
1446039380037186754,56,1446039380033845901,robocape,11.1977036903,-1.65702250516,-23.1386859958,0.0,10.0,0.0,0.0,0.0,10.0,0.0,0.0,0.0,10.0,-0.149802811317,0.0205063403936,-0.0885501062451,1.0,0.0,0.0,0.0,1.0,0.0,0.0,0.0,1.0,0.13412109375,1.40467895508,10.0315393066,0.1,0.0,0.0,0.0,0.1,0.0,0.0,0.0,0.1
1446039380070477296,57,1446039380067441940,robocape,10.7816955193,-1.55767596439,-23.3889295718,0.0,10.0,0.0,0.0,0.0,10.0,0.0,0.0,0.0,10.0,-0.208658671408,0.0213052887206,-0.167379674511,1.0,0.0,0.0,0.0,1.0,0.0,0.0,0.0,1.0,0.0802331542969,0.726888427734,10.0027990723,0.1,0.0,0.0,0.0,0.1,0.0,0.0,0.0,0.1
1446039380104220171,58,1446039380100466966,robocape,10.4098520264,-1.42179622084,-23.8898631863,0.0,10.0,0.0,0.0,0.0,10.0,0.0,0.0,0.0,10.0,-0.186421276306,0.016112124595,-0.306796157577,1.0,0.0,0.0,0.0,1.0,0.0,0.0,0.0,1.0,0.101788330078,0.411943359375,9.97286132813,0.1,0.0,0.0,0.0,0.1,0.0,0.0,0.0,0.1
1446039380138177213,59,1446039380135066986,robocape,9.99651144497,-1.29448752615,-24.465678664,0.0,10.0,0.0,0.0,0.0,10.0,0.0,0.0,0.0,10.0,-0.208259197244,0.00652474467069,-0.347409364201,1.0,0.0,0.0,0.0,1.0,0.0,0.0,0.0,1.0,-0.0898132324219,0.771196289063,9.91538085938,0.1,0.0,0.0,0.0,0.1,0.0,0.0,0.0,0.1
1446039380174195338,60,1446039380171036005,robocape,9.24935592868,-1.22799945539,-24.8917972633,0.0,10.0,0.0,0.0,0.0,10.0,0.0,0.0,0.0,10.0,-0.384160987244,-0.00759000910673,-0.259258732119,1.0,0.0,0.0,0.0,1.0,0.0,0.0,0.0,1.0,-0.0215551757813,0.833466796875,9.95729370117,0.1,0.0,0.0,0.0,0.1,0.0,0.0,0.0,0.1
1446039380206678921,61,1446039380203248977,robocape,8.23853680343,-1.2372729808,-25.0412868866,0.0,10.0,0.0,0.0,0.0,10.0,0.0,0.0,0.0,10.0,-0.523044838092,-0.0199737081756,-0.101732753641,1.0,0.0,0.0,0.0,1.0,0.0,0.0,0.0,1.0,0.0107775878906,0.336500244141,10.1141674805,0.1,0.0,0.0,0.0,0.1,0.0,0.0,0.0,0.1
1446039380240048879,62,1446039380236717939,robocape,7.06446131706,-1.30307960861,-24.9357162747,0.0,10.0,0.0,0.0,0.0,10.0,0.0,0.0,0.0,10.0,-0.608665467138,-0.0290284558819,0.0412789968962,1.0,0.0,0.0,0.0,1.0,0.0,0.0,0.0,1.0,-0.1916015625,-0.258662109375,9.95489868164,0.1,0.0,0.0,0.0,0.1,0.0,0.0,0.0,0.1
1446039380273249004,63,1446039380270159959,robocape,6.01895950454,-1.33961293876,-24.884024524,0.0,10.0,0.0,0.0,0.0,10.0,0.0,0.0,0.0,10.0,-0.541953281831,-0.0183758115215,0.00772316716123,1.0,0.0,0.0,0.0,1.0,0.0,0.0,0.0,1.0,-0.299377441406,-1.44299926758,10.0327368164,0.1,0.0,0.0,0.0,0.1,0.0,0.0,0.0,0.1
1446039380307059463,64,1446039380303348064,robocape,5.22025815539,-1.38023576194,-24.8296254236,0.0,10.0,0.0,0.0,0.0,10.0,0.0,0.0,0.0,10.0,-0.412923127017,-0.0209058145571,0.00692421883421,1.0,0.0,0.0,0.0,1.0,0.0,0.0,0.0,1.0,-0.00359252929688,-1.73758666992,10.0135766602,0.1,0.0,0.0,0.0,0.1,0.0,0.0,0.0,0.1
1446039380339385421,65,1446039380335968971,robocape,4.74693155306,-1.39652777447,-24.7900591408,0.0,10.0,0.0,0.0,0.0,10.0,0.0,0.0,0.0,10.0,-0.242747133361,-0.00932106381528,-0.00452737385313,1.0,0.0,0.0,0.0,1.0,0.0,0.0,0.0,1.0,0.368833007813,-1.83338745117,10.0650695801,0.1,0.0,0.0,0.0,0.1,0.0,0.0,0.0,0.1
1446039380372807046,66,1446039380369690895,robocape,4.70051186335,-1.37931050699,-24.7653447653,0.0,10.0,0.0,0.0,0.0,10.0,0.0,0.0,0.0,10.0,-0.0190416017941,0.00732369299772,-0.016112124595,1.0,0.0,0.0,0.0,1.0,0.0,0.0,0.0,1.0,0.197589111328,-2.03696411133,10.0530944824,0.1,0.0,0.0,0.0,0.1,0.0,0.0,0.0,0.1
1446039380406448171,67,1446039380403125047,robocape,4.91773497968,-1.34498980172,-24.6910361626,0.0,10.0,0.0,0.0,0.0,10.0,0.0,0.0,0.0,10.0,0.119842249054,0.0185089695761,0.00918790576077,1.0,0.0,0.0,0.0,1.0,0.0,0.0,0.0,1.0,0.179626464844,-1.76872192383,10.0542919922,0.1,0.0,0.0,0.0,0.1,0.0,0.0,0.0,0.1
1446039380437827963,68,1446039380434457063,robocape,5.28812761368,-1.29968183124,-24.567714838,0.0,10.0,0.0,0.0,0.0,10.0,0.0,0.0,0.0,10.0,0.200935504246,0.0267647689553,0.0347542522255,1.0,0.0,0.0,0.0,1.0,0.0,0.0,0.0,1.0,0.142503662109,-1.24421264648,10.1045874023,0.1,0.0,0.0,0.0,0.1,0.0,0.0,0.0,0.1
1446039380471201379,69,1446039380468146085,robocape,5.82719552959,-1.24299708412,-24.4879381777,0.0,10.0,0.0,0.0,0.0,10.0,0.0,0.0,0.0,10.0,0.289751926601,0.0307595105904,0.00932106381528,1.0,0.0,0.0,0.0,1.0,0.0,0.0,0.0,1.0,0.0407153320313,-0.902922363281,10.1117724609,0.1,0.0,0.0,0.0,0.1,0.0,0.0,0.0,0.1
1446039380504396421,70,1446039380501347064,robocape,6.34049341939,-1.20248122948,-24.3683549335,0.0,10.0,0.0,0.0,0.0,10.0,0.0,0.0,0.0,10.0,0.277101911423,0.0249005561922,0.0315584589174,1.0,0.0,0.0,0.0,1.0,0.0,0.0,0.0,1.0,-0.166453857422,-0.435893554688,10.003996582,0.1,0.0,0.0,0.0,0.1,0.0,0.0,0.0,0.1
1446039380538614213,71,1446039380535362005,robocape,6.81008396146,-1.1697392288,-24.159069714,0.0,10.0,0.0,0.0,0.0,10.0,0.0,0.0,0.0,10.0,0.25513083243,0.0268979270098,0.0808269390839,1.0,0.0,0.0,0.0,1.0,0.0,0.0,0.0,1.0,-0.136516113281,0.193996582031,10.0483044434,0.1,0.0,0.0,0.0,0.1,0.0,0.0,0.0,0.1
1446039380571421171,72,1446039380568276882,robocape,6.92029088439,-1.19517102016,-23.5899431789,0.0,10.0,0.0,0.0,0.0,10.0,0.0,0.0,0.0,10.0,0.0680437658515,0.0207726565026,0.282428233603,1.0,0.0,0.0,0.0,1.0,0.0,0.0,0.0,1.0,0.0455053710938,0.0047900390625,10.039921875,0.1,0.0,0.0,0.0,0.1,0.0,0.0,0.0,0.1
1446039380603972505,73,1446039380600905895,robocape,6.99307626012,-1.23450867548,-22.9853629247,0.0,10.0,0.0,0.0,0.0,10.0,0.0,0.0,0.0,10.0,0.0487358479485,0.016378440704,0.303200890106,1.0,0.0,0.0,0.0,1.0,0.0,0.0,0.0,1.0,0.122145996094,-0.761616210938,10.0459094238,0.1,0.0,0.0,0.0,0.1,0.0,0.0,0.0,0.1
1446039380637270921,74,1446039380634213924,robocape,7.56777424311,-1.2227838678,-22.7389833291,0.0,10.0,0.0,0.0,0.0,10.0,0.0,0.0,0.0,10.0,0.31132353143,0.0197073920666,0.103197492241,1.0,0.0,0.0,0.0,1.0,0.0,0.0,0.0,1.0,0.170046386719,-1.83817749023,10.0674645996,0.1,0.0,0.0,0.0,0.1,0.0,0.0,0.0,0.1
1446039380670470130,75,1446039380667402982,robocape,8.60464959646,-1.16779217185,-22.8391384755,0.0,10.0,0.0,0.0,0.0,10.0,0.0,0.0,0.0,10.0,0.554470138954,0.0170442309765,-0.0908137931717,1.0,0.0,0.0,0.0,1.0,0.0,0.0,0.0,1.0,-0.32572265625,-0.311352539063,10.0099841309,0.1,0.0,0.0,0.0,0.1,0.0,0.0,0.0,0.1
1446039380703802546,76,1446039380700753927,robocape,9.66511802965,-1.11643821736,-23.0225785043,0.0,10.0,0.0,0.0,0.0,10.0,0.0,0.0,0.0,10.0,0.568984366895,0.00652474467069,-0.137552270303,1.0,0.0,0.0,0.0,1.0,0.0,0.0,0.0,1.0,-0.0598754882813,1.07416625977,9.96208374023,0.1,0.0,0.0,0.0,0.1,0.0,0.0,0.0,0.1
1446039380737187296,77,1446039380734005928,robocape,10.2789428089,-1.07779108482,-23.0538697598,0.0,10.0,0.0,0.0,0.0,10.0,0.0,0.0,0.0,10.0,0.335291981241,0.0127831732324,-0.0524642734746,1.0,0.0,0.0,0.0,1.0,0.0,0.0,0.0,1.0,0.399968261719,1.81542480469,9.99681152344,0.1,0.0,0.0,0.0,0.1,0.0,0.0,0.0,0.1
1446039380770755796,78,1446039380767391920,robocape,10.3370394478,-1.08350323973,-22.8636237248,0.0,10.0,0.0,0.0,0.0,10.0,0.0,0.0,0.0,10.0,0.0424774193868,0.0117179087963,0.0753674588492,1.0,0.0,0.0,0.0,1.0,0.0,0.0,0.0,1.0,0.0143701171875,2.28963867188,9.90819580078,0.1,0.0,0.0,0.0,0.1,0.0,0.0,0.0,0.1
1446039380803936630,79,1446039380800827026,robocape,9.64566020263,-1.12618085491,-22.4007334299,0.0,10.0,0.0,0.0,0.0,10.0,0.0,0.0,0.0,10.0,-0.353135160545,0.0186421276306,0.232493963164,1.0,0.0,0.0,0.0,1.0,0.0,0.0,0.0,1.0,0.250279541016,0.907712402344,9.90819580078,0.1,0.0,0.0,0.0,0.1,0.0,0.0,0.0,0.1
1446039380837650796,80,1446039380834561109,robocape,9.06955306606,-1.16188082565,-22.0337159856,0.0,10.0,0.0,0.0,0.0,10.0,0.0,0.0,0.0,10.0,-0.2926814038,0.0110521185238,0.17976337358,1.0,0.0,0.0,0.0,1.0,0.0,0.0,0.0,1.0,0.101788330078,-0.659827880859,10.0375268555,0.1,0.0,0.0,0.0,0.1,0.0,0.0,0.0,0.1
1446039380870377796,81,1446039380867269992,robocape,8.81684815586,-1.17525587129,-21.8683356559,0.0,10.0,0.0,0.0,0.0,10.0,0.0,0.0,0.0,10.0,-0.123038042362,0.00399474163512,0.067377975579,1.0,0.0,0.0,0.0,1.0,0.0,0.0,0.0,1.0,-0.289797363281,-0.647852783203,10.1345251465,0.1,0.0,0.0,0.0,0.1,0.0,0.0,0.0,0.1
1446039380904183255,82,1446039380901084899,robocape,8.81774024634,-1.1544924544,-21.8121580825,0.0,10.0,0.0,0.0,0.0,10.0,0.0,0.0,0.0,10.0,0.0101200121423,0.0122505410144,0.00426105774413,1.0,0.0,0.0,0.0,1.0,0.0,0.0,0.0,1.0,-0.0730480957031,-1.1879296875,10.1285375977,0.1,0.0,0.0,0.0,0.1,0.0,0.0,0.0,0.1
1446039380937691796,83,1446039380934653043,robocape,9.40595499227,-1.03707564197,-22.2976005102,0.0,10.0,0.0,0.0,0.0,10.0,0.0,0.0,0.0,10.0,0.319046698591,0.015579492377,-0.299605622634,1.0,0.0,0.0,0.0,1.0,0.0,0.0,0.0,1.0,-0.305364990234,-0.717308349609,10.0950073242,0.1,0.0,0.0,0.0,0.1,0.0,0.0,0.0,0.1
1446039380970602588,84,1446039380967267990,robocape,10.0892816117,-0.882291289151,-22.7702213956,0.0,10.0,0.0,0.0,0.0,10.0,0.0,0.0,0.0,10.0,0.371510972066,0.0328900394625,-0.299072990416,1.0,0.0,0.0,0.0,1.0,0.0,0.0,0.0,1.0,0.164058837891,1.21307739258,9.85550537109,0.1,0.0,0.0,0.0,0.1,0.0,0.0,0.0,0.1
1446039381003980880,85,1446039381000825881,robocape,10.2811273646,-0.803398172093,-23.1400953957,0.0,10.0,0.0,0.0,0.0,10.0,0.0,0.0,0.0,10.0,0.113450662437,0.00186421276306,-0.234491333981,1.0,0.0,0.0,0.0,1.0,0.0,0.0,0.0,1.0,-0.0263452148438,1.99145874023,9.94172607422,0.1,0.0,0.0,0.0,0.1,0.0,0.0,0.0,0.1
1446039381038832671,86,1446039381035748004,robocape,9.93119333249,-0.75067206518,-23.3960697863,0.0,10.0,0.0,0.0,0.0,10.0,0.0,0.0,0.0,10.0,-0.172705996692,0.0,-0.166580726184,1.0,0.0,0.0,0.0,1.0,0.0,0.0,0.0,1.0,0.205971679688,1.53161499023,9.91298583984,0.1,0.0,0.0,0.0,0.1,0.0,0.0,0.0,0.1
1446039381070574213,87,1446039381067538976,robocape,9.2586024222,-0.715188666289,-23.599724568,0.0,10.0,0.0,0.0,0.0,10.0,0.0,0.0,0.0,10.0,-0.34354778062,-0.00253000303558,-0.134356476994,1.0,0.0,0.0,0.0,1.0,0.0,0.0,0.0,1.0,-0.0634680175781,0.935255126953,9.89382568359,0.1,0.0,0.0,0.0,0.1,0.0,0.0,0.0,0.1
1446039381104937713,88,1446039381101855039,robocape,8.31909052733,-0.734993379766,-23.60714793,0.0,10.0,0.0,0.0,0.0,10.0,0.0,0.0,0.0,10.0,-0.485227950612,-0.0130494893414,-0.0219710789932,1.0,0.0,0.0,0.0,1.0,0.0,0.0,0.0,1.0,-0.0694555664063,0.431103515625,10.0926123047,0.1,0.0,0.0,0.0,0.1,0.0,0.0,0.0,0.1
1446039381140595171,89,1446039381137208938,robocape,7.2952796588,-0.795854979326,-23.5065704647,0.0,10.0,0.0,0.0,0.0,10.0,0.0,0.0,0.0,10.0,-0.530235373035,-0.0262321367373,0.0394147841332,1.0,0.0,0.0,0.0,1.0,0.0,0.0,0.0,1.0,-0.149688720703,-0.350870361328,9.97166381836,0.1,0.0,0.0,0.0,0.1,0.0,0.0,0.0,0.1
1446039381170510880,90,1446039381167448997,robocape,6.30815448673,-0.837117272399,-23.4108885788,0.0,10.0,0.0,0.0,0.0,10.0,0.0,0.0,0.0,10.0,-0.51146008735,-0.0173105470855,0.0342216200075,1.0,0.0,0.0,0.0,1.0,0.0,0.0,0.0,1.0,0.0227526855469,-0.866997070313,10.0315393066,0.1,0.0,0.0,0.0,0.1,0.0,0.0,0.0,0.1
1446039381203752672,91,1446039381200722932,robocape,5.63844095717,-0.88442172909,-23.3596611249,0.0,10.0,0.0,0.0,0.0,10.0,0.0,0.0,0.0,10.0,-0.345278835329,-0.0238352917562,0.00772316716123,1.0,0.0,0.0,0.0,1.0,0.0,0.0,0.0,1.0,-0.241896972656,-1.39749389648,10.0171691895,0.1,0.0,0.0,0.0,0.1,0.0,0.0,0.0,0.1
1446039381237384380,92,1446039381234278917,robocape,5.20629862264,-0.906320581286,-23.2959719109,0.0,10.0,0.0,0.0,0.0,10.0,0.0,0.0,0.0,10.0,-0.220909212422,-0.0102531701968,0.0115847507418,1.0,0.0,0.0,0.0,1.0,0.0,0.0,0.0,1.0,0.350870361328,-1.58909545898,9.99920654297,0.1,0.0,0.0,0.0,0.1,0.0,0.0,0.0,0.1
1446039381270423463,93,1446039381267381906,robocape,5.08649027097,-0.899422383293,-23.2575736782,0.0,10.0,0.0,0.0,0.0,10.0,0.0,0.0,0.0,10.0,-0.0572579634367,0.0033289513626,-0.00506000607115,1.0,0.0,0.0,0.0,1.0,0.0,0.0,0.0,1.0,0.225131835938,-1.83218994141,10.0075891113,0.1,0.0,0.0,0.0,0.1,0.0,0.0,0.0,0.1
1446039381304001088,94,1446039381300844907,robocape,5.24748709539,-0.864935410649,-23.1969274984,0.0,10.0,0.0,0.0,0.0,10.0,0.0,0.0,0.0,10.0,0.0902811609537,0.0187752856851,0.00452737385313,1.0,0.0,0.0,0.0,1.0,0.0,0.0,0.0,1.0,0.0419128417969,-1.59268798828,10.0914147949,0.1,0.0,0.0,0.0,0.1,0.0,0.0,0.0,0.1
1446039381337558463,95,1446039381334074974,robocape,5.57736589283,-0.817346188495,-23.0892653175,0.0,10.0,0.0,0.0,0.0,10.0,0.0,0.0,0.0,10.0,0.179363899417,0.0280963495003,0.0286289817184,1.0,0.0,0.0,0.0,1.0,0.0,0.0,0.0,1.0,0.166453857422,-1.04303100586,10.1620678711,0.1,0.0,0.0,0.0,0.1,0.0,0.0,0.0,0.1
1446039381370742588,96,1446039381367254018,robocape,5.96356604905,-0.771622622532,-22.9128688913,0.0,10.0,0.0,0.0,0.0,10.0,0.0,0.0,0.0,10.0,0.209457619735,0.0311589847539,0.0656469208705,1.0,0.0,0.0,0.0,1.0,0.0,0.0,0.0,1.0,0.0323327636719,-0.611927490234,10.055489502,0.1,0.0,0.0,0.0,0.1,0.0,0.0,0.0,0.1
1446039381403927630,97,1446039381400505065,robocape,6.12495720658,-0.762188273537,-22.4551557846,0.0,10.0,0.0,0.0,0.0,10.0,0.0,0.0,0.0,10.0,0.0920122156622,0.0287621397729,0.22144184464,1.0,0.0,0.0,0.0,1.0,0.0,0.0,0.0,1.0,0.09580078125,-0.328117675781,10.1021923828,0.1,0.0,0.0,0.0,0.1,0.0,0.0,0.0,0.1
1446039381437593588,98,1446039381433971881,robocape,6.28073337465,-0.781488292811,-21.7934746347,0.0,10.0,0.0,0.0,0.0,10.0,0.0,0.0,0.0,10.0,0.0894822126267,0.0263652947918,0.333827242641,1.0,0.0,0.0,0.0,1.0,0.0,0.0,0.0,1.0,-0.0311352539063,-0.953217773438,9.90580078125,0.1,0.0,0.0,0.0,0.1,0.0,0.0,0.0,0.1
1446039381470784297,99,1446039381467081069,robocape,6.60606637404,-0.803701217542,-21.2150686799,0.0,10.0,0.0,0.0,0.0,10.0,0.0,0.0,0.0,10.0,0.178698109144,0.0211721306661,0.288420346056,1.0,0.0,0.0,0.0,1.0,0.0,0.0,0.0,1.0,0.0467028808594,-1.59628051758,10.0303417969,0.1,0.0,0.0,0.0,0.1,0.0,0.0,0.0,0.1
1446039381503697838,100,1446039381500472068,robocape,7.39225318355,-0.784479812814,-20.9835739796,0.0,10.0,0.0,0.0,0.0,10.0,0.0,0.0,0.0,10.0,0.421045768342,0.0226368692657,0.0965395895154,1.0,0.0,0.0,0.0,1.0,0.0,0.0,0.0,1.0,-0.0969982910156,-1.33642089844,10.0375268555,0.1,0.0,0.0,0.0,0.1,0.0,0.0,0.0,0.1
1446039381537932588,101,1446039381534540891,robocape,8.52203452325,-0.742479521799,-20.9326737092,0.0,10.0,0.0,0.0,0.0,10.0,0.0,0.0,0.0,10.0,0.603205986903,0.0226368692657,-0.00506000607115,1.0,0.0,0.0,0.0,1.0,0.0,0.0,0.0,1.0,-0.199984130859,-0.144898681641,10.0626745605,0.1,0.0,0.0,0.0,0.1,0.0,0.0,0.0,0.1
1446039381570511422,102,1446039381567255020,robocape,9.67170006505,-0.723809062618,-20.9049687688,0.0,10.0,0.0,0.0,0.0,10.0,0.0,0.0,0.0,10.0,0.615856002081,0.00865527354276,-0.01744370514,1.0,0.0,0.0,0.0,1.0,0.0,0.0,0.0,1.0,-0.174836425781,0.392783203125,10.0471069336,0.1,0.0,0.0,0.0,0.1,0.0,0.0,0.0,0.1
1446039381603708922,103,1446039381600697040,robocape,10.6803509308,-0.694397014049,-20.9617073553,0.0,10.0,0.0,0.0,0.0,10.0,0.0,0.0,0.0,10.0,0.543817494594,0.00612527050718,-0.0640490242164,1.0,0.0,0.0,0.0,1.0,0.0,0.0,0.0,1.0,0.104183349609,1.30169311523,9.99321899414,0.1,0.0,0.0,0.0,0.1,0.0,0.0,0.0,0.1
1446039381637413338,104,1446039381634160041,robocape,11.1499865472,-0.677172960351,-20.9414977073,0.0,10.0,0.0,0.0,0.0,10.0,0.0,0.0,0.0,10.0,0.260190838501,0.00745685105222,-0.0183758115215,1.0,0.0,0.0,0.0,1.0,0.0,0.0,0.0,1.0,0.180823974609,2.3722668457,9.88783813477,0.1,0.0,0.0,0.0,0.1,0.0,0.0,0.0,0.1
1446039381670540922,105,1446039381667414903,robocape,11.0583268432,-0.650000672611,-20.8823221461,0.0,10.0,0.0,0.0,0.0,10.0,0.0,0.0,0.0,10.0,-0.0364853069341,0.017177389031,0.00625842856169,1.0,0.0,0.0,0.0,1.0,0.0,0.0,0.0,1.0,0.2682421875,2.28724365234,9.9213684082,0.1,0.0,0.0,0.0,0.1,0.0,0.0,0.0,0.1
1446039381703695213,106,1446039381700655937,robocape,10.5461636157,-0.619842601962,-20.8305156987,0.0,10.0,0.0,0.0,0.0,10.0,0.0,0.0,0.0,10.0,-0.259125574065,0.0183758115215,0.00612527050718,1.0,0.0,0.0,0.0,1.0,0.0,0.0,0.0,1.0,0.140108642578,1.32684082031,9.98363891602,0.1,0.0,0.0,0.0,0.1,0.0,0.0,0.0,0.1
1446039381738479838,107,1446039381735260009,robocape,9.86448551094,-0.588867139171,-20.8311706081,0.0,10.0,0.0,0.0,0.0,10.0,0.0,0.0,0.0,10.0,-0.349007260855,0.0138484376684,-0.0202400242846,1.0,0.0,0.0,0.0,1.0,0.0,0.0,0.0,1.0,0.00119750976563,0.507744140625,10.0075891113,0.1,0.0,0.0,0.0,0.1,0.0,0.0,0.0,0.1
1446039381771442297,108,1446039381768280982,robocape,9.18943645656,-0.570532884511,-20.8482285825,0.0,10.0,0.0,0.0,0.0,10.0,0.0,0.0,0.0,10.0,-0.345944625601,0.00599211245268,-0.0279631914458,1.0,0.0,0.0,0.0,1.0,0.0,0.0,0.0,1.0,-0.00239501953125,-0.202379150391,10.0231567383,0.1,0.0,0.0,0.0,0.1,0.0,0.0,0.0,0.1
1446039381804377880,109,1446039381800894021,robocape,8.60487566214,-0.572350985487,-20.8069230363,0.0,10.0,0.0,0.0,0.0,10.0,0.0,0.0,0.0,10.0,-0.298806674307,0.000532632218016,0.00412789968962,1.0,0.0,0.0,0.0,1.0,0.0,0.0,0.0,1.0,0.108973388672,-0.470621337891,10.0530944824,0.1,0.0,0.0,0.0,0.1,0.0,0.0,0.0,0.1
1446039381838730922,110,1446039381835642099,robocape,8.2271368068,-0.565925979143,-20.8032655316,0.0,10.0,0.0,0.0,0.0,10.0,0.0,0.0,0.0,10.0,-0.190149701832,0.00159789665405,-0.018242653467,1.0,0.0,0.0,0.0,1.0,0.0,0.0,0.0,1.0,-0.124541015625,-1.08853637695,10.0614770508,0.1,0.0,0.0,0.0,0.1,0.0,0.0,0.0,0.1
1446039381872418380,111,1446039381868936061,robocape,8.03175804276,-0.557421919833,-20.772681623,0.0,10.0,0.0,0.0,0.0,10.0,0.0,0.0,0.0,10.0,-0.0944090606433,0.00466053190764,-0.00519316412565,1.0,0.0,0.0,0.0,1.0,0.0,0.0,0.0,1.0,-0.292192382813,-1.04303100586,10.0686621094,0.1,0.0,0.0,0.0,0.1,0.0,0.0,0.0,0.1
1446039381905723464,112,1446039381902558088,robocape,8.23322316216,-0.501427732368,-20.9047128881,0.0,10.0,0.0,0.0,0.0,10.0,0.0,0.0,0.0,10.0,0.114915401037,0.0167779148675,-0.0986701183874,1.0,0.0,0.0,0.0,1.0,0.0,0.0,0.0,1.0,-0.09580078125,-1.49329467773,10.0818347168,0.1,0.0,0.0,0.0,0.1,0.0,0.0,0.0,0.1
1446039381939413964,113,1446039381935925960,robocape,8.93829540242,-0.409714229049,-21.3085213542,0.0,10.0,0.0,0.0,0.0,10.0,0.0,0.0,0.0,10.0,0.382030458372,0.0126500151779,-0.251535564958,1.0,0.0,0.0,0.0,1.0,0.0,0.0,0.0,1.0,-0.174836425781,-0.173638916016,10.1105749512,0.1,0.0,0.0,0.0,0.1,0.0,0.0,0.0,0.1
1446039381974863922,114,1446039381970699071,robocape,9.54468252923,-0.335801385867,-21.7447289003,0.0,10.0,0.0,0.0,0.0,10.0,0.0,0.0,0.0,10.0,0.331963029878,-0.00199737081756,-0.268579795934,1.0,0.0,0.0,0.0,1.0,0.0,0.0,0.0,1.0,0.270637207031,0.843046875,9.82317260742,0.1,0.0,0.0,0.0,0.1,0.0,0.0,0.0,0.1
1446039382007321130,115,1446039382002167940,robocape,9.72821609473,-0.296510806117,-21.9945753006,0.0,10.0,0.0,0.0,0.0,10.0,0.0,0.0,0.0,10.0,0.108923288584,-0.00466053190764,-0.163518090931,1.0,0.0,0.0,0.0,1.0,0.0,0.0,0.0,1.0,0.0311352539063,1.96152099609,9.86748046875,0.1,0.0,0.0,0.0,0.1,0.0,0.0,0.0,0.1
1446039382038326339,116,1446039382034923076,robocape,9.36433273125,-0.271043801424,-22.1425514001,0.0,10.0,0.0,0.0,0.0,10.0,0.0,0.0,0.0,10.0,-0.180562321907,-0.00213052887206,-0.10346380835,1.0,0.0,0.0,0.0,1.0,0.0,0.0,0.0,1.0,0.0395178222656,1.64298339844,9.93334350586,0.1,0.0,0.0,0.0,0.1,0.0,0.0,0.0,0.1
1446039382074020089,117,1446039382070642948,robocape,8.64875009234,-0.285361652319,-22.0868337223,0.0,10.0,0.0,0.0,0.0,10.0,0.0,0.0,0.0,10.0,-0.367649388485,-0.00452737385313,0.0121173829599,1.0,0.0,0.0,0.0,1.0,0.0,0.0,0.0,1.0,0.104183349609,0.359252929688,10.1213525391,0.1,0.0,0.0,0.0,0.1,0.0,0.0,0.0,0.1
1446039382103649380,118,1446039382100442886,robocape,7.90066363306,-0.321062630597,-22.011471009,0.0,10.0,0.0,0.0,0.0,10.0,0.0,0.0,0.0,10.0,-0.385359409734,-0.0143810698864,0.0243679239742,1.0,0.0,0.0,0.0,1.0,0.0,0.0,0.0,1.0,0.00598754882813,-0.492176513672,10.0423168945,0.1,0.0,0.0,0.0,0.1,0.0,0.0,0.0,0.1
1446039382140246505,119,1446039382137157917,robocape,7.23082050172,-0.362119699666,-21.9010468675,0.0,10.0,0.0,0.0,0.0,10.0,0.0,0.0,0.0,10.0,-0.344746203111,-0.0151800182135,0.0427437354958,1.0,0.0,0.0,0.0,1.0,0.0,0.0,0.0,1.0,-0.135318603516,-0.493374023438,10.0938098145,0.1,0.0,0.0,0.0,0.1,0.0,0.0,0.0,0.1
1446039382171465547,120,1446039382167710065,robocape,6.63944700916,-0.390534721133,-21.8000650543,0.0,10.0,0.0,0.0,0.0,10.0,0.0,0.0,0.0,10.0,-0.303866680378,-0.00985369603329,0.0360858327706,1.0,0.0,0.0,0.0,1.0,0.0,0.0,0.0,1.0,-0.0359252929688,-0.583187255859,10.0698596191,0.1,0.0,0.0,0.0,0.1,0.0,0.0,0.0,0.1
1446039382203716755,121,1446039382200508117,robocape,6.21730226164,-0.396932748668,-21.7532672998,0.0,10.0,0.0,0.0,0.0,10.0,0.0,0.0,0.0,10.0,-0.215183416078,-0.00213052887206,0.00439421579863,1.0,0.0,0.0,0.0,1.0,0.0,0.0,0.0,1.0,-0.086220703125,-1.15080688477,10.0985998535,0.1,0.0,0.0,0.0,0.1,0.0,0.0,0.0,0.1
1446039382237217464,122,1446039382234133005,robocape,5.9648050301,-0.403925554243,-21.6821789636,0.0,10.0,0.0,0.0,0.0,10.0,0.0,0.0,0.0,10.0,-0.126366993724,-0.00119842249054,0.016644756813,1.0,0.0,0.0,0.0,1.0,0.0,0.0,0.0,1.0,0.143701171875,-1.29331054688,10.080637207,0.1,0.0,0.0,0.0,0.1,0.0,0.0,0.0,0.1
1446039382270435130,123,1446039382267406940,robocape,5.9238873517,-0.388810326283,-21.6294235725,0.0,10.0,0.0,0.0,0.0,10.0,0.0,0.0,0.0,10.0,-0.015313176268,0.00918790576077,0.00452737385313,1.0,0.0,0.0,0.0,1.0,0.0,0.0,0.0,1.0,0.207169189453,-1.2681628418,10.1105749512,0.1,0.0,0.0,0.0,0.1,0.0,0.0,0.0,0.1
1446039382303860214,124,1446039382300582885,robocape,6.01062317417,-0.365974073036,-21.5127881691,0.0,10.0,0.0,0.0,0.0,10.0,0.0,0.0,0.0,10.0,0.0516653251475,0.0167779148675,0.0380832035881,1.0,0.0,0.0,0.0,1.0,0.0,0.0,0.0,1.0,0.0323327636719,-0.948427734375,10.1309326172,0.1,0.0,0.0,0.0,0.1,0.0,0.0,0.0,0.1
1446039382337223172,125,1446039382334121942,robocape,6.17382397837,-0.345209873745,-21.2997517481,0.0,10.0,0.0,0.0,0.0,10.0,0.0,0.0,0.0,10.0,0.0917458995532,0.0213052887206,0.0900148448447,1.0,0.0,0.0,0.0,1.0,0.0,0.0,0.0,1.0,0.199984130859,-1.1148815918,10.0674645996,0.1,0.0,0.0,0.0,0.1,0.0,0.0,0.0,0.1
1446039382370481255,126,1446039382367355108,robocape,6.51538281375,-0.312036094229,-21.1199318458,0.0,10.0,0.0,0.0,0.0,10.0,0.0,0.0,0.0,10.0,0.185755486033,0.0262321367373,0.0705737688871,1.0,0.0,0.0,0.0,1.0,0.0,0.0,0.0,1.0,-0.0658630371094,-0.931662597656,10.1093774414,0.1,0.0,0.0,0.0,0.1,0.0,0.0,0.0,0.1
1446039382403644130,127,1446039382400455951,robocape,7.0009025985,-0.262217538019,-21.0447123774,0.0,10.0,0.0,0.0,0.0,10.0,0.0,0.0,0.0,10.0,0.262188209318,0.0288952978274,0.0122505410144,1.0,0.0,0.0,0.0,1.0,0.0,0.0,0.0,1.0,-0.13412109375,-0.825084228516,10.0878222656,0.1,0.0,0.0,0.0,0.1,0.0,0.0,0.0,0.1
1446039382436964214,128,1446039382433871984,robocape,7.65167552291,-0.203342145056,-21.016571786,0.0,10.0,0.0,0.0,0.0,10.0,0.0,0.0,0.0,10.0,0.350072525291,0.0306263525359,-0.0151800182135,1.0,0.0,0.0,0.0,1.0,0.0,0.0,0.0,1.0,0.0526904296875,-0.523311767578,10.0902172852,0.1,0.0,0.0,0.0,0.1,0.0,0.0,0.0,0.1
1446039382470496714,129,1446039382467334985,robocape,8.29166835134,-0.158615629365,-20.8965834542,0.0,10.0,0.0,0.0,0.0,10.0,0.0,0.0,0.0,10.0,0.344879361165,0.0300937203179,0.0344879361165,1.0,0.0,0.0,0.0,1.0,0.0,0.0,0.0,1.0,0.1149609375,0.228724365234,10.0626745605,0.1,0.0,0.0,0.0,0.1,0.0,0.0,0.0,0.1
1446039382503770255,130,1446039382500545978,robocape,8.836953623,-0.12520211916,-20.7465465182,0.0,10.0,0.0,0.0,0.0,10.0,0.0,0.0,0.0,10.0,0.295610880999,0.0271642431188,0.051532167093,1.0,0.0,0.0,0.0,1.0,0.0,0.0,0.0,1.0,-0.185614013672,0.301772460938,10.0207617188,0.1,0.0,0.0,0.0,0.1,0.0,0.0,0.0,0.1
1446039382537397589,131,1446039382533946990,robocape,9.13549355123,-0.113990824507,-20.4930222415,0.0,10.0,0.0,0.0,0.0,10.0,0.0,0.0,0.0,10.0,0.165382303694,0.0249005561922,0.110254869129,1.0,0.0,0.0,0.0,1.0,0.0,0.0,0.0,1.0,0.243094482422,0.943637695313,9.97525634766,0.1,0.0,0.0,0.0,0.1,0.0,0.0,0.0,0.1
1446039382570571172,132,1446039382567173004,robocape,9.06748234891,-0.161830315469,-19.8684786451,0.0,10.0,0.0,0.0,0.0,10.0,0.0,0.0,0.0,10.0,-0.0300937203179,0.0260989786828,0.316383537501,1.0,0.0,0.0,0.0,1.0,0.0,0.0,0.0,1.0,0.229921875,0.314945068359,10.0231567383,0.1,0.0,0.0,0.0,0.1,0.0,0.0,0.0,0.1
1446039382603982381,133,1446039382600609064,robocape,9.07750352612,-0.212695652159,-19.346500687,0.0,10.0,0.0,0.0,0.0,10.0,0.0,0.0,0.0,10.0,0.0118510668509,0.0157126504315,0.261788735155,1.0,0.0,0.0,0.0,1.0,0.0,0.0,0.0,1.0,-0.0814306640625,-0.689765625,10.0926123047,0.1,0.0,0.0,0.0,0.1,0.0,0.0,0.0,0.1
1446039382637383006,134,1446039382634098052,robocape,9.49044006488,-0.201483633527,-19.203989549,0.0,10.0,0.0,0.0,0.0,10.0,0.0,0.0,0.0,10.0,0.226635008766,0.0159789665405,0.0519316412565,1.0,0.0,0.0,0.0,1.0,0.0,0.0,0.0,1.0,-0.395178222656,-0.781973876953,10.1117724609,0.1,0.0,0.0,0.0,0.1,0.0,0.0,0.0,0.1
1446039382670820797,135,1446039382667615890,robocape,10.1183780269,-0.168119661342,-19.2938744319,0.0,10.0,0.0,0.0,0.0,10.0,0.0,0.0,0.0,10.0,0.342216200075,0.0067910607797,-0.0755006169037,1.0,0.0,0.0,0.0,1.0,0.0,0.0,0.0,1.0,0.0598754882813,0.231119384766,9.95489868164,0.1,0.0,0.0,0.0,0.1,0.0,0.0,0.0,0.1
1446039382703612839,136,1446039382700465917,robocape,10.5871614377,-0.123497464959,-19.3959661244,0.0,10.0,0.0,0.0,0.0,10.0,0.0,0.0,0.0,10.0,0.259258732119,0.0109189604693,-0.0825579937925,1.0,0.0,0.0,0.0,1.0,0.0,0.0,0.0,1.0,0.1149609375,1.79147460938,9.886640625,0.1,0.0,0.0,0.0,0.1,0.0,0.0,0.0,0.1
1446039382737392381,137,1446039382734076023,robocape,10.5357187913,-0.107131995004,-19.3664310657,0.0,10.0,0.0,0.0,0.0,10.0,0.0,0.0,0.0,10.0,-0.0162452826495,0.00932106381528,-0.00612527050718,1.0,0.0,0.0,0.0,1.0,0.0,0.0,0.0,1.0,0.0886157226563,1.62741577148,9.97405883789,0.1,0.0,0.0,0.0,0.1,0.0,0.0,0.0,0.1
1446039382770432464,138,1446039382767266988,robocape,10.1484502972,-0.0974644856286,-19.2685236221,0.0,10.0,0.0,0.0,0.0,10.0,0.0,0.0,0.0,10.0,-0.194410759576,0.0126500151779,0.0336889877895,1.0,0.0,0.0,0.0,1.0,0.0,0.0,0.0,1.0,0.166453857422,1.30887817383,9.95489868164,0.1,0.0,0.0,0.0,0.1,0.0,0.0,0.0,0.1
1446039382803787089,139,1446039382800672054,robocape,9.36288320254,-0.140231441991,-18.9042504561,0.0,10.0,0.0,0.0,0.0,10.0,0.0,0.0,0.0,10.0,-0.40679785651,0.00945422186978,0.183358641052,1.0,0.0,0.0,0.0,1.0,0.0,0.0,0.0,1.0,0.0586779785156,-0.199984130859,10.0147741699,0.1,0.0,0.0,0.0,0.1,0.0,0.0,0.0,0.1
1446039382837230131,140,1446039382833931922,robocape,8.8048976839,-0.177821360211,-18.6071741468,0.0,10.0,0.0,0.0,0.0,10.0,0.0,0.0,0.0,10.0,-0.286556133293,0.00412789968962,0.145674911627,1.0,0.0,0.0,0.0,1.0,0.0,0.0,0.0,1.0,0.177231445313,-0.914897460938,10.1093774414,0.1,0.0,0.0,0.0,0.1,0.0,0.0,0.0,0.1
1446039382871976631,141,1446039382868673086,robocape,8.64740263901,-0.183297664493,-18.5083606341,0.0,10.0,0.0,0.0,0.0,10.0,0.0,0.0,0.0,10.0,-0.0747016685767,0.00359526747161,0.035153726389,1.0,0.0,0.0,0.0,1.0,0.0,0.0,0.0,1.0,-0.250279541016,-1.16397949219,10.0459094238,0.1,0.0,0.0,0.0,0.1,0.0,0.0,0.0,0.1
1446039382904938297,142,1446039382901798963,robocape,8.78426969707,-0.168435069957,-18.4394803873,0.0,10.0,0.0,0.0,0.0,10.0,0.0,0.0,0.0,10.0,0.0805606229749,0.0115847507418,0.015845808486,1.0,0.0,0.0,0.0,1.0,0.0,0.0,0.0,1.0,-0.0215551757813,-0.941242675781,10.0734521484,0.1,0.0,0.0,0.0,0.1,0.0,0.0,0.0,0.1
1446039382938562922,143,1446039382935245037,robocape,9.12643433002,-0.146238342382,-18.4007380711,0.0,10.0,0.0,0.0,0.0,10.0,0.0,0.0,0.0,10.0,0.18921759545,0.0129163312869,-0.00213052887206,1.0,0.0,0.0,0.0,1.0,0.0,0.0,0.0,1.0,-0.119750976563,-0.504151611328,10.0530944824,0.1,0.0,0.0,0.0,0.1,0.0,0.0,0.0,0.1
1446039382972049714,144,1446039382968681097,robocape,9.5566400858,-0.133847369918,-18.3713454617,0.0,10.0,0.0,0.0,0.0,10.0,0.0,0.0,0.0,10.0,0.23622238869,0.00705737688871,-0.00705737688871,1.0,0.0,0.0,0.0,1.0,0.0,0.0,0.0,1.0,-0.0311352539063,-0.132923583984,10.0686621094,0.1,0.0,0.0,0.0,0.1,0.0,0.0,0.0,0.1
1446039383005631256,145,1446039383002074003,robocape,9.94536658509,-0.126814066799,-18.2776997281,0.0,10.0,0.0,0.0,0.0,10.0,0.0,0.0,0.0,10.0,0.214517625806,0.0101200121423,0.0275637172823,1.0,0.0,0.0,0.0,1.0,0.0,0.0,0.0,1.0,0.202379150391,0.341290283203,9.96088623047,0.1,0.0,0.0,0.0,0.1,0.0,0.0,0.0,0.1
1446039383039329464,146,1446039383035816907,robocape,10.377843049,-0.0951394484903,-18.3307795561,0.0,10.0,0.0,0.0,0.0,10.0,0.0,0.0,0.0,10.0,0.239151865889,0.00932106381528,-0.0529969056926,1.0,0.0,0.0,0.0,1.0,0.0,0.0,0.0,1.0,-0.13412109375,0.362845458984,10.0830322266,0.1,0.0,0.0,0.0,0.1,0.0,0.0,0.0,0.1
1446039383072346172,147,1446039383068834066,robocape,10.5947615785,-0.055086041736,-18.4261495218,0.0,10.0,0.0,0.0,0.0,10.0,0.0,0.0,0.0,10.0,0.126100677615,0.00945422186978,-0.0749679846857,1.0,0.0,0.0,0.0,1.0,0.0,0.0,0.0,1.0,0.0610729980469,1.456171875,9.9213684082,0.1,0.0,0.0,0.0,0.1,0.0,0.0,0.0,0.1
1446039383104377714,148,1446039383101192951,robocape,10.4736578944,-0.0170626918498,-18.4962512134,0.0,10.0,0.0,0.0,0.0,10.0,0.0,0.0,0.0,10.0,-0.0525974315291,0.0110521185238,-0.0589890181453,1.0,0.0,0.0,0.0,1.0,0.0,0.0,0.0,1.0,0.09580078125,1.37354370117,9.95370117188,0.1,0.0,0.0,0.0,0.1,0.0,0.0,0.0,0.1
1446039383141935922,149,1446039383137564897,robocape,10.0601248942,0.0218140871767,-18.5855421881,0.0,10.0,0.0,0.0,0.0,10.0,0.0,0.0,0.0,10.0,-0.207193932808,0.0101200121423,-0.0669785014155,1.0,0.0,0.0,0.0,1.0,0.0,0.0,0.0,1.0,0.0934057617188,0.843046875,9.94651611328,0.1,0.0,0.0,0.0,0.1,0.0,0.0,0.0,0.1
1446039383171712131,150,1446039383168411970,robocape,9.55159642811,0.0438935052581,-18.6114743255,0.0,10.0,0.0,0.0,0.0,10.0,0.0,0.0,0.0,10.0,-0.258193467683,0.00772316716123,-0.0311589847539,1.0,0.0,0.0,0.0,1.0,0.0,0.0,0.0,1.0,0.0467028808594,0.0467028808594,10.0231567383,0.1,0.0,0.0,0.0,0.1,0.0,0.0,0.0,0.1
1446039383204574297,151,1446039383201414108,robocape,9.06615996479,0.0523409761623,-18.5716281362,0.0,10.0,0.0,0.0,0.0,10.0,0.0,0.0,0.0,10.0,-0.24687503305,0.00652474467069,0.00479368996214,1.0,0.0,0.0,0.0,1.0,0.0,0.0,0.0,1.0,0.0538879394531,-0.283809814453,10.0506994629,0.1,0.0,0.0,0.0,0.1,0.0,0.0,0.0,0.1
1446039383240370964,152,1446039383237116098,robocape,8.71256525251,0.0492277187472,-18.5219642988,0.0,10.0,0.0,0.0,0.0,10.0,0.0,0.0,0.0,10.0,-0.177766002763,0.00119842249054,0.0101200121423,1.0,0.0,0.0,0.0,1.0,0.0,0.0,0.0,1.0,-0.09580078125,-0.726888427734,10.1764379883,0.1,0.0,0.0,0.0,0.1,0.0,0.0,0.0,0.1
1446039383270276006,153,1446039383267225027,robocape,8.62534875071,0.0677972950286,-18.5306654725,0.0,10.0,0.0,0.0,0.0,10.0,0.0,0.0,0.0,10.0,-0.0371510972066,0.00759000910673,-0.0243679239742,1.0,0.0,0.0,0.0,1.0,0.0,0.0,0.0,1.0,-0.231119384766,-0.882564697266,10.0578845215,0.1,0.0,0.0,0.0,0.1,0.0,0.0,0.0,0.1
1446039383303832506,154,1446039383300745964,robocape,8.69246693161,0.084741697178,-18.4867334238,0.0,10.0,0.0,0.0,0.0,10.0,0.0,0.0,0.0,10.0,0.0438089999318,0.0109189604693,0.00279631914458,1.0,0.0,0.0,0.0,1.0,0.0,0.0,0.0,1.0,0.117355957031,-0.835861816406,10.055489502,0.1,0.0,0.0,0.0,0.1,0.0,0.0,0.0,0.1
1446039383337224589,155,1446039383334085941,robocape,8.90813985813,0.104956415831,-18.4390148362,0.0,10.0,0.0,0.0,0.0,10.0,0.0,0.0,0.0,10.0,0.122239094035,0.0129163312869,0.00359526747161,1.0,0.0,0.0,0.0,1.0,0.0,0.0,0.0,1.0,0.0562829589844,-0.366437988281,10.0363293457,0.1,0.0,0.0,0.0,0.1,0.0,0.0,0.0,0.1
1446039383370568548,156,1446039383367468118,robocape,9.16343252784,0.128038610129,-18.4082343735,0.0,10.0,0.0,0.0,0.0,10.0,0.0,0.0,0.0,10.0,0.143544382755,0.0130494893414,-0.00599211245268,1.0,0.0,0.0,0.0,1.0,0.0,0.0,0.0,1.0,-0.213156738281,0.0371228027344,10.0638720703,0.1,0.0,0.0,0.0,0.1,0.0,0.0,0.0,0.1
1446039383403687548,157,1446039383400579929,robocape,9.39591597838,0.14043966595,-18.3787316188,0.0,10.0,0.0,0.0,0.0,10.0,0.0,0.0,0.0,10.0,0.131826473959,0.00745685105222,-0.00572579634367,1.0,0.0,0.0,0.0,1.0,0.0,0.0,0.0,1.0,0.161663818359,0.0467028808594,10.075847168,0.1,0.0,0.0,0.0,0.1,0.0,0.0,0.0,0.1
1446039383438450339,158,1446039383435349941,robocape,9.4539148233,0.14906866184,-18.2221424781,0.0,10.0,0.0,0.0,0.0,10.0,0.0,0.0,0.0,10.0,0.0388821519152,0.016644756813,0.0632500758894,1.0,0.0,0.0,0.0,1.0,0.0,0.0,0.0,1.0,0.190404052734,1.21906494141,10.0219592285,0.1,0.0,0.0,0.0,0.1,0.0,0.0,0.0,0.1
1446039383470204089,159,1446039383467097043,robocape,9.19290348889,0.100022843744,-17.7590229552,0.0,10.0,0.0,0.0,0.0,10.0,0.0,0.0,0.0,10.0,-0.131959632013,0.0131826473959,0.233292911491,1.0,0.0,0.0,0.0,1.0,0.0,0.0,0.0,1.0,0.0922082519531,-0.245489501953,10.1381176758,0.1,0.0,0.0,0.0,0.1,0.0,0.0,0.0,0.1
1446039383503520048,160,1446039383500441074,robocape,9.29616554076,0.0885788857309,-17.5420402189,0.0,10.0,0.0,0.0,0.0,10.0,0.0,0.0,0.0,10.0,0.0620516533988,0.0111852765783,0.0976048539514,1.0,0.0,0.0,0.0,1.0,0.0,0.0,0.0,1.0,-0.0754431152344,-1.0346484375,10.1273400879,0.1,0.0,0.0,0.0,0.1,0.0,0.0,0.0,0.1
1446039383539845381,161,1446039383536492109,robocape,9.95775732623,0.168685503998,-17.9348670466,0.0,10.0,0.0,0.0,0.0,10.0,0.0,0.0,0.0,10.0,0.362056750196,0.00492684801665,-0.237287653126,1.0,0.0,0.0,0.0,1.0,0.0,0.0,0.0,1.0,-0.410745849609,-0.215551757813,10.1141674805,0.1,0.0,0.0,0.0,0.1,0.0,0.0,0.0,0.1
1446039383570298756,162,1446039383567161083,robocape,10.5946511737,0.26566119517,-18.4296721318,0.0,10.0,0.0,0.0,0.0,10.0,0.0,0.0,0.0,10.0,0.351803579999,0.00146473859954,-0.294279300454,1.0,0.0,0.0,0.0,1.0,0.0,0.0,0.0,1.0,0.384400634766,1.36276611328,9.90101074219,0.1,0.0,0.0,0.0,0.1,0.0,0.0,0.0,0.1
1446039383603602631,163,1446039383600591897,robocape,10.7891026943,0.333787178961,-18.7632040559,0.0,10.0,0.0,0.0,0.0,10.0,0.0,0.0,0.0,10.0,0.117578562127,0.00066579027252,-0.204131297555,1.0,0.0,0.0,0.0,1.0,0.0,0.0,0.0,1.0,0.0155676269531,2.42615478516,9.83874023438,0.1,0.0,0.0,0.0,0.1,0.0,0.0,0.0,0.1
1446039383637878631,164,1446039383634406089,robocape,10.2331466875,0.378390264622,-19.0011695556,0.0,10.0,0.0,0.0,0.0,10.0,0.0,0.0,0.0,10.0,-0.280164546676,-0.00119842249054,-0.145674911627,1.0,0.0,0.0,0.0,1.0,0.0,0.0,0.0,1.0,0.209564208984,1.66214355469,9.88783813477,0.1,0.0,0.0,0.0,0.1,0.0,0.0,0.0,0.1
1446039383670601298,165,1446039383667340993,robocape,9.32717699785,0.389384722332,-19.1533212933,0.0,10.0,0.0,0.0,0.0,10.0,0.0,0.0,0.0,10.0,-0.466452664927,-0.00892158965177,-0.0946753767523,1.0,0.0,0.0,0.0,1.0,0.0,0.0,0.0,1.0,-0.0047900390625,0.936452636719,9.95010864258,0.1,0.0,0.0,0.0,0.1,0.0,0.0,0.0,0.1
1446039383703701214,166,1446039383700438976,robocape,8.05235162647,0.308541634026,-18.9648131473,0.0,10.0,0.0,0.0,0.0,10.0,0.0,0.0,0.0,10.0,-0.664858166138,-0.0274305592278,0.0962732734064,1.0,0.0,0.0,0.0,1.0,0.0,0.0,0.0,1.0,-0.00239501953125,0.0934057617188,10.0626745605,0.1,0.0,0.0,0.0,0.1,0.0,0.0,0.0,0.1
1446039383737664089,167,1446039383733959913,robocape,6.74163890033,0.227462640715,-18.6937460793,0.0,10.0,0.0,0.0,0.0,10.0,0.0,0.0,0.0,10.0,-0.68443240015,-0.0242347659197,0.139150166957,1.0,0.0,0.0,0.0,1.0,0.0,0.0,0.0,1.0,-0.231119384766,-1.08614135742,9.98004638672,0.1,0.0,0.0,0.0,0.1,0.0,0.0,0.0,0.1
1446039383770726881,168,1446039383767455101,robocape,5.89609301963,0.182488634847,-18.6730775297,0.0,10.0,0.0,0.0,0.0,10.0,0.0,0.0,0.0,10.0,-0.438356315427,-0.0229031853747,-0.00066579027252,1.0,0.0,0.0,0.0,1.0,0.0,0.0,0.0,1.0,-0.295784912109,-1.73159912109,10.024354248,0.1,0.0,0.0,0.0,0.1,0.0,0.0,0.0,0.1
1446039383803811214,169,1446039383800549983,robocape,5.32977979694,0.166750701138,-18.6661463816,0.0,10.0,0.0,0.0,0.0,10.0,0.0,0.0,0.0,10.0,-0.292015613527,-0.00852211548825,-0.0114515926873,1.0,0.0,0.0,0.0,1.0,0.0,0.0,0.0,1.0,0.443078613281,-1.92320068359,10.0734521484,0.1,0.0,0.0,0.0,0.1,0.0,0.0,0.0,0.1
1446039383837551839,170,1446039383834074974,robocape,5.29639123644,0.190766764982,-18.7231719189,0.0,10.0,0.0,0.0,0.0,10.0,0.0,0.0,0.0,10.0,-0.0119842249054,0.00905474770627,-0.0500674284935,1.0,0.0,0.0,0.0,1.0,0.0,0.0,0.0,1.0,0.199984130859,-1.98068115234,10.0710571289,0.1,0.0,0.0,0.0,0.1,0.0,0.0,0.0,0.1
1446039383870488714,171,1446039383867297887,robocape,5.5041293342,0.229104421652,-18.7341683397,0.0,10.0,0.0,0.0,0.0,10.0,0.0,0.0,0.0,10.0,0.114515926873,0.0187752856851,-0.0271642431188,1.0,0.0,0.0,0.0,1.0,0.0,0.0,0.0,1.0,0.243094482422,-1.48251708984,10.0926123047,0.1,0.0,0.0,0.0,0.1,0.0,0.0,0.0,0.1
1446039383903808756,172,1446039383900716066,robocape,5.86502373356,0.277224404536,-18.7093938108,0.0,10.0,0.0,0.0,0.0,10.0,0.0,0.0,0.0,10.0,0.195076549848,0.0256995045193,-0.00932106381528,1.0,0.0,0.0,0.0,1.0,0.0,0.0,0.0,1.0,0.0718505859375,-0.990340576172,10.0542919922,0.1,0.0,0.0,0.0,0.1,0.0,0.0,0.0,0.1
1446039383937319381,173,1446039383934016942,robocape,6.31996012753,0.33211812079,-18.705639535,0.0,10.0,0.0,0.0,0.0,10.0,0.0,0.0,0.0,10.0,0.245143978342,0.0280963495003,-0.0217047628841,1.0,0.0,0.0,0.0,1.0,0.0,0.0,0.0,1.0,0.0993933105469,-0.723295898438,10.0447119141,0.1,0.0,0.0,0.0,0.1,0.0,0.0,0.0,0.1
1446039383970336756,174,1446039383967206954,robocape,6.74977280577,0.372279358501,-18.6688570433,0.0,10.0,0.0,0.0,0.0,10.0,0.0,0.0,0.0,10.0,0.232227647055,0.0223705531567,-0.0034621094171,1.0,0.0,0.0,0.0,1.0,0.0,0.0,0.0,1.0,-0.138911132813,-0.414338378906,10.0135766602,0.1,0.0,0.0,0.0,0.1,0.0,0.0,0.0,0.1
1446039384006760840,175,1446039384003691911,robocape,7.16352281886,0.415526677941,-18.6543713542,0.0,10.0,0.0,0.0,0.0,10.0,0.0,0.0,0.0,10.0,0.224504479894,0.0226368692657,-0.015845808486,1.0,0.0,0.0,0.0,1.0,0.0,0.0,0.0,1.0,-0.0993933105469,-0.167651367188,10.0387243652,0.1,0.0,0.0,0.0,0.1,0.0,0.0,0.0,0.1
1446039384038593548,176,1446039384035268068,robocape,7.56673551458,0.457614092742,-18.6486825791,0.0,10.0,0.0,0.0,0.0,10.0,0.0,0.0,0.0,10.0,0.219577631877,0.0214384467751,-0.0207726565026,1.0,0.0,0.0,0.0,1.0,0.0,0.0,0.0,1.0,0.0347277832031,-0.198786621094,10.0890197754,0.1,0.0,0.0,0.0,0.1,0.0,0.0,0.0,0.1
1446039384071469215,177,1446039384068316936,robocape,7.97192476031,0.503037225124,-18.6313725432,0.0,10.0,0.0,0.0,0.0,10.0,0.0,0.0,0.0,10.0,0.221042370477,0.0239684498107,-0.0151800182135,1.0,0.0,0.0,0.0,1.0,0.0,0.0,0.0,1.0,0.0910107421875,-0.0778381347656,10.0926123047,0.1,0.0,0.0,0.0,0.1,0.0,0.0,0.0,0.1
1446039384104232756,178,1446039384100929021,robocape,8.2674651529,0.529315734887,-18.5811861193,0.0,10.0,0.0,0.0,0.0,10.0,0.0,0.0,0.0,10.0,0.163384932876,0.0165115987585,0.00412789968962,1.0,0.0,0.0,0.0,1.0,0.0,0.0,0.0,1.0,0.0167651367188,0.15328125,10.0339343262,0.1,0.0,0.0,0.0,0.1,0.0,0.0,0.0,0.1
1446039384140189756,179,1446039384136615037,robocape,8.45683259018,0.556235849445,-18.5418979127,0.0,10.0,0.0,0.0,0.0,10.0,0.0,0.0,0.0,10.0,0.107858024148,0.016112124595,-0.00119842249054,1.0,0.0,0.0,0.0,1.0,0.0,0.0,0.0,1.0,-0.152083740234,0.393980712891,10.0459094238,0.1,0.0,0.0,0.0,0.1,0.0,0.0,0.0,0.1
1446039384172754548,180,1446039384169255971,robocape,8.53543314511,0.574593734755,-18.4943620878,0.0,10.0,0.0,0.0,0.0,10.0,0.0,0.0,0.0,10.0,0.0495347962755,0.0123836990689,0.00452737385313,1.0,0.0,0.0,0.0,1.0,0.0,0.0,0.0,1.0,0.197589111328,0.350870361328,10.0686621094,0.1,0.0,0.0,0.0,0.1,0.0,0.0,0.0,0.1
1446039384209475715,181,1446039384205471038,robocape,8.46677165895,0.582773955654,-18.4344506497,0.0,10.0,0.0,0.0,0.0,10.0,0.0,0.0,0.0,10.0,-0.0282295075548,0.00812264132474,0.0129163312869,1.0,0.0,0.0,0.0,1.0,0.0,0.0,0.0,1.0,0.0359252929688,0.340092773437,10.0686621094,0.1,0.0,0.0,0.0,0.1,0.0,0.0,0.0,0.1
1446039384238264798,182,1446039384234756946,robocape,8.28537846411,0.585354178014,-18.3764191307,0.0,10.0,0.0,0.0,0.0,10.0,0.0,0.0,0.0,10.0,-0.0877511579181,0.00506000607115,0.0131826473959,1.0,0.0,0.0,0.0,1.0,0.0,0.0,0.0,1.0,-0.0179626464844,0.300574951172,10.0387243652,0.1,0.0,0.0,0.0,0.1,0.0,0.0,0.0,0.1
1446039384272271881,183,1446039384268948078,robocape,8.06666041312,0.586932661877,-18.3319238011,0.0,10.0,0.0,0.0,0.0,10.0,0.0,0.0,0.0,10.0,-0.107458549985,0.0034621094171,0.00639158661619,1.0,0.0,0.0,0.0,1.0,0.0,0.0,0.0,1.0,-0.086220703125,-0.296982421875,10.0387243652,0.1,0.0,0.0,0.0,0.1,0.0,0.0,0.0,0.1
1446039384308395548,184,1446039384304192066,robocape,7.88425987228,0.592776717972,-18.273347164,0.0,10.0,0.0,0.0,0.0,10.0,0.0,0.0,0.0,10.0,-0.0886832642996,0.0066579027252,0.0134489635049,1.0,0.0,0.0,0.0,1.0,0.0,0.0,0.0,1.0,-0.171243896484,-0.475411376953,10.0722546387,0.1,0.0,0.0,0.0,0.1,0.0,0.0,0.0,0.1
1446039384337913506,185,1446039384334706068,robocape,7.75088447252,0.600466711154,-18.2069459334,0.0,10.0,0.0,0.0,0.0,10.0,0.0,0.0,0.0,10.0,-0.0631169178349,0.00812264132474,0.0173105470855,1.0,0.0,0.0,0.0,1.0,0.0,0.0,0.0,1.0,-0.0251477050781,-0.359252929688,10.1261425781,0.1,0.0,0.0,0.0,0.1,0.0,0.0,0.0,0.1
1446039384376548006,186,1446039384372594118,robocape,7.65933475843,0.610149112924,-18.1470422534,0.0,10.0,0.0,0.0,0.0,10.0,0.0,0.0,0.0,10.0,-0.0411458388417,0.00865527354276,0.0135821215594,1.0,0.0,0.0,0.0,1.0,0.0,0.0,0.0,1.0,0.0622705078125,-0.308957519531,10.1237475586,0.1,0.0,0.0,0.0,0.1,0.0,0.0,0.0,0.1
1446039384407346631,187,1446039384402834892,robocape,7.5880797344,0.620878077638,-18.0927255872,0.0,10.0,0.0,0.0,0.0,10.0,0.0,0.0,0.0,10.0,-0.0304931944814,0.00878843159726,0.0105194863058,1.0,0.0,0.0,0.0,1.0,0.0,0.0,0.0,1.0,0.135318603516,-0.304167480469,10.0722546387,0.1,0.0,0.0,0.0,0.1,0.0,0.0,0.0,0.1
1446039384440081298,188,1446039384436326026,robocape,7.4640357967,0.623236513381,-17.9733251284,0.0,10.0,0.0,0.0,0.0,10.0,0.0,0.0,0.0,10.0,-0.0591221761998,0.00892158965177,0.0462058449129,1.0,0.0,0.0,0.0,1.0,0.0,0.0,0.0,1.0,0.119750976563,-0.0730480957031,10.0746496582,0.1,0.0,0.0,0.0,0.1,0.0,0.0,0.0,0.1
1446039384475055006,189,1446039384470248937,robocape,7.30306503651,0.619388162331,-17.8064943126,0.0,10.0,0.0,0.0,0.0,10.0,0.0,0.0,0.0,10.0,-0.0792290424299,0.00878843159726,0.0723048235957,1.0,0.0,0.0,0.0,1.0,0.0,0.0,0.0,1.0,-0.0323327636719,-0.358055419922,10.0518969727,0.1,0.0,0.0,0.0,0.1,0.0,0.0,0.0,0.1
1446039384508230840,190,1446039384505060911,robocape,7.18942439992,0.618468051652,-17.6517406265,0.0,10.0,0.0,0.0,0.0,10.0,0.0,0.0,0.0,10.0,-0.0543284862376,0.00932106381528,0.0656469208705,1.0,0.0,0.0,0.0,1.0,0.0,0.0,0.0,1.0,-0.106578369141,-0.578397216797,10.0411193848,0.1,0.0,0.0,0.0,0.1,0.0,0.0,0.0,0.1
1446039384542835673,191,1446039384539150953,robocape,7.18780697153,0.632526901398,-17.5938446701,0.0,10.0,0.0,0.0,0.0,10.0,0.0,0.0,0.0,10.0,0.00559263828917,0.0106526443603,0.0126500151779,1.0,0.0,0.0,0.0,1.0,0.0,0.0,0.0,1.0,0.0227526855469,-0.544866943359,10.075847168,0.1,0.0,0.0,0.0,0.1,0.0,0.0,0.0,0.1
1446039384574170215,192,1446039384569762945,robocape,7.23611834535,0.652883171251,-17.5435521362,0.0,10.0,0.0,0.0,0.0,10.0,0.0,0.0,0.0,10.0,0.031957933081,0.0134489635049,0.00798948327024,1.0,0.0,0.0,0.0,1.0,0.0,0.0,0.0,1.0,0.0694555664063,-0.391585693359,10.1129699707,0.1,0.0,0.0,0.0,0.1,0.0,0.0,0.0,0.1
1446039384606952840,193,1446039384603660106,robocape,7.28219334119,0.678913612869,-17.4881466131,0.0,10.0,0.0,0.0,0.0,10.0,0.0,0.0,0.0,10.0,0.0307595105904,0.0167779148675,0.0103863282513,1.0,0.0,0.0,0.0,1.0,0.0,0.0,0.0,1.0,0.0538879394531,-0.189206542969,10.1117724609,0.1,0.0,0.0,0.0,0.1,0.0,0.0,0.0,0.1
1446039384641798381,194,1446039384638127088,robocape,6.93851620962,0.638828538784,-16.9888245425,0.0,10.0,0.0,0.0,0.0,10.0,0.0,0.0,0.0,10.0,-0.179363899417,0.0113184346328,0.253266619667,1.0,0.0,0.0,0.0,1.0,0.0,0.0,0.0,1.0,0.140108642578,0.174836425781,10.0530944824,0.1,0.0,0.0,0.0,0.1,0.0,0.0,0.0,0.1
1446039384674776673,195,1446039384670974969,robocape,6.69574271044,0.598294131304,-16.4815149046,0.0,10.0,0.0,0.0,0.0,10.0,0.0,0.0,0.0,10.0,-0.126366993724,0.0102531701968,0.257394519356,1.0,0.0,0.0,0.0,1.0,0.0,0.0,0.0,1.0,0.0179626464844,-1.23822509766,10.0147741699,0.1,0.0,0.0,0.0,0.1,0.0,0.0,0.0,0.1
1446039384708473798,196,1446039384704936027,robocape,6.78936416018,0.59758605309,-16.1918440058,0.0,10.0,0.0,0.0,0.0,10.0,0.0,0.0,0.0,10.0,0.0527305895836,0.017177389031,0.138084902521,1.0,0.0,0.0,0.0,1.0,0.0,0.0,0.0,1.0,0.143701171875,-1.21068237305,10.0542919922,0.1,0.0,0.0,0.0,0.1,0.0,0.0,0.0,0.1
1446039384740556840,197,1446039384736867904,robocape,7.1624323607,0.618018436443,-16.0711201372,0.0,10.0,0.0,0.0,0.0,10.0,0.0,0.0,0.0,10.0,0.201601294519,0.017976337358,0.0459395288039,1.0,0.0,0.0,0.0,1.0,0.0,0.0,0.0,1.0,0.0598754882813,-1.02506835938,10.0794396973,0.1,0.0,0.0,0.0,0.1,0.0,0.0,0.0,0.1
1446039384774290215,198,1446039384770697116,robocape,7.7667350359,0.655210150528,-16.0497567207,0.0,10.0,0.0,0.0,0.0,10.0,0.0,0.0,0.0,10.0,0.32490565299,0.0203731823391,-0.00918790576077,1.0,0.0,0.0,0.0,1.0,0.0,0.0,0.0,1.0,-0.116158447266,-0.8813671875,10.0698596191,0.1,0.0,0.0,0.0,0.1,0.0,0.0,0.0,0.1
1446039384806857798,199,1446039384803632974,robocape,8.54959206096,0.693950001673,-16.0216030221,0.0,10.0,0.0,0.0,0.0,10.0,0.0,0.0,0.0,10.0,0.419847345851,0.0217047628841,-0.00719053494321,1.0,0.0,0.0,0.0,1.0,0.0,0.0,0.0,1.0,-0.162861328125,-0.302969970703,10.0890197754,0.1,0.0,0.0,0.0,0.1,0.0,0.0,0.0,0.1
1446039384839927382,200,1446039384836579084,robocape,9.27751017271,0.715764598208,-16.0009335063,0.0,10.0,0.0,0.0,0.0,10.0,0.0,0.0,0.0,10.0,0.392150470514,0.0123836990689,-0.0102531701968,1.0,0.0,0.0,0.0,1.0,0.0,0.0,0.0,1.0,-0.195194091797,0.146096191406,10.1033898926,0.1,0.0,0.0,0.0,0.1,0.0,0.0,0.0,0.1
1446039384873264965,201,1446039384870217084,robocape,9.829223872,0.732536772898,-15.9461456985,0.0,10.0,0.0,0.0,0.0,10.0,0.0,0.0,0.0,10.0,0.299738780688,0.0127831732324,0.00865527354276,1.0,0.0,0.0,0.0,1.0,0.0,0.0,0.0,1.0,0.231119384766,1.02746337891,9.92376342773,0.1,0.0,0.0,0.0,0.1,0.0,0.0,0.0,0.1
1446039384907040007,202,1446039384903991937,robocape,10.056208989,0.736412000347,-15.83627072,0.0,10.0,0.0,0.0,0.0,10.0,0.0,0.0,0.0,10.0,0.128098048433,0.0113184346328,0.0406132066237,1.0,0.0,0.0,0.0,1.0,0.0,0.0,0.0,1.0,0.01916015625,1.26337280273,9.93334350586,0.1,0.0,0.0,0.0,0.1,0.0,0.0,0.0,0.1
1446039384940339673,203,1446039384937139987,robocape,10.0861686074,0.763683976609,-15.8592512379,0.0,10.0,0.0,0.0,0.0,10.0,0.0,0.0,0.0,10.0,0.0259658206283,0.0113184346328,-0.0302268783724,1.0,0.0,0.0,0.0,1.0,0.0,0.0,0.0,1.0,0.112565917969,0.673000488281,9.99920654297,0.1,0.0,0.0,0.0,0.1,0.0,0.0,0.0,0.1
1446039384972709798,204,1446039384969618082,robocape,9.97736408403,0.808385584679,-16.0231188599,0.0,10.0,0.0,0.0,0.0,10.0,0.0,0.0,0.0,10.0,-0.0454068965859,0.00745685105222,-0.105194863058,1.0,0.0,0.0,0.0,1.0,0.0,0.0,0.0,1.0,0.00119750976563,1.10290649414,9.97765136719,0.1,0.0,0.0,0.0,0.1,0.0,0.0,0.0,0.1
1446039385006357507,205,1446039385002813100,robocape,9.70145574768,0.867011688742,-16.2741347604,0.0,10.0,0.0,0.0,0.0,10.0,0.0,0.0,0.0,10.0,-0.132492264231,0.00719053494321,-0.151533866026,1.0,0.0,0.0,0.0,1.0,0.0,0.0,0.0,1.0,0.106578369141,0.637075195313,10.0542919922,0.1,0.0,0.0,0.0,0.1,0.0,0.0,0.0,0.1
1446039385039989507,206,1446039385036556005,robocape,9.37814854377,0.924583953438,-16.6225375202,0.0,10.0,0.0,0.0,0.0,10.0,0.0,0.0,0.0,10.0,-0.156194397933,-0.00106526443603,-0.202932875064,1.0,0.0,0.0,0.0,1.0,0.0,0.0,0.0,1.0,-0.131726074219,0.36404296875,10.0171691895,0.1,0.0,0.0,0.0,0.1,0.0,0.0,0.0,0.1
1446039385071988923,207,1446039385068698883,robocape,8.94675093166,0.971405598001,-16.9726097579,0.0,10.0,0.0,0.0,0.0,10.0,0.0,0.0,0.0,10.0,-0.213319203315,-0.00545948023466,-0.20279971701,1.0,0.0,0.0,0.0,1.0,0.0,0.0,0.0,1.0,-0.0682580566406,0.420325927734,9.97286132813,0.1,0.0,0.0,0.0,0.1,0.0,0.0,0.0,0.1
1446039385105610340,208,1446039385102231025,robocape,8.44800131761,0.989237347549,-17.3110840847,0.0,10.0,0.0,0.0,0.0,10.0,0.0,0.0,0.0,10.0,-0.249271878031,-0.017976337358,-0.19454391763,1.0,0.0,0.0,0.0,1.0,0.0,0.0,0.0,1.0,-0.0814306640625,0.0526904296875,9.96328125,0.1,0.0,0.0,0.0,0.1,0.0,0.0,0.0,0.1
1446039385140319382,209,1446039385137181043,robocape,7.91339415673,0.979918885058,-17.5759743602,0.0,10.0,0.0,0.0,0.0,10.0,0.0,0.0,0.0,10.0,-0.269645060371,-0.0249005561922,-0.153930711007,1.0,0.0,0.0,0.0,1.0,0.0,0.0,0.0,1.0,-0.101788330078,0.0395178222656,9.9596887207,0.1,0.0,0.0,0.0,0.1,0.0,0.0,0.0,0.1
1446039385171462590,210,1446039385168337106,robocape,7.20966801115,0.953555536504,-17.6312325919,0.0,10.0,0.0,0.0,0.0,10.0,0.0,0.0,0.0,10.0,-0.362189908251,-0.017710021249,-0.0408795227327,1.0,0.0,0.0,0.0,1.0,0.0,0.0,0.0,1.0,0.116158447266,-0.116158447266,10.0890197754,0.1,0.0,0.0,0.0,0.1,0.0,0.0,0.0,0.1
1446039385204020632,211,1446039385200969934,robocape,6.41983725449,0.905074195139,-17.5661585822,0.0,10.0,0.0,0.0,0.0,10.0,0.0,0.0,0.0,10.0,-0.409594175654,-0.0213052887206,0.0246342400832,1.0,0.0,0.0,0.0,1.0,0.0,0.0,0.0,1.0,0.104183349609,-0.1149609375,10.0842297363,0.1,0.0,0.0,0.0,0.1,0.0,0.0,0.0,0.1
1446039385237624257,212,1446039385234478950,robocape,5.63246075299,0.857272186743,-17.4847792228,0.0,10.0,0.0,0.0,0.0,10.0,0.0,0.0,0.0,10.0,-0.408928385382,-0.0205063403936,0.032756881408,1.0,0.0,0.0,0.0,1.0,0.0,0.0,0.0,1.0,-0.100590820313,-0.819096679688,10.1836230469,0.1,0.0,0.0,0.0,0.1,0.0,0.0,0.0,0.1
1446039385270480798,213,1446039385267419099,robocape,5.06723944899,0.820780699797,-17.4326550134,0.0,10.0,0.0,0.0,0.0,10.0,0.0,0.0,0.0,10.0,-0.292281929636,-0.0165115987585,0.0151800182135,1.0,0.0,0.0,0.0,1.0,0.0,0.0,0.0,1.0,0.148491210938,-1.40108642578,10.019564209,0.1,0.0,0.0,0.0,0.1,0.0,0.0,0.0,0.1
1446039385304312673,214,1446039385301074981,robocape,4.74923764617,0.808851140647,-17.3865450965,0.0,10.0,0.0,0.0,0.0,10.0,0.0,0.0,0.0,10.0,-0.162719142604,-0.00412789968962,0.00972053797879,1.0,0.0,0.0,0.0,1.0,0.0,0.0,0.0,1.0,0.216749267578,-1.93517578125,9.99561401367,0.1,0.0,0.0,0.0,0.1,0.0,0.0,0.0,0.1
1446039385338243965,215,1446039385335182905,robocape,4.76171099379,0.821692955964,-17.3405287002,0.0,10.0,0.0,0.0,0.0,10.0,0.0,0.0,0.0,10.0,0.0106526443603,0.00878843159726,0.00745685105222,1.0,0.0,0.0,0.0,1.0,0.0,0.0,0.0,1.0,0.235909423828,-1.86931274414,10.0638720703,0.1,0.0,0.0,0.0,0.1,0.0,0.0,0.0,0.1
1446039385370321007,216,1446039385367219924,robocape,5.04982365188,0.866829786317,-17.3074717107,0.0,10.0,0.0,0.0,0.0,10.0,0.0,0.0,0.0,10.0,0.155661765715,0.0251668723012,-0.00186421276306,1.0,0.0,0.0,0.0,1.0,0.0,0.0,0.0,1.0,0.198786621094,-1.47173950195,10.0518969727,0.1,0.0,0.0,0.0,0.1,0.0,0.0,0.0,0.1
1446039385404125924,217,1446039385400809049,robocape,5.5184035897,0.92415129942,-17.2761314348,0.0,10.0,0.0,0.0,0.0,10.0,0.0,0.0,0.0,10.0,0.250869774685,0.0315584589174,-0.00426105774413,1.0,0.0,0.0,0.0,1.0,0.0,0.0,0.0,1.0,0.107775878906,-0.947230224609,10.0411193848,0.1,0.0,0.0,0.0,0.1,0.0,0.0,0.0,0.1
1446039385437004965,218,1446039385433896064,robocape,5.84234634119,0.956686342684,-17.1019477109,0.0,10.0,0.0,0.0,0.0,10.0,0.0,0.0,0.0,10.0,0.173504945019,0.0260989786828,0.0735032460862,1.0,0.0,0.0,0.0,1.0,0.0,0.0,0.0,1.0,0.0383203125,-0.160466308594,10.1500927734,0.1,0.0,0.0,0.0,0.1,0.0,0.0,0.0,0.1
1446039385470199549,219,1446039385467113971,robocape,6.01803090445,0.967456940244,-16.8110167901,0.0,10.0,0.0,0.0,0.0,10.0,0.0,0.0,0.0,10.0,0.0942759025888,0.0214384467751,0.137552270303,1.0,0.0,0.0,0.0,1.0,0.0,0.0,0.0,1.0,-0.136516113281,-0.535286865234,10.0614770508,0.1,0.0,0.0,0.0,0.1,0.0,0.0,0.0,0.1
1446039385503855424,220,1446039385500602960,robocape,6.25810355736,0.989883106669,-16.6598660021,0.0,10.0,0.0,0.0,0.0,10.0,0.0,0.0,0.0,10.0,0.13009541925,0.0202400242846,0.0623179695079,1.0,0.0,0.0,0.0,1.0,0.0,0.0,0.0,1.0,-0.0215551757813,-0.534089355469,10.019564209,0.1,0.0,0.0,0.0,0.1,0.0,0.0,0.0,0.1
1446039385537911424,221,1446039385534734964,robocape,6.51074891937,1.01904987103,-16.6044219484,0.0,10.0,0.0,0.0,0.0,10.0,0.0,0.0,0.0,10.0,0.138218060575,0.0185089695761,0.0109189604693,1.0,0.0,0.0,0.0,1.0,0.0,0.0,0.0,1.0,0.0467028808594,-0.193996582031,10.0518969727,0.1,0.0,0.0,0.0,0.1,0.0,0.0,0.0,0.1
1446039385570517174,222,1446039385567491054,robocape,6.69467340337,1.0424321756,-16.5558198395,0.0,10.0,0.0,0.0,0.0,10.0,0.0,0.0,0.0,10.0,0.102398543914,0.0151800182135,0.00785632521573,1.0,0.0,0.0,0.0,1.0,0.0,0.0,0.0,1.0,0.0323327636719,-0.192799072266,10.019564209,0.1,0.0,0.0,0.0,0.1,0.0,0.0,0.0,0.1
1446039385603901257,223,1446039385600845098,robocape,6.86136365967,1.06430954408,-16.4957078687,0.0,10.0,0.0,0.0,0.0,10.0,0.0,0.0,0.0,10.0,0.0933437962073,0.0151800182135,0.0141147537774,1.0,0.0,0.0,0.0,1.0,0.0,0.0,0.0,1.0,0.0742456054688,-0.17244140625,10.0782421875,0.1,0.0,0.0,0.0,0.1,0.0,0.0,0.0,0.1
1446039385637580465,224,1446039385634342908,robocape,6.91700732577,1.08230573735,-16.4530660628,0.0,10.0,0.0,0.0,0.0,10.0,0.0,0.0,0.0,10.0,0.0352868844435,0.0121173829599,0.00559263828917,1.0,0.0,0.0,0.0,1.0,0.0,0.0,0.0,1.0,0.0981958007813,-0.111368408203,10.1189575195,0.1,0.0,0.0,0.0,0.1,0.0,0.0,0.0,0.1
1446039385670511882,225,1446039385667458057,robocape,6.69733582019,1.0727477107,-16.2003174414,0.0,10.0,0.0,0.0,0.0,10.0,0.0,0.0,0.0,10.0,-0.11265171411,0.0107858024148,0.120374881272,1.0,0.0,0.0,0.0,1.0,0.0,0.0,0.0,1.0,0.0431103515625,0.524509277344,10.1333276367,0.1,0.0,0.0,0.0,0.1,0.0,0.0,0.0,0.1
1446039385703820382,226,1446039385700741052,robocape,6.12635642958,1.02348051772,-15.6830646232,0.0,10.0,0.0,0.0,0.0,10.0,0.0,0.0,0.0,10.0,-0.301203519288,0.00466053190764,0.265117686517,1.0,0.0,0.0,0.0,1.0,0.0,0.0,0.0,1.0,-0.0167651367188,-1.15559692383,10.1093774414,0.1,0.0,0.0,0.0,0.1,0.0,0.0,0.0,0.1
1446039385737681382,227,1446039385734349012,robocape,5.83025049763,0.98925770536,-15.2189459031,0.0,10.0,0.0,0.0,0.0,10.0,0.0,0.0,0.0,10.0,-0.156061239879,0.00759000910673,0.235157124254,1.0,0.0,0.0,0.0,1.0,0.0,0.0,0.0,1.0,0.111368408203,-1.57233032227,10.0782421875,0.1,0.0,0.0,0.0,0.1,0.0,0.0,0.0,0.1
1446039385770389840,228,1446039385767335891,robocape,6.04781583647,1.01215986075,-15.0866635501,0.0,10.0,0.0,0.0,0.0,10.0,0.0,0.0,0.0,10.0,0.118111194345,0.0193079179031,0.0543284862376,1.0,0.0,0.0,0.0,1.0,0.0,0.0,0.0,1.0,0.00838256835938,-1.38911132813,10.0506994629,0.1,0.0,0.0,0.0,0.1,0.0,0.0,0.0,0.1
1446039385803669632,229,1446039385800591945,robocape,6.43590084579,1.04431151515,-15.0831437499,0.0,10.0,0.0,0.0,0.0,10.0,0.0,0.0,0.0,10.0,0.209723935844,0.017177389031,-0.0151800182135,1.0,0.0,0.0,0.0,1.0,0.0,0.0,0.0,1.0,0.0251477050781,-1.02147583008,10.0123791504,0.1,0.0,0.0,0.0,0.1,0.0,0.0,0.0,0.1
1446039385837129299,230,1446039385833827018,robocape,7.26370332899,1.13568366127,-15.4694757612,0.0,10.0,0.0,0.0,0.0,10.0,0.0,0.0,0.0,10.0,0.447411063133,0.0237021337017,-0.227833431256,1.0,0.0,0.0,0.0,1.0,0.0,0.0,0.0,1.0,0.110170898438,-0.910107421875,10.0135766602,0.1,0.0,0.0,0.0,0.1,0.0,0.0,0.0,0.1
1446039385870285965,231,1446039385867189884,robocape,8.00598847178,1.2184471734,-15.8608441185,0.0,10.0,0.0,0.0,0.0,10.0,0.0,0.0,0.0,10.0,0.404267853474,0.0159789665405,-0.231162382619,1.0,0.0,0.0,0.0,1.0,0.0,0.0,0.0,1.0,-0.220341796875,0.662222900391,10.1381176758,0.1,0.0,0.0,0.0,0.1,0.0,0.0,0.0,0.1
1446039385903819715,232,1446039385900705099,robocape,8.3173766787,1.25322008546,-15.9958318092,0.0,10.0,0.0,0.0,0.0,10.0,0.0,0.0,0.0,10.0,0.174170735291,0.00812264132474,-0.0908137931717,1.0,0.0,0.0,0.0,1.0,0.0,0.0,0.0,1.0,0.130528564453,1.29091552734,10.0375268555,0.1,0.0,0.0,0.0,0.1,0.0,0.0,0.0,0.1
1446039385937232840,233,1446039385933953046,robocape,8.27976826391,1.27025441189,-15.9764226462,0.0,10.0,0.0,0.0,0.0,10.0,0.0,0.0,0.0,10.0,-0.0121173829599,0.0103863282513,-0.00612527050718,1.0,0.0,0.0,0.0,1.0,0.0,0.0,0.0,1.0,0.193996582031,0.676593017578,10.0267492676,0.1,0.0,0.0,0.0,0.1,0.0,0.0,0.0,0.1
1446039385970240007,234,1446039385967098951,robocape,8.10728978667,1.28559760016,-16.0540533062,0.0,10.0,0.0,0.0,0.0,10.0,0.0,0.0,0.0,10.0,-0.0816258874109,0.00226368692657,-0.0565921731642,1.0,0.0,0.0,0.0,1.0,0.0,0.0,0.0,1.0,-0.0706530761719,0.220341796875,10.0483044434,0.1,0.0,0.0,0.0,0.1,0.0,0.0,0.0,0.1
1446039386003910299,235,1446039386000644922,robocape,7.92580163818,1.30262691497,-16.2771021086,0.0,10.0,0.0,0.0,0.0,10.0,0.0,0.0,0.0,10.0,-0.084022732392,-0.00732369299772,-0.133823844776,1.0,0.0,0.0,0.0,1.0,0.0,0.0,0.0,1.0,-0.0981958007813,0.220341796875,9.99920654297,0.1,0.0,0.0,0.0,0.1,0.0,0.0,0.0,0.1
1446039386037518257,236,1446039386033971071,robocape,7.68564637937,1.32370400032,-16.5848180335,0.0,10.0,0.0,0.0,0.0,10.0,0.0,0.0,0.0,10.0,-0.113583820492,-0.0107858024148,-0.179097583308,1.0,0.0,0.0,0.0,1.0,0.0,0.0,0.0,1.0,-0.0467028808594,0.207169189453,10.0638720703,0.1,0.0,0.0,0.0,0.1,0.0,0.0,0.0,0.1
1446039386070783049,237,1446039386067414045,robocape,7.3295354303,1.3346574763,-16.8614013797,0.0,10.0,0.0,0.0,0.0,10.0,0.0,0.0,0.0,10.0,-0.175369157782,-0.0130494893414,-0.161787036222,1.0,0.0,0.0,0.0,1.0,0.0,0.0,0.0,1.0,-0.122145996094,0.286204833984,10.0207617188,0.1,0.0,0.0,0.0,0.1,0.0,0.0,0.0,0.1
1446039386103923091,238,1446039386100737094,robocape,6.69948340739,1.30183408573,-16.9012632464,0.0,10.0,0.0,0.0,0.0,10.0,0.0,0.0,0.0,10.0,-0.323973546608,-0.0194410759576,-0.0320910911355,1.0,0.0,0.0,0.0,1.0,0.0,0.0,0.0,1.0,-0.0443078613281,0.261057128906,10.003996582,0.1,0.0,0.0,0.0,0.1,0.0,0.0,0.0,0.1
1446039386138032466,239,1446039386134669065,robocape,5.86062397568,1.2470466164,-16.801552181,0.0,10.0,0.0,0.0,0.0,10.0,0.0,0.0,0.0,10.0,-0.436492102664,-0.0226368692657,0.0440753160408,1.0,0.0,0.0,0.0,1.0,0.0,0.0,0.0,1.0,0.234711914063,-0.316142578125,10.0219592285,0.1,0.0,0.0,0.0,0.1,0.0,0.0,0.0,0.1
1446039386171008341,240,1446039386167464017,robocape,5.05042413632,1.19547268545,-16.6645049406,0.0,10.0,0.0,0.0,0.0,10.0,0.0,0.0,0.0,10.0,-0.422377348887,-0.0198405501211,0.0631169178349,1.0,0.0,0.0,0.0,1.0,0.0,0.0,0.0,1.0,0.00838256835938,-0.572409667969,10.0890197754,0.1,0.0,0.0,0.0,0.1,0.0,0.0,0.0,0.1
1446039386203783382,241,1446039386200678110,robocape,4.41050357316,1.15979971745,-16.6356775993,0.0,10.0,0.0,0.0,0.0,10.0,0.0,0.0,0.0,10.0,-0.331829871824,-0.0170442309765,0.00359526747161,1.0,0.0,0.0,0.0,1.0,0.0,0.0,0.0,1.0,-0.129331054688,-1.63100830078,10.0279467773,0.1,0.0,0.0,0.0,0.1,0.0,0.0,0.0,0.1
1446039386237131882,242,1446039386234026908,robocape,4.08306272911,1.14008469081,-16.566128613,0.0,10.0,0.0,0.0,0.0,10.0,0.0,0.0,0.0,10.0,-0.168711255057,-0.00719053494321,0.0234358175927,1.0,0.0,0.0,0.0,1.0,0.0,0.0,0.0,1.0,0.393980712891,-1.90523803711,10.1105749512,0.1,0.0,0.0,0.0,0.1,0.0,0.0,0.0,0.1
1446039386270921882,243,1446039386267590999,robocape,3.95175202069,1.13702884249,-16.4001511056,0.0,10.0,0.0,0.0,0.0,10.0,0.0,0.0,0.0,10.0,-0.0672448175245,0.00492684801665,0.0737695621952,1.0,0.0,0.0,0.0,1.0,0.0,0.0,0.0,1.0,0.237106933594,-2.1459375,10.0542919922,0.1,0.0,0.0,0.0,0.1,0.0,0.0,0.0,0.1
1446039386304045216,244,1446039386300780057,robocape,4.21665366532,1.17597045398,-16.2888314408,0.0,10.0,0.0,0.0,0.0,10.0,0.0,0.0,0.0,10.0,0.141413853883,0.0250337142467,0.0420779452233,1.0,0.0,0.0,0.0,1.0,0.0,0.0,0.0,1.0,0.276624755859,-2.00463134766,10.0674645996,0.1,0.0,0.0,0.0,0.1,0.0,0.0,0.0,0.1
1446039386337091924,245,1446039386333960056,robocape,4.72898453194,1.2395419789,-16.2264323986,0.0,10.0,0.0,0.0,0.0,10.0,0.0,0.0,0.0,10.0,0.272308221461,0.0363521488796,0.0141147537774,1.0,0.0,0.0,0.0,1.0,0.0,0.0,0.0,1.0,0.243094482422,-0.967587890625,10.0411193848,0.1,0.0,0.0,0.0,0.1,0.0,0.0,0.0,0.1
1446039386371777674,246,1446039386368648052,robocape,5.20079381557,1.28835731326,-16.0662731782,0.0,10.0,0.0,0.0,0.0,10.0,0.0,0.0,0.0,10.0,0.250070826358,0.033289513626,0.066579027252,1.0,0.0,0.0,0.0,1.0,0.0,0.0,0.0,1.0,-0.135318603516,-0.731678466797,10.1465002441,0.1,0.0,0.0,0.0,0.1,0.0,0.0,0.0,0.1
1446039386405783341,247,1446039386402506113,robocape,5.49485884026,1.30219281387,-15.6964971715,0.0,10.0,0.0,0.0,0.0,10.0,0.0,0.0,0.0,10.0,0.153797552952,0.0256995045193,0.180296005798,1.0,0.0,0.0,0.0,1.0,0.0,0.0,0.0,1.0,-0.21076171875,0.523311767578,10.0435144043,0.1,0.0,0.0,0.0,0.1,0.0,0.0,0.0,0.1
1446039386438188174,248,1446039386435081958,robocape,5.39868497438,1.27977049673,-15.1324327248,0.0,10.0,0.0,0.0,0.0,10.0,0.0,0.0,0.0,10.0,-0.0540621701286,0.016644756813,0.286955607456,1.0,0.0,0.0,0.0,1.0,0.0,0.0,0.0,1.0,0.100590820313,-0.931662597656,10.055489502,0.1,0.0,0.0,0.0,0.1,0.0,0.0,0.0,0.1
1446039386472640966,249,1446039386469322919,robocape,5.88653327475,1.32589888834,-15.0364941803,0.0,10.0,0.0,0.0,0.0,10.0,0.0,0.0,0.0,10.0,0.260057680446,0.0295610880999,0.0331563555715,1.0,0.0,0.0,0.0,1.0,0.0,0.0,0.0,1.0,0.107775878906,-0.910107421875,10.1453027344,0.1,0.0,0.0,0.0,0.1,0.0,0.0,0.0,0.1
1446039386506183132,250,1446039386502674102,robocape,6.40390285211,1.3684116384,-15.026395928,0.0,10.0,0.0,0.0,0.0,10.0,0.0,0.0,0.0,10.0,0.277501385586,0.0233026595382,-0.0126500151779,1.0,0.0,0.0,0.0,1.0,0.0,0.0,0.0,1.0,-0.216749267578,-0.476608886719,10.0111816406,0.1,0.0,0.0,0.0,0.1,0.0,0.0,0.0,0.1
1446039386539034299,251,1446039386535553932,robocape,6.97837780797,1.42738087923,-15.1971474294,0.0,10.0,0.0,0.0,0.0,10.0,0.0,0.0,0.0,10.0,0.31132353143,0.0209058145571,-0.110254869129,1.0,0.0,0.0,0.0,1.0,0.0,0.0,0.0,1.0,0.0646655273438,-0.0802331542969,10.0267492676,0.1,0.0,0.0,0.0,0.1,0.0,0.0,0.0,0.1
1446039386571816216,252,1446039386568645000,robocape,7.37295097384,1.4699959312,-15.2408983111,0.0,10.0,0.0,0.0,0.0,10.0,0.0,0.0,0.0,10.0,0.215183416078,0.0198405501211,-0.0418116291142,1.0,0.0,0.0,0.0,1.0,0.0,0.0,0.0,1.0,0.0227526855469,0.428708496094,10.0339343262,0.1,0.0,0.0,0.0,0.1,0.0,0.0,0.0,0.1
1446039386605909882,253,1446039386602458000,robocape,7.31775419849,1.45091747045,-14.8651480527,0.0,10.0,0.0,0.0,0.0,10.0,0.0,0.0,0.0,10.0,-0.0288952978274,0.015579492377,0.186288118251,1.0,0.0,0.0,0.0,1.0,0.0,0.0,0.0,1.0,-0.00598754882813,0.940045166016,10.1584753418,0.1,0.0,0.0,0.0,0.1,0.0,0.0,0.0,0.1
1446039386638299382,254,1446039386635157108,robocape,6.97098121842,1.41018338385,-14.3476190921,0.0,10.0,0.0,0.0,0.0,10.0,0.0,0.0,0.0,10.0,-0.184823379651,0.0127831732324,0.26431873819,1.0,0.0,0.0,0.0,1.0,0.0,0.0,0.0,1.0,0.0922082519531,-0.458646240234,10.096204834,0.1,0.0,0.0,0.0,0.1,0.0,0.0,0.0,0.1
1446039386676290632,255,1446039386673213005,robocape,6.84885806549,1.39411442404,-14.0391127141,0.0,10.0,0.0,0.0,0.0,10.0,0.0,0.0,0.0,10.0,-0.0631169178349,0.0114515926873,0.15166702408,1.0,0.0,0.0,0.0,1.0,0.0,0.0,0.0,1.0,0.0646655273438,-1.03345092773,10.0351318359,0.1,0.0,0.0,0.0,0.1,0.0,0.0,0.0,0.1
1446039386705049132,256,1446039386701930046,robocape,6.92659125148,1.39761118536,-13.8867779437,0.0,10.0,0.0,0.0,0.0,10.0,0.0,0.0,0.0,10.0,0.0446079482588,0.0118510668509,0.067377975579,1.0,0.0,0.0,0.0,1.0,0.0,0.0,0.0,1.0,0.0323327636719,-1.02985839844,10.060279541,0.1,0.0,0.0,0.0,0.1,0.0,0.0,0.0,0.1
1446039386740359632,257,1446039386736876964,robocape,7.33611908563,1.44017516615,-13.9866187729,0.0,10.0,0.0,0.0,0.0,10.0,0.0,0.0,0.0,10.0,0.223705531567,0.0162452826495,-0.0696416625056,1.0,0.0,0.0,0.0,1.0,0.0,0.0,0.0,1.0,-0.0694555664063,-1.3448034668,10.0447119141,0.1,0.0,0.0,0.0,0.1,0.0,0.0,0.0,0.1
1446039386773139091,258,1446039386769979000,robocape,8.06913500873,1.53236644508,-14.4024757241,0.0,10.0,0.0,0.0,0.0,10.0,0.0,0.0,0.0,10.0,0.400672586002,0.0194410759576,-0.241948185034,1.0,0.0,0.0,0.0,1.0,0.0,0.0,0.0,1.0,-0.13412109375,0.0431103515625,10.1405126953,0.1,0.0,0.0,0.0,0.1,0.0,0.0,0.0,0.1
1446039386808222799,259,1446039386804176092,robocape,8.61867255803,1.58194667455,-14.6598124317,0.0,10.0,0.0,0.0,0.0,10.0,0.0,0.0,0.0,10.0,0.302401941778,0.0067910607797,-0.155528607661,1.0,0.0,0.0,0.0,1.0,0.0,0.0,0.0,1.0,-0.131726074219,1.0765612793,9.9285534668,0.1,0.0,0.0,0.0,0.1,0.0,0.0,0.0,0.1
1446039386841832966,260,1446039386838155031,robocape,8.61427329253,1.60254751047,-14.6946783216,0.0,10.0,0.0,0.0,0.0,10.0,0.0,0.0,0.0,10.0,0.00652474467069,0.00838895743375,-0.0336889877895,1.0,0.0,0.0,0.0,1.0,0.0,0.0,0.0,1.0,0.356857910156,0.837059326172,9.95250366211,0.1,0.0,0.0,0.0,0.1,0.0,0.0,0.0,0.1
1446039386874179549,261,1446039386870770931,robocape,8.3516042806,1.60274392626,-14.6442264766,0.0,10.0,0.0,0.0,0.0,10.0,0.0,0.0,0.0,10.0,-0.131426999795,0.00439421579863,0.0142479118319,1.0,0.0,0.0,0.0,1.0,0.0,0.0,0.0,1.0,0.0502954101563,0.361647949219,10.0027990723,0.1,0.0,0.0,0.0,0.1,0.0,0.0,0.0,0.1
1446039386907971549,262,1446039386904591083,robocape,7.97583087397,1.59365976055,-14.6041827539,0.0,10.0,0.0,0.0,0.0,10.0,0.0,0.0,0.0,10.0,-0.191081808213,-0.00133158054504,0.0101200121423,1.0,0.0,0.0,0.0,1.0,0.0,0.0,0.0,1.0,-0.262254638672,-0.273032226563,10.1021923828,0.1,0.0,0.0,0.0,0.1,0.0,0.0,0.0,0.1
1446039386941713966,263,1446039386937845945,robocape,7.61338222068,1.58280355991,-14.5252023595,0.0,10.0,0.0,0.0,0.0,10.0,0.0,0.0,0.0,10.0,-0.185089695761,0.000399474163512,0.0307595105904,1.0,0.0,0.0,0.0,1.0,0.0,0.0,0.0,1.0,-0.0526904296875,-0.419128417969,10.1165625,0.1,0.0,0.0,0.0,0.1,0.0,0.0,0.0,0.1
1446039386974504674,264,1446039386970694065,robocape,7.27643928869,1.57068394398,-14.4470452642,0.0,10.0,0.0,0.0,0.0,10.0,0.0,0.0,0.0,10.0,-0.171907048365,-0.000532632218016,0.0303600364269,1.0,0.0,0.0,0.0,1.0,0.0,0.0,0.0,1.0,0.123343505859,-0.340092773437,10.0686621094,0.1,0.0,0.0,0.0,0.1,0.0,0.0,0.0,0.1
1446039387007876008,265,1446039387004554033,robocape,6.93476482438,1.55797828053,-14.3731486247,0.0,10.0,0.0,0.0,0.0,10.0,0.0,0.0,0.0,10.0,-0.174570209455,-0.00133158054504,0.0282295075548,1.0,0.0,0.0,0.0,1.0,0.0,0.0,0.0,1.0,0.0802331542969,-0.347277832031,9.98603393555,0.1,0.0,0.0,0.0,0.1,0.0,0.0,0.0,0.1
1446039387042058258,266,1446039387038532018,robocape,6.57189815511,1.55049729351,-14.2966218652,0.0,10.0,0.0,0.0,0.0,10.0,0.0,0.0,0.0,10.0,-0.186021802142,0.00133158054504,0.0294279300454,1.0,0.0,0.0,0.0,1.0,0.0,0.0,0.0,1.0,0.0922082519531,-0.338895263672,10.0291442871,0.1,0.0,0.0,0.0,0.1,0.0,0.0,0.0,0.1
1446039387073814466,267,1446039387070502042,robocape,6.43892964607,1.56144224134,-14.408363084,0.0,10.0,0.0,0.0,0.0,10.0,0.0,0.0,0.0,10.0,-0.0619184953443,-0.000266316109008,-0.0721716655411,1.0,0.0,0.0,0.0,1.0,0.0,0.0,0.0,1.0,0.00598754882813,-1.12805419922,10.0638720703,0.1,0.0,0.0,0.0,0.1,0.0,0.0,0.0,0.1
1446039387107602299,268,1446039387104510068,robocape,6.50774386808,1.59449096151,-14.6794918101,0.0,10.0,0.0,0.0,0.0,10.0,0.0,0.0,0.0,10.0,0.0471379512944,0.00199737081756,-0.158857559023,1.0,0.0,0.0,0.0,1.0,0.0,0.0,0.0,1.0,0.0730480957031,-0.383203125,10.0770446777,0.1,0.0,0.0,0.0,0.1,0.0,0.0,0.0,0.1
1446039387140410258,269,1446039387137181997,robocape,6.51208042039,1.62094019401,-14.9314450636,0.0,10.0,0.0,0.0,0.0,10.0,0.0,0.0,0.0,10.0,0.0130494893414,-0.000399474163512,-0.148471230772,1.0,0.0,0.0,0.0,1.0,0.0,0.0,0.0,1.0,0.136516113281,-0.119750976563,10.0111816406,0.1,0.0,0.0,0.0,0.1,0.0,0.0,0.0,0.1
1446039387173947591,270,1446039387170825004,robocape,6.3665949009,1.63339292203,-15.1590528174,0.0,10.0,0.0,0.0,0.0,10.0,0.0,0.0,0.0,10.0,-0.0661795530885,-0.00612527050718,-0.134489635049,1.0,0.0,0.0,0.0,1.0,0.0,0.0,0.0,1.0,0.0802331542969,-0.0455053710938,10.0542919922,0.1,0.0,0.0,0.0,0.1,0.0,0.0,0.0,0.1
1446039387207282299,271,1446039387204255104,robocape,5.98973464406,1.622624295,-15.2390160799,0.0,10.0,0.0,0.0,0.0,10.0,0.0,0.0,0.0,10.0,-0.190815492104,-0.00945422186978,-0.0541953281831,1.0,0.0,0.0,0.0,1.0,0.0,0.0,0.0,1.0,-0.142503662109,-0.0658630371094,10.0650695801,0.1,0.0,0.0,0.0,0.1,0.0,0.0,0.0,0.1
1446039387239706341,272,1446039387236558914,robocape,5.53871576067,1.59172908015,-15.19004437,0.0,10.0,0.0,0.0,0.0,10.0,0.0,0.0,0.0,10.0,-0.232493963164,-0.0129163312869,0.0154463343225,1.0,0.0,0.0,0.0,1.0,0.0,0.0,0.0,1.0,-0.0754431152344,-0.731678466797,10.0315393066,0.1,0.0,0.0,0.0,0.1,0.0,0.0,0.0,0.1
1446039387273269841,273,1446039387270148038,robocape,5.18383477981,1.57445556821,-15.1474656703,0.0,10.0,0.0,0.0,0.0,10.0,0.0,0.0,0.0,10.0,-0.182160218561,-0.00625842856169,0.0109189604693,1.0,0.0,0.0,0.0,1.0,0.0,0.0,0.0,1.0,0.185614013672,-1.20708984375,10.0842297363,0.1,0.0,0.0,0.0,0.1,0.0,0.0,0.0,0.1
1446039387306160883,274,1446039387302974939,robocape,5.0052572908,1.56938736635,-15.1064218441,0.0,10.0,0.0,0.0,0.0,10.0,0.0,0.0,0.0,10.0,-0.0897485287357,0.0,0.00892158965177,1.0,0.0,0.0,0.0,1.0,0.0,0.0,0.0,1.0,0.197589111328,-1.46934448242,10.0351318359,0.1,0.0,0.0,0.0,0.1,0.0,0.0,0.0,0.1
1446039387339766466,275,1446039387336647033,robocape,5.03186419653,1.59046098159,-15.0676835845,0.0,10.0,0.0,0.0,0.0,10.0,0.0,0.0,0.0,10.0,0.017976337358,0.0135821215594,0.00585895439817,1.0,0.0,0.0,0.0,1.0,0.0,0.0,0.0,1.0,0.135318603516,-1.48610961914,10.0231567383,0.1,0.0,0.0,0.0,0.1,0.0,0.0,0.0,0.1
1446039387372650424,276,1446039387369378089,robocape,5.16904588389,1.60848932499,-14.9205969144,0.0,10.0,0.0,0.0,0.0,10.0,0.0,0.0,0.0,10.0,0.0741690363587,0.0170442309765,0.0632500758894,1.0,0.0,0.0,0.0,1.0,0.0,0.0,0.0,1.0,0.0838256835938,-1.05021606445,10.1453027344,0.1,0.0,0.0,0.0,0.1,0.0,0.0,0.0,0.1
1446039387405880883,277,1446039387402591943,robocape,5.26020593794,1.61874783478,-14.611166049,0.0,10.0,0.0,0.0,0.0,10.0,0.0,0.0,0.0,10.0,0.0471379512944,0.0207726565026,0.150069127426,1.0,0.0,0.0,0.0,1.0,0.0,0.0,0.0,1.0,0.0778381347656,-0.693358154297,10.2051782227,0.1,0.0,0.0,0.0,0.1,0.0,0.0,0.0,0.1
1446039387438149133,278,1446039387434731006,robocape,5.52805158748,1.64734264249,-14.3565186116,0.0,10.0,0.0,0.0,0.0,10.0,0.0,0.0,0.0,10.0,0.14101437972,0.0282295075548,0.119709090999,1.0,0.0,0.0,0.0,1.0,0.0,0.0,0.0,1.0,0.118553466797,-1.37474121094,10.0530944824,0.1,0.0,0.0,0.0,0.1,0.0,0.0,0.0,0.1
1446039387471795299,279,1446039387468669891,robocape,5.8849923818,1.68318254315,-14.1302659184,0.0,10.0,0.0,0.0,0.0,10.0,0.0,0.0,0.0,10.0,0.188551805178,0.0312921428084,0.103996440568,1.0,0.0,0.0,0.0,1.0,0.0,0.0,0.0,1.0,0.124541015625,-0.532891845703,10.1405126953,0.1,0.0,0.0,0.0,0.1,0.0,0.0,0.0,0.1
1446039387504738675,280,1446039387501605987,robocape,6.06269065542,1.69841076808,-13.7709182853,0.0,10.0,0.0,0.0,0.0,10.0,0.0,0.0,0.0,10.0,0.0920122156622,0.0282295075548,0.176168106109,1.0,0.0,0.0,0.0,1.0,0.0,0.0,0.0,1.0,-0.167651367188,0.0239501953125,10.0171691895,0.1,0.0,0.0,0.0,0.1,0.0,0.0,0.0,0.1
1446039387538895716,281,1446039387535547018,robocape,6.02451510578,1.68338861684,-13.1772619317,0.0,10.0,0.0,0.0,0.0,10.0,0.0,0.0,0.0,10.0,-0.0258326625738,0.0254331884103,0.302668257888,1.0,0.0,0.0,0.0,1.0,0.0,0.0,0.0,1.0,0.193996582031,-0.913699951172,9.96208374023,0.1,0.0,0.0,0.0,0.1,0.0,0.0,0.0,0.1
1446039387570848091,282,1446039387567775011,robocape,6.22889794594,1.69419523925,-12.8603183038,0.0,10.0,0.0,0.0,0.0,10.0,0.0,0.0,0.0,10.0,0.106925917767,0.0241016078652,0.154596501279,1.0,0.0,0.0,0.0,1.0,0.0,0.0,0.0,1.0,0.293389892578,-1.65256347656,10.0004040527,0.1,0.0,0.0,0.0,0.1,0.0,0.0,0.0,0.1
1446039387604784633,283,1446039387601665973,robocape,6.78012326412,1.71967968681,-12.7138247438,0.0,10.0,0.0,0.0,0.0,10.0,0.0,0.0,0.0,10.0,0.292814561854,0.0229031853747,0.0627174436714,1.0,0.0,0.0,0.0,1.0,0.0,0.0,0.0,1.0,-0.148491210938,-1.02147583008,10.0530944824,0.1,0.0,0.0,0.0,0.1,0.0,0.0,0.0,0.1
1446039387637500383,284,1446039387634381055,robocape,7.4650210028,1.7577523624,-12.6529577155,0.0,10.0,0.0,0.0,0.0,10.0,0.0,0.0,0.0,10.0,0.365518859613,0.0247673981377,0.0159789665405,1.0,0.0,0.0,0.0,1.0,0.0,0.0,0.0,1.0,0.0107775878906,-0.650247802734,10.024354248,0.1,0.0,0.0,0.0,0.1,0.0,0.0,0.0,0.1
1446039387670738425,285,1446039387667632102,robocape,8.20392487909,1.80435149096,-12.6203036276,0.0,10.0,0.0,0.0,0.0,10.0,0.0,0.0,0.0,10.0,0.395479421877,0.0275637172823,-0.000266316109008,1.0,0.0,0.0,0.0,1.0,0.0,0.0,0.0,1.0,-0.0371228027344,0.0227526855469,10.0818347168,0.1,0.0,0.0,0.0,0.1,0.0,0.0,0.0,0.1
1446039387704483883,286,1446039387701371908,robocape,8.85128703818,1.83450649529,-12.5994583777,0.0,10.0,0.0,0.0,0.0,10.0,0.0,0.0,0.0,10.0,0.348474628637,0.018242653467,-0.00545948023466,1.0,0.0,0.0,0.0,1.0,0.0,0.0,0.0,1.0,-0.240699462891,0.595162353516,10.0506994629,0.1,0.0,0.0,0.0,0.1,0.0,0.0,0.0,0.1
1446039387737009341,287,1446039387733941078,robocape,9.30691711838,1.8558873642,-12.5815787151,0.0,10.0,0.0,0.0,0.0,10.0,0.0,0.0,0.0,10.0,0.248206613595,0.0134489635049,-0.00585895439817,1.0,0.0,0.0,0.0,1.0,0.0,0.0,0.0,1.0,0.222736816406,0.665815429688,9.96567626953,0.1,0.0,0.0,0.0,0.1,0.0,0.0,0.0,0.1
1446039387770607008,288,1446039387767460107,robocape,9.55608377704,1.86250198739,-12.4956526542,0.0,10.0,0.0,0.0,0.0,10.0,0.0,0.0,0.0,10.0,0.138218060575,0.0115847507418,0.0318247750264,1.0,0.0,0.0,0.0,1.0,0.0,0.0,0.0,1.0,0.100590820313,0.755628662109,9.93813354492,0.1,0.0,0.0,0.0,0.1,0.0,0.0,0.0,0.1
1446039387803979008,289,1446039387800692081,robocape,9.6964816426,1.89640924545,-12.6276744965,0.0,10.0,0.0,0.0,0.0,10.0,0.0,0.0,0.0,10.0,0.0858869451551,0.0067910607797,-0.0841558904465,1.0,0.0,0.0,0.0,1.0,0.0,0.0,0.0,1.0,-0.0730480957031,1.00471069336,10.0830322266,0.1,0.0,0.0,0.0,0.1,0.0,0.0,0.0,0.1
1446039387837138216,290,1446039387834002971,robocape,9.44777000672,1.92870859409,-12.7679673855,0.0,10.0,0.0,0.0,0.0,10.0,0.0,0.0,0.0,10.0,-0.119309616836,0.00519316412565,-0.0865527354276,1.0,0.0,0.0,0.0,1.0,0.0,0.0,0.0,1.0,0.214354248047,1.38671630859,9.99561401367,0.1,0.0,0.0,0.0,0.1,0.0,0.0,0.0,0.1
1446039387870403216,291,1446039387867268085,robocape,8.92923014768,1.94536028431,-12.8212136183,0.0,10.0,0.0,0.0,0.0,10.0,0.0,0.0,0.0,10.0,-0.263919264027,0.00479368996214,-0.0383495196971,1.0,0.0,0.0,0.0,1.0,0.0,0.0,0.0,1.0,0.116158447266,0.696950683594,10.0063916016,0.1,0.0,0.0,0.0,0.1,0.0,0.0,0.0,0.1
1446039387904318633,292,1446039387901005983,robocape,8.32566196133,1.93960638469,-12.8592659739,0.0,10.0,0.0,0.0,0.0,10.0,0.0,0.0,0.0,10.0,-0.309459318667,-0.00532632218016,-0.0282295075548,1.0,0.0,0.0,0.0,1.0,0.0,0.0,0.0,1.0,0.119750976563,-0.0742456054688,10.075847168,0.1,0.0,0.0,0.0,0.1,0.0,0.0,0.0,0.1
1446039387937137925,293,1446039387934039115,robocape,7.74111925422,1.92163143104,-12.8575079479,0.0,10.0,0.0,0.0,0.0,10.0,0.0,0.0,0.0,10.0,-0.30067088707,-0.00852211548825,-0.0066579027252,1.0,0.0,0.0,0.0,1.0,0.0,0.0,0.0,1.0,-0.413140869141,-0.561632080078,9.94891113281,0.1,0.0,0.0,0.0,0.1,0.0,0.0,0.0,0.1
1446039387970586050,294,1446039387967490911,robocape,7.21837283809,1.89928000924,-12.7636753152,0.0,10.0,0.0,0.0,0.0,10.0,0.0,0.0,0.0,10.0,-0.270444008698,-0.00452737385313,0.0416784710597,1.0,0.0,0.0,0.0,1.0,0.0,0.0,0.0,1.0,-0.119750976563,-0.657432861328,9.99082397461,0.1,0.0,0.0,0.0,0.1,0.0,0.0,0.0,0.1
1446039388004633008,295,1446039388001296997,robocape,6.70653187174,1.88373112349,-12.6898442983,0.0,10.0,0.0,0.0,0.0,10.0,0.0,0.0,0.0,10.0,-0.264585054299,-0.00266316109008,0.0306263525359,1.0,0.0,0.0,0.0,1.0,0.0,0.0,0.0,1.0,0.235909423828,-0.677790527344,10.0255517578,0.1,0.0,0.0,0.0,0.1,0.0,0.0,0.0,0.1
1446039388037577383,296,1446039388034442901,robocape,6.37949973733,1.88380269767,-12.6490354402,0.0,10.0,0.0,0.0,0.0,10.0,0.0,0.0,0.0,10.0,-0.166980200348,0.0033289513626,0.0115847507418,1.0,0.0,0.0,0.0,1.0,0.0,0.0,0.0,1.0,0.132923583984,-1.10530151367,10.1465002441,0.1,0.0,0.0,0.0,0.1,0.0,0.0,0.0,0.1
1446039388071975800,297,1446039388068887948,robocape,5.93799999567,1.84369811522,-12.2528594408,0.0,10.0,0.0,0.0,0.0,10.0,0.0,0.0,0.0,10.0,-0.234624492036,0.00199737081756,0.201734452574,1.0,0.0,0.0,0.0,1.0,0.0,0.0,0.0,1.0,-0.0993933105469,-1.66334106445,10.2351159668,0.1,0.0,0.0,0.0,0.1,0.0,0.0,0.0,0.1
1446039388103827925,298,1446039388100739955,robocape,5.99537235236,1.84155512716,-12.0141597677,0.0,10.0,0.0,0.0,0.0,10.0,0.0,0.0,0.0,10.0,0.0306263525359,0.0127831732324,0.1153148752,1.0,0.0,0.0,0.0,1.0,0.0,0.0,0.0,1.0,0.346080322266,-2.3028112793,10.055489502,0.1,0.0,0.0,0.0,0.1,0.0,0.0,0.0,0.1
1446039388137893841,299,1446039388134747982,robocape,6.5265299039,1.88691974136,-11.9542823134,0.0,10.0,0.0,0.0,0.0,10.0,0.0,0.0,0.0,10.0,0.283493498039,0.0282295075548,0.0170442309765,1.0,0.0,0.0,0.0,1.0,0.0,0.0,0.0,1.0,0.28740234375,-1.18912719727,10.0890197754,0.1,0.0,0.0,0.0,0.1,0.0,0.0,0.0,0.1
1446039388171115633,300,1446039388167428016,robocape,7.20653855951,1.92776863058,-11.9696108223,0.0,10.0,0.0,0.0,0.0,10.0,0.0,0.0,0.0,10.0,0.364054121014,0.0215716048296,-0.0231695014837,1.0,0.0,0.0,0.0,1.0,0.0,0.0,0.0,1.0,-0.334105224609,-1.08733886719,9.99202148437,0.1,0.0,0.0,0.0,0.1,0.0,0.0,0.0,0.1
1446039388203994383,301,1446039388200875997,robocape,8.19433975239,2.02185267436,-12.2612967071,0.0,10.0,0.0,0.0,0.0,10.0,0.0,0.0,0.0,10.0,0.533431166343,0.0299605622634,-0.174037577237,1.0,0.0,0.0,0.0,1.0,0.0,0.0,0.0,1.0,-0.234711914063,-0.9580078125,10.0075891113,0.1,0.0,0.0,0.0,0.1,0.0,0.0,0.0,0.1
1446039388236910425,302,1446039388233870029,robocape,9.17687927289,2.08793820677,-12.5607979818,0.0,10.0,0.0,0.0,0.0,10.0,0.0,0.0,0.0,10.0,0.532898534125,0.0121173829599,-0.177499686654,1.0,0.0,0.0,0.0,1.0,0.0,0.0,0.0,1.0,-0.0359252929688,0.809516601563,10.0051940918,0.1,0.0,0.0,0.0,0.1,0.0,0.0,0.0,0.1
1446039388270369717,303,1446039388267113924,robocape,9.58579986955,2.12351477185,-12.5698435387,0.0,10.0,0.0,0.0,0.0,10.0,0.0,0.0,0.0,10.0,0.224637637948,0.0187752856851,-0.0211721306661,1.0,0.0,0.0,0.0,1.0,0.0,0.0,0.0,1.0,0.313747558594,1.59747802734,10.0075891113,0.1,0.0,0.0,0.0,0.1,0.0,0.0,0.0,0.1
1446039388304408467,304,1446039388300937891,robocape,9.53892739644,2.1334193694,-12.4813307144,0.0,10.0,0.0,0.0,0.0,10.0,0.0,0.0,0.0,10.0,-0.0181094954125,0.0137152796139,0.0342216200075,1.0,0.0,0.0,0.0,1.0,0.0,0.0,0.0,1.0,0.0311352539063,1.40707397461,10.0447119141,0.1,0.0,0.0,0.0,0.1,0.0,0.0,0.0,0.1
1446039388337182717,305,1446039388333940029,robocape,9.21439555962,2.1371546105,-12.4244593044,0.0,10.0,0.0,0.0,0.0,10.0,0.0,0.0,0.0,10.0,-0.164050723149,0.00759000910673,0.0197073920666,1.0,0.0,0.0,0.0,1.0,0.0,0.0,0.0,1.0,0.0946032714844,0.780776367188,10.0183666992,0.1,0.0,0.0,0.0,0.1,0.0,0.0,0.0,0.1
1446039388370989342,306,1446039388367412090,robocape,8.7267611119,2.13725167302,-12.3528201271,0.0,10.0,0.0,0.0,0.0,10.0,0.0,0.0,0.0,10.0,-0.250736616631,0.0066579027252,0.0286289817184,1.0,0.0,0.0,0.0,1.0,0.0,0.0,0.0,1.0,0.132923583984,0.205971679688,10.024354248,0.1,0.0,0.0,0.0,0.1,0.0,0.0,0.0,0.1
1446039388404584592,307,1446039388400752067,robocape,8.19309181405,2.11933261334,-12.290768641,0.0,10.0,0.0,0.0,0.0,10.0,0.0,0.0,0.0,10.0,-0.275104540605,-0.00372842552611,0.0253000303558,1.0,0.0,0.0,0.0,1.0,0.0,0.0,0.0,1.0,-0.0622705078125,-0.24908203125,10.1213525391,0.1,0.0,0.0,0.0,0.1,0.0,0.0,0.0,0.1
1446039388437440383,308,1446039388433873891,robocape,7.80289304254,2.11634496533,-12.2598698245,0.0,10.0,0.0,0.0,0.0,10.0,0.0,0.0,0.0,10.0,-0.199071291483,0.00159789665405,0.00719053494321,1.0,0.0,0.0,0.0,1.0,0.0,0.0,0.0,1.0,-0.370030517578,-0.702938232422,10.0614770508,0.1,0.0,0.0,0.0,0.1,0.0,0.0,0.0,0.1
1446039388470753842,309,1446039388467077970,robocape,7.49599172872,2.11743694264,-12.180179822,0.0,10.0,0.0,0.0,0.0,10.0,0.0,0.0,0.0,10.0,-0.156593872097,0.00705737688871,0.03222424919,1.0,0.0,0.0,0.0,1.0,0.0,0.0,0.0,1.0,0.0359252929688,-0.665815429688,10.0985998535,0.1,0.0,0.0,0.0,0.1,0.0,0.0,0.0,0.1
1446039388504294258,310,1446039388500895023,robocape,7.27100528492,2.12282532844,-12.1220661286,0.0,10.0,0.0,0.0,0.0,10.0,0.0,0.0,0.0,10.0,-0.113184346328,0.00772316716123,0.0203731823391,1.0,0.0,0.0,0.0,1.0,0.0,0.0,0.0,1.0,0.0526904296875,-0.549656982422,10.0794396973,0.1,0.0,0.0,0.0,0.1,0.0,0.0,0.0,0.1
1446039388538029592,311,1446039388534007072,robocape,7.18322176279,2.14048182915,-12.1372770779,0.0,10.0,0.0,0.0,0.0,10.0,0.0,0.0,0.0,10.0,-0.0394147841332,0.00932106381528,-0.0194410759576,1.0,0.0,0.0,0.0,1.0,0.0,0.0,0.0,1.0,0.138911132813,-0.874182128906,10.0926123047,0.1,0.0,0.0,0.0,0.1,0.0,0.0,0.0,0.1
1446039388570883842,312,1446039388567648887,robocape,7.32103260328,2.18941944814,-12.3845234236,0.0,10.0,0.0,0.0,0.0,10.0,0.0,0.0,0.0,10.0,0.084821680719,0.0105194863058,-0.144476489137,1.0,0.0,0.0,0.0,1.0,0.0,0.0,0.0,1.0,0.117355957031,-0.864602050781,10.0590820312,0.1,0.0,0.0,0.0,0.1,0.0,0.0,0.0,0.1
1446039388605359633,313,1446039388601535081,robocape,7.65824377185,2.24735615533,-12.7694782547,0.0,10.0,0.0,0.0,0.0,10.0,0.0,0.0,0.0,10.0,0.193611811249,0.00545948023466,-0.21877868355,1.0,0.0,0.0,0.0,1.0,0.0,0.0,0.0,1.0,0.0311352539063,-0.644260253906,10.0770446777,0.1,0.0,0.0,0.0,0.1,0.0,0.0,0.0,0.1
1446039388637223592,314,1446039388633975982,robocape,8.01706469763,2.29957546673,-13.1255113042,0.0,10.0,0.0,0.0,0.0,10.0,0.0,0.0,0.0,10.0,0.205063403936,0.0033289513626,-0.2039981395,1.0,0.0,0.0,0.0,1.0,0.0,0.0,0.0,1.0,-0.245489501953,-0.0730480957031,10.0518969727,0.1,0.0,0.0,0.0,0.1,0.0,0.0,0.0,0.1
1446039388670552300,315,1446039388667428970,robocape,8.10621478426,2.3294402485,-13.3670298154,0.0,10.0,0.0,0.0,0.0,10.0,0.0,0.0,0.0,10.0,0.0605869147993,-0.000798948327024,-0.141547011938,1.0,0.0,0.0,0.0,1.0,0.0,0.0,0.0,1.0,-0.112565917969,0.576002197266,10.0231567383,0.1,0.0,0.0,0.0,0.1,0.0,0.0,0.0,0.1
1446039388705805175,316,1446039388702491998,robocape,7.99233272404,2.35659447924,-13.5902833124,0.0,10.0,0.0,0.0,0.0,10.0,0.0,0.0,0.0,10.0,-0.0467384771309,-0.000932106381528,-0.131160683686,1.0,0.0,0.0,0.0,1.0,0.0,0.0,0.0,1.0,0.0047900390625,0.427510986328,10.0506994629,0.1,0.0,0.0,0.0,0.1,0.0,0.0,0.0,0.1
1446039388738214633,317,1446039388735090970,robocape,7.58970241083,2.34909379199,-13.6580437613,0.0,10.0,0.0,0.0,0.0,10.0,0.0,0.0,0.0,10.0,-0.203066033119,-0.00759000910673,-0.0456732126949,1.0,0.0,0.0,0.0,1.0,0.0,0.0,0.0,1.0,0.0155676269531,0.415535888672,10.0770446777,0.1,0.0,0.0,0.0,0.1,0.0,0.0,0.0,0.1
1446039388771653300,318,1446039388768492937,robocape,7.00466041212,2.31081109888,-13.5792278993,0.0,10.0,0.0,0.0,0.0,10.0,0.0,0.0,0.0,10.0,-0.303200890106,-0.0137152796139,0.034354778062,1.0,0.0,0.0,0.0,1.0,0.0,0.0,0.0,1.0,-0.0395178222656,-0.0203576660156,9.99321899414,0.1,0.0,0.0,0.0,0.1,0.0,0.0,0.0,0.1
1446039388806670842,319,1446039388801302909,robocape,6.31741030045,2.26532683204,-13.469634841,0.0,10.0,0.0,0.0,0.0,10.0,0.0,0.0,0.0,10.0,-0.358062008561,-0.016112124595,0.051265850984,1.0,0.0,0.0,0.0,1.0,0.0,0.0,0.0,1.0,0.067060546875,-0.0227526855469,9.99681152344,0.1,0.0,0.0,0.0,0.1,0.0,0.0,0.0,0.1
1446039388838925133,320,1446039388835731029,robocape,5.69408549733,2.21977527092,-13.404724461,0.0,10.0,0.0,0.0,0.0,10.0,0.0,0.0,0.0,10.0,-0.323707230499,-0.0191747598486,0.0271642431188,1.0,0.0,0.0,0.0,1.0,0.0,0.0,0.0,1.0,-0.215551757813,-0.866997070313,10.039921875,0.1,0.0,0.0,0.0,0.1,0.0,0.0,0.0,0.1
1446039388870744550,321,1446039388867464065,robocape,5.22551257851,2.19001940567,-13.367048641,0.0,10.0,0.0,0.0,0.0,10.0,0.0,0.0,0.0,10.0,-0.242081343088,-0.0125168571234,0.0111852765783,1.0,0.0,0.0,0.0,1.0,0.0,0.0,0.0,1.0,0.265847167969,-1.31007568359,10.0387243652,0.1,0.0,0.0,0.0,0.1,0.0,0.0,0.0,0.1
1446039388904380300,322,1446039388901015996,robocape,4.97463986556,2.17724007379,-13.3246435996,0.0,10.0,0.0,0.0,0.0,10.0,0.0,0.0,0.0,10.0,-0.128098048433,-0.0034621094171,0.0121173829599,1.0,0.0,0.0,0.0,1.0,0.0,0.0,0.0,1.0,0.162861328125,-1.82021484375,10.0147741699,0.1,0.0,0.0,0.0,0.1,0.0,0.0,0.0,0.1
1446039388937218300,323,1446039388934106111,robocape,4.89735441897,2.18091901425,-13.1908568079,0.0,10.0,0.0,0.0,0.0,10.0,0.0,0.0,0.0,10.0,-0.0391484680242,0.00918790576077,0.0592553342543,1.0,0.0,0.0,0.0,1.0,0.0,0.0,0.0,1.0,0.195194091797,-1.35198852539,10.1381176758,0.1,0.0,0.0,0.0,0.1,0.0,0.0,0.0,0.1
1446039388970686050,324,1446039388967612981,robocape,4.98828331054,2.19452772971,-12.9624547955,0.0,10.0,0.0,0.0,0.0,10.0,0.0,0.0,0.0,10.0,0.0470047932399,0.0186421276306,0.108523814421,1.0,0.0,0.0,0.0,1.0,0.0,0.0,0.0,1.0,0.208366699219,-2.1076171875,10.0159716797,0.1,0.0,0.0,0.0,0.1,0.0,0.0,0.0,0.1
1446039389004340134,325,1446039389001148939,robocape,5.47401584315,2.26086976384,-12.8575183038,0.0,10.0,0.0,0.0,0.0,10.0,0.0,0.0,0.0,10.0,0.257394519356,0.0411458388417,0.0396811002422,1.0,0.0,0.0,0.0,1.0,0.0,0.0,0.0,1.0,0.290994873047,-1.32923583984,10.0447119141,0.1,0.0,0.0,0.0,0.1,0.0,0.0,0.0,0.1
1446039389037397217,326,1446039389034336090,robocape,5.88571818104,2.29870137115,-12.5809273095,0.0,10.0,0.0,0.0,0.0,10.0,0.0,0.0,0.0,10.0,0.214783941915,0.0354200424981,0.131693315904,1.0,0.0,0.0,0.0,1.0,0.0,0.0,0.0,1.0,-0.123343505859,0.146096191406,10.229128418,0.1,0.0,0.0,0.0,0.1,0.0,0.0,0.0,0.1
1446039389070599717,327,1446039389067588090,robocape,5.9056992475,2.28474850778,-11.9271547537,0.0,10.0,0.0,0.0,0.0,10.0,0.0,0.0,0.0,10.0,0.0,0.0287621397729,0.334626190968,1.0,0.0,0.0,0.0,1.0,0.0,0.0,0.0,1.0,-0.179626464844,-0.778381347656,10.0710571289,0.1,0.0,0.0,0.0,0.1,0.0,0.0,0.0,0.1
1446039389104615050,328,1446039389101352930,robocape,6.05212898176,2.27870864228,-11.3459222133,0.0,10.0,0.0,0.0,0.0,10.0,0.0,0.0,0.0,10.0,0.0683100819605,0.0295610880999,0.295877197108,1.0,0.0,0.0,0.0,1.0,0.0,0.0,0.0,1.0,-0.0335302734375,-1.4944921875,10.0135766602,0.1,0.0,0.0,0.0,0.1,0.0,0.0,0.0,0.1
1446039389139248509,329,1446039389135873079,robocape,6.55532999935,2.29677733641,-11.0312978181,0.0,10.0,0.0,0.0,0.0,10.0,0.0,0.0,0.0,10.0,0.262454525427,0.0288952978274,0.153398078789,1.0,0.0,0.0,0.0,1.0,0.0,0.0,0.0,1.0,-0.184416503906,-0.936452636719,9.96567626953,0.1,0.0,0.0,0.0,0.1,0.0,0.0,0.0,0.1
1446039389171518300,330,1446039389168385982,robocape,7.2551830708,2.33338830672,-10.9073767619,0.0,10.0,0.0,0.0,0.0,10.0,0.0,0.0,0.0,10.0,0.371111497903,0.0284958236638,0.051265850984,1.0,0.0,0.0,0.0,1.0,0.0,0.0,0.0,1.0,0.185614013672,-0.608334960938,9.99202148437,0.1,0.0,0.0,0.0,0.1,0.0,0.0,0.0,0.1
1446039389204519300,331,1446039389201291084,robocape,8.12966723456,2.38772467523,-10.9109275917,0.0,10.0,0.0,0.0,0.0,10.0,0.0,0.0,0.0,10.0,0.467251613254,0.0298274042089,-0.017976337358,1.0,0.0,0.0,0.0,1.0,0.0,0.0,0.0,1.0,0.05748046875,-0.370030517578,10.060279541,0.1,0.0,0.0,0.0,0.1,0.0,0.0,0.0,0.1
1446039389237077092,332,1446039389234029054,robocape,8.92778689891,2.42988523336,-10.9072718765,0.0,10.0,0.0,0.0,0.0,10.0,0.0,0.0,0.0,10.0,0.42810314523,0.0239684498107,-0.0138484376684,1.0,0.0,0.0,0.0,1.0,0.0,0.0,0.0,1.0,-0.298179931641,0.209564208984,10.0674645996,0.1,0.0,0.0,0.0,0.1,0.0,0.0,0.0,0.1
1446039389270672092,333,1446039389267582893,robocape,9.52296041328,2.45211233466,-10.8837054199,0.0,10.0,0.0,0.0,0.0,10.0,0.0,0.0,0.0,10.0,0.321576701627,0.0151800182135,-0.00159789665405,1.0,0.0,0.0,0.0,1.0,0.0,0.0,0.0,1.0,0.142503662109,0.655037841797,10.003996582,0.1,0.0,0.0,0.0,0.1,0.0,0.0,0.0,0.1
1446039389303974342,334,1446039389300704002,robocape,9.89214365621,2.46656170011,-10.839460956,0.0,10.0,0.0,0.0,0.0,10.0,0.0,0.0,0.0,10.0,0.202400242846,0.0129163312869,0.0105194863058,1.0,0.0,0.0,0.0,1.0,0.0,0.0,0.0,1.0,0.166453857422,1.24660766602,9.99202148437,0.1,0.0,0.0,0.0,0.1,0.0,0.0,0.0,0.1
1446039389336876550,335,1446039389333776950,robocape,9.9219484632,2.47498123919,-10.7662626022,0.0,10.0,0.0,0.0,0.0,10.0,0.0,0.0,0.0,10.0,0.0226368692657,0.0122505410144,0.0275637172823,1.0,0.0,0.0,0.0,1.0,0.0,0.0,0.0,1.0,0.0215551757813,1.19990478516,10.0219592285,0.1,0.0,0.0,0.0,0.1,0.0,0.0,0.0,0.1
1446039389370303842,336,1446039389367211103,robocape,9.7238216512,2.48246826748,-10.7155223735,0.0,10.0,0.0,0.0,0.0,10.0,0.0,0.0,0.0,10.0,-0.0972053797879,0.00958737992429,0.0170442309765,1.0,0.0,0.0,0.0,1.0,0.0,0.0,0.0,1.0,0.0790356445313,0.455053710938,10.0267492676,0.1,0.0,0.0,0.0,0.1,0.0,0.0,0.0,0.1
1446039389403988759,337,1446039389400701045,robocape,9.5758515243,2.52658453593,-10.9583362863,0.0,10.0,0.0,0.0,0.0,10.0,0.0,0.0,0.0,10.0,-0.0628506017259,0.00292947719909,-0.139416483066,1.0,0.0,0.0,0.0,1.0,0.0,0.0,0.0,1.0,-0.0455053710938,0.522114257812,10.0279467773,0.1,0.0,0.0,0.0,0.1,0.0,0.0,0.0,0.1
1446039389436981592,338,1446039389433878898,robocape,9.2638433875,2.56605655858,-11.2142939425,0.0,10.0,0.0,0.0,0.0,10.0,0.0,0.0,0.0,10.0,-0.149137021044,-0.000133158054504,-0.145408595518,1.0,0.0,0.0,0.0,1.0,0.0,0.0,0.0,1.0,0.0562829589844,0.702938232422,9.95250366211,0.1,0.0,0.0,0.0,0.1,0.0,0.0,0.0,0.1
1446039389470151925,339,1446039389467030048,robocape,8.73170770676,2.57400402525,-11.3311382873,0.0,10.0,0.0,0.0,0.0,10.0,0.0,0.0,0.0,10.0,-0.269378744262,-0.00426105774413,-0.0693753463966,1.0,0.0,0.0,0.0,1.0,0.0,0.0,0.0,1.0,0.0490979003906,0.376018066406,10.1285375977,0.1,0.0,0.0,0.0,0.1,0.0,0.0,0.0,0.1
1446039389504144967,340,1446039389500612020,robocape,8.21730467211,2.56552812004,-11.4351707411,0.0,10.0,0.0,0.0,0.0,10.0,0.0,0.0,0.0,10.0,-0.260723470719,-0.0111852765783,-0.0616521792353,1.0,0.0,0.0,0.0,1.0,0.0,0.0,0.0,1.0,-0.457448730469,-0.965192871094,10.0123791504,0.1,0.0,0.0,0.0,0.1,0.0,0.0,0.0,0.1
1446039389537897092,341,1446039389534497976,robocape,7.97447253149,2.58818889725,-11.7336519039,0.0,10.0,0.0,0.0,0.0,10.0,0.0,0.0,0.0,10.0,-0.112518556056,-0.00865527354276,-0.167246516457,1.0,0.0,0.0,0.0,1.0,0.0,0.0,0.0,1.0,-0.147293701172,-0.755628662109,10.0291442871,0.1,0.0,0.0,0.0,0.1,0.0,0.0,0.0,0.1
1446039389570814967,342,1446039389567461013,robocape,7.9298885057,2.62389305523,-12.1733609577,0.0,10.0,0.0,0.0,0.0,10.0,0.0,0.0,0.0,10.0,-0.00412789968962,-0.0114515926873,-0.243546081688,1.0,0.0,0.0,0.0,1.0,0.0,0.0,0.0,1.0,0.0263452148438,-0.384400634766,10.055489502,0.1,0.0,0.0,0.0,0.1,0.0,0.0,0.0,0.1
1446039389604202176,343,1446039389600667953,robocape,7.89616329801,2.65190420101,-12.600880464,0.0,10.0,0.0,0.0,0.0,10.0,0.0,0.0,0.0,10.0,0.00146473859954,-0.0143810698864,-0.237287653126,1.0,0.0,0.0,0.0,1.0,0.0,0.0,0.0,1.0,0.259859619141,0.416733398438,10.0279467773,0.1,0.0,0.0,0.0,0.1,0.0,0.0,0.0,0.1
1446039389637318342,344,1446039389634103059,robocape,7.38382358248,2.62722989082,-12.6902588612,0.0,10.0,0.0,0.0,0.0,10.0,0.0,0.0,0.0,10.0,-0.260323996555,-0.017710021249,-0.0543284862376,1.0,0.0,0.0,0.0,1.0,0.0,0.0,0.0,1.0,0.0826281738281,0.646655273438,10.0135766602,0.1,0.0,0.0,0.0,0.1,0.0,0.0,0.0,0.1
1446039389670283801,345,1446039389667143106,robocape,6.64401471309,2.57498003186,-12.5772292979,0.0,10.0,0.0,0.0,0.0,10.0,0.0,0.0,0.0,10.0,-0.386025200007,-0.0189084437396,0.0545948023466,1.0,0.0,0.0,0.0,1.0,0.0,0.0,0.0,1.0,0.156873779297,-0.0359252929688,9.98962646484,0.1,0.0,0.0,0.0,0.1,0.0,0.0,0.0,0.1
1446039389704227926,346,1446039389700695991,robocape,5.9201389614,2.5373251293,-12.5057609878,0.0,10.0,0.0,0.0,0.0,10.0,0.0,0.0,0.0,10.0,-0.376837294246,-0.0143810698864,0.0314253008629,1.0,0.0,0.0,0.0,1.0,0.0,0.0,0.0,1.0,-0.262254638672,-0.917292480469,10.1393151855,0.1,0.0,0.0,0.0,0.1,0.0,0.0,0.0,0.1
1446039389737135176,347,1446039389734078884,robocape,5.29366326959,2.48950740237,-12.4354272897,0.0,10.0,0.0,0.0,0.0,10.0,0.0,0.0,0.0,10.0,-0.325970917426,-0.0201068662301,0.0307595105904,1.0,0.0,0.0,0.0,1.0,0.0,0.0,0.0,1.0,-0.0359252929688,-1.36995117188,10.0530944824,0.1,0.0,0.0,0.0,0.1,0.0,0.0,0.0,0.1
1446039389770227217,348,1446039389767199039,robocape,4.86589827789,2.45855753251,-12.377903675,0.0,10.0,0.0,0.0,0.0,10.0,0.0,0.0,0.0,10.0,-0.221575002695,-0.0121173829599,0.0223705531567,1.0,0.0,0.0,0.0,1.0,0.0,0.0,0.0,1.0,0.301772460938,-1.54598510742,10.0207617188,0.1,0.0,0.0,0.0,0.1,0.0,0.0,0.0,0.1
1446039389803924092,349,1446039389800652980,robocape,4.62703030415,2.44149784922,-12.2445529076,0.0,10.0,0.0,0.0,0.0,10.0,0.0,0.0,0.0,10.0,-0.124502780961,-0.00173105470855,0.0612527050718,1.0,0.0,0.0,0.0,1.0,0.0,0.0,0.0,1.0,0.152083740234,-1.58909545898,10.1249450684,0.1,0.0,0.0,0.0,0.1,0.0,0.0,0.0,0.1
1446039389838494467,350,1446039389834508895,robocape,4.67371982104,2.45215641899,-12.0561277894,0.0,10.0,0.0,0.0,0.0,10.0,0.0,0.0,0.0,10.0,0.0239684498107,0.0150468601589,0.0885501062451,1.0,0.0,0.0,0.0,1.0,0.0,0.0,0.0,1.0,0.166453857422,-1.92559570313,10.060279541,0.1,0.0,0.0,0.0,0.1,0.0,0.0,0.0,0.1
1446039389871460342,351,1446039389868417024,robocape,5.06988219859,2.49775076418,-11.9260936955,0.0,10.0,0.0,0.0,0.0,10.0,0.0,0.0,0.0,10.0,0.209058145571,0.0312921428084,0.0553937506736,1.0,0.0,0.0,0.0,1.0,0.0,0.0,0.0,1.0,0.308957519531,-1.83458496094,10.0423168945,0.1,0.0,0.0,0.0,0.1,0.0,0.0,0.0,0.1
1446039389905195217,352,1446039389901894092,robocape,5.68026949978,2.56346710613,-11.8352696016,0.0,10.0,0.0,0.0,0.0,10.0,0.0,0.0,0.0,10.0,0.323041440227,0.0406132066237,0.0328900394625,1.0,0.0,0.0,0.0,1.0,0.0,0.0,0.0,1.0,0.131726074219,-0.726888427734,10.0171691895,0.1,0.0,0.0,0.0,0.1,0.0,0.0,0.0,0.1
1446039389938411676,353,1446039389935348033,robocape,6.23680691012,2.60482437041,-11.6896516445,0.0,10.0,0.0,0.0,0.0,10.0,0.0,0.0,0.0,10.0,0.29387982629,0.0312921428084,0.0627174436714,1.0,0.0,0.0,0.0,1.0,0.0,0.0,0.0,1.0,-0.138911132813,-0.0993933105469,10.039921875,0.1,0.0,0.0,0.0,0.1,0.0,0.0,0.0,0.1
1446039389972130259,354,1446039389968480110,robocape,6.66440421307,2.64515825713,-11.5265670426,0.0,10.0,0.0,0.0,0.0,10.0,0.0,0.0,0.0,10.0,0.226102376548,0.0323574072445,0.0720385074866,1.0,0.0,0.0,0.0,1.0,0.0,0.0,0.0,1.0,-0.255069580078,-0.149688720703,10.100994873,0.1,0.0,0.0,0.0,0.1,0.0,0.0,0.0,0.1
1446039390005703342,355,1446039390001894950,robocape,7.0055719017,2.67511875428,-11.3578170845,0.0,10.0,0.0,0.0,0.0,10.0,0.0,0.0,0.0,10.0,0.180828638016,0.0278300333913,0.0757669330128,1.0,0.0,0.0,0.0,1.0,0.0,0.0,0.0,1.0,-0.0586779785156,0.0586779785156,10.080637207,0.1,0.0,0.0,0.0,0.1,0.0,0.0,0.0,0.1
1446039390040092259,356,1446039390036783933,robocape,6.94541587596,2.65633617596,-10.8519580356,0.0,10.0,0.0,0.0,0.0,10.0,0.0,0.0,0.0,10.0,-0.0395479421877,0.0235689756472,0.257261361302,1.0,0.0,0.0,0.0,1.0,0.0,0.0,0.0,1.0,0.0742456054688,0.370030517578,10.0411193848,0.1,0.0,0.0,0.0,0.1,0.0,0.0,0.0,0.1
1446039390078532592,357,1446039390073818922,robocape,6.75972128578,2.61914919931,-10.2603444465,0.0,10.0,0.0,0.0,0.0,10.0,0.0,0.0,0.0,10.0,-0.107858024148,0.0186421276306,0.304132996487,1.0,0.0,0.0,0.0,1.0,0.0,0.0,0.0,1.0,0.227526855469,-0.592767333984,9.98124389648,0.1,0.0,0.0,0.0,0.1,0.0,0.0,0.0,0.1
1446039390105166801,358,1446039390102041959,robocape,6.77344966621,2.6050569477,-9.86970460027,0.0,10.0,0.0,0.0,0.0,10.0,0.0,0.0,0.0,10.0,0.00253000303558,0.0181094954125,0.197073920666,1.0,0.0,0.0,0.0,1.0,0.0,0.0,0.0,1.0,0.300574951172,-1.11009155273,10.0650695801,0.1,0.0,0.0,0.0,0.1,0.0,0.0,0.0,0.1
1446039390138814592,359,1446039390135349035,robocape,7.0604204619,2.62104766503,-9.7013075268,0.0,10.0,0.0,0.0,0.0,10.0,0.0,0.0,0.0,10.0,0.152332814353,0.0206394984481,0.0781637779938,1.0,0.0,0.0,0.0,1.0,0.0,0.0,0.0,1.0,-0.149688720703,-1.13044921875,10.1117724609,0.1,0.0,0.0,0.0,0.1,0.0,0.0,0.0,0.1
1446039390174621259,360,1446039390171103954,robocape,7.69713623371,2.67958760691,-9.86581470151,0.0,10.0,0.0,0.0,0.0,10.0,0.0,0.0,0.0,10.0,0.345944625601,0.0215716048296,-0.100134856987,1.0,0.0,0.0,0.0,1.0,0.0,0.0,0.0,1.0,-0.156873779297,-1.30528564453,10.080637207,0.1,0.0,0.0,0.0,0.1,0.0,0.0,0.0,0.1
1446039390207943384,361,1446039390204233884,robocape,8.67787809993,2.77204393714,-10.3277802302,0.0,10.0,0.0,0.0,0.0,10.0,0.0,0.0,0.0,10.0,0.537026433814,0.0162452826495,-0.260190838501,1.0,0.0,0.0,0.0,1.0,0.0,0.0,0.0,1.0,-0.238304443359,0.130528564453,10.100994873,0.1,0.0,0.0,0.0,0.1,0.0,0.0,0.0,0.1
1446039390240514967,362,1446039390237102031,robocape,9.32259707864,2.82829378792,-10.5988252888,0.0,10.0,0.0,0.0,0.0,10.0,0.0,0.0,0.0,10.0,0.356064637744,0.00932106381528,-0.157659136533,1.0,0.0,0.0,0.0,1.0,0.0,0.0,0.0,1.0,0.0311352539063,1.39869140625,10.0075891113,0.1,0.0,0.0,0.0,0.1,0.0,0.0,0.0,0.1
1446039390274902967,363,1446039390271213054,robocape,9.40241182039,2.84868844949,-10.6074611662,0.0,10.0,0.0,0.0,0.0,10.0,0.0,0.0,0.0,10.0,0.050733218766,0.0115847507418,-0.0159789665405,1.0,0.0,0.0,0.0,1.0,0.0,0.0,0.0,1.0,0.219144287109,1.39629638672,9.9980090332,0.1,0.0,0.0,0.0,0.1,0.0,0.0,0.0,0.1
1446039390306645926,364,1446039390301506996,robocape,9.1332249522,2.85534038925,-10.5486556686,0.0,10.0,0.0,0.0,0.0,10.0,0.0,0.0,0.0,10.0,-0.135554899485,0.00985369603329,0.0218379209386,1.0,0.0,0.0,0.0,1.0,0.0,0.0,0.0,1.0,0.00838256835938,0.749641113281,9.99681152344,0.1,0.0,0.0,0.0,0.1,0.0,0.0,0.0,0.1
1446039390341237384,365,1446039390337374925,robocape,8.70507473421,2.85160532487,-10.4840180405,0.0,10.0,0.0,0.0,0.0,10.0,0.0,0.0,0.0,10.0,-0.219843947986,0.00466053190764,0.0264984528463,1.0,0.0,0.0,0.0,1.0,0.0,0.0,0.0,1.0,0.0538879394531,0.294587402344,10.0566870117,0.1,0.0,0.0,0.0,0.1,0.0,0.0,0.0,0.1
1446039390373030634,366,1446039390369671106,robocape,8.22208433822,2.83715130362,-10.4388495177,0.0,10.0,0.0,0.0,0.0,10.0,0.0,0.0,0.0,10.0,-0.248472929704,-0.00266316109008,0.01744370514,1.0,0.0,0.0,0.0,1.0,0.0,0.0,0.0,1.0,-0.165256347656,-0.296982421875,10.0997973633,0.1,0.0,0.0,0.0,0.1,0.0,0.0,0.0,0.1
1446039390408105134,367,1446039390404452085,robocape,7.82831488107,2.8285196103,-10.4028806682,0.0,10.0,0.0,0.0,0.0,10.0,0.0,0.0,0.0,10.0,-0.201468136464,-0.000399474163512,0.0118510668509,1.0,0.0,0.0,0.0,1.0,0.0,0.0,0.0,1.0,-0.243094482422,-0.453856201172,10.0590820312,0.1,0.0,0.0,0.0,0.1,0.0,0.0,0.0,0.1
1446039390441887343,368,1446039390438271999,robocape,7.45493714017,2.81243726118,-10.3227826273,0.0,10.0,0.0,0.0,0.0,10.0,0.0,0.0,0.0,10.0,-0.192280230704,-0.00133158054504,0.0354200424981,1.0,0.0,0.0,0.0,1.0,0.0,0.0,0.0,1.0,0.0359252929688,-0.401165771484,10.0495019531,0.1,0.0,0.0,0.0,0.1,0.0,0.0,0.0,0.1
1446039390474669759,369,1446039390471182107,robocape,7.10127539412,2.79865989086,-10.2512335691,0.0,10.0,0.0,0.0,0.0,10.0,0.0,0.0,0.0,10.0,-0.181893902452,-0.000932106381528,0.0307595105904,1.0,0.0,0.0,0.0,1.0,0.0,0.0,0.0,1.0,0.177231445313,-0.326920166016,10.0219592285,0.1,0.0,0.0,0.0,0.1,0.0,0.0,0.0,0.1
1446039390508081134,370,1446039390504672050,robocape,6.75763568407,2.78764812173,-10.2037405518,0.0,10.0,0.0,0.0,0.0,10.0,0.0,0.0,0.0,10.0,-0.176168106109,-0.00119842249054,0.017976337358,1.0,0.0,0.0,0.0,1.0,0.0,0.0,0.0,1.0,0.0718505859375,-0.635877685547,10.0291442871,0.1,0.0,0.0,0.0,0.1,0.0,0.0,0.0,0.1
1446039390542091718,371,1446039390538803100,robocape,6.53901461761,2.784530365,-10.1688755465,0.0,10.0,0.0,0.0,0.0,10.0,0.0,0.0,0.0,10.0,-0.110254869129,0.00213052887206,0.0105194863058,1.0,0.0,0.0,0.0,1.0,0.0,0.0,0.0,1.0,0.0359252929688,-0.676593017578,10.0267492676,0.1,0.0,0.0,0.0,0.1,0.0,0.0,0.0,0.1
1446039390601378134,372,1446039390570830106,robocape,6.41485847014,2.7880067085,-10.1338337558,0.0,10.0,0.0,0.0,0.0,10.0,0.0,0.0,0.0,10.0,-0.0607200728538,0.00559263828917,0.0099868540878,1.0,0.0,0.0,0.0,1.0,0.0,0.0,0.0,1.0,0.0347277832031,-0.924477539063,10.0483044434,0.1,0.0,0.0,0.0,0.1,0.0,0.0,0.0,0.1
1446039390623145884,373,1446039390619910001,robocape,6.44678376559,2.80075960212,-10.0987718971,0.0,10.0,0.0,0.0,0.0,10.0,0.0,0.0,0.0,10.0,0.0213052887206,0.0105194863058,0.00905474770627,1.0,0.0,0.0,0.0,1.0,0.0,0.0,0.0,1.0,0.0814306640625,-0.705333251953,10.060279541,0.1,0.0,0.0,0.0,0.1,0.0,0.0,0.0,0.1
1446039390646614009,374,1446039390643347024,robocape,6.50115082966,2.8163207535,-10.0643247862,0.0,10.0,0.0,0.0,0.0,10.0,0.0,0.0,0.0,10.0,0.0331563555715,0.0119842249054,0.00852211548825,1.0,0.0,0.0,0.0,1.0,0.0,0.0,0.0,1.0,0.0658630371094,-0.568817138672,10.0974023437,0.1,0.0,0.0,0.0,0.1,0.0,0.0,0.0,0.1
1446039390673315926,375,1446039390670109033,robocape,6.56266486099,2.83179223082,-10.0319071593,0.0,10.0,0.0,0.0,0.0,10.0,0.0,0.0,0.0,10.0,0.0370179391521,0.0118510668509,0.00745685105222,1.0,0.0,0.0,0.0,1.0,0.0,0.0,0.0,1.0,0.0490979003906,-0.379610595703,10.1045874023,0.1,0.0,0.0,0.0,0.1,0.0,0.0,0.0,0.1
1446039390705953009,376,1446039390702616930,robocape,6.59348874149,2.8446697711,-9.99921864921,0.0,10.0,0.0,0.0,0.0,10.0,0.0,0.0,0.0,10.0,0.0209058145571,0.0105194863058,0.00785632521573,1.0,0.0,0.0,0.0,1.0,0.0,0.0,0.0,1.0,0.00838256835938,-0.330512695313,10.0854272461,0.1,0.0,0.0,0.0,0.1,0.0,0.0,0.0,0.1
1446039390739491801,377,1446039390736311912,robocape,6.5858754509,2.85591269693,-9.96544822896,0.0,10.0,0.0,0.0,0.0,10.0,0.0,0.0,0.0,10.0,0.00066579027252,0.00972053797879,0.00865527354276,1.0,0.0,0.0,0.0,1.0,0.0,0.0,0.0,1.0,-0.0143701171875,-0.349672851562,10.0662670898,0.1,0.0,0.0,0.0,0.1,0.0,0.0,0.0,0.1
1446039390773060718,378,1446039390769936084,robocape,6.54666743088,2.86564959051,-9.93614953851,0.0,10.0,0.0,0.0,0.0,10.0,0.0,0.0,0.0,10.0,-0.015845808486,0.00865527354276,0.00652474467069,1.0,0.0,0.0,0.0,1.0,0.0,0.0,0.0,1.0,0.0323327636719,-0.44068359375,10.0770446777,0.1,0.0,0.0,0.0,0.1,0.0,0.0,0.0,0.1
1446039390806696134,379,1446039390803436994,robocape,6.50855371596,2.87511063341,-9.9066898504,0.0,10.0,0.0,0.0,0.0,10.0,0.0,0.0,0.0,10.0,-0.015313176268,0.00852211548825,0.0066579027252,1.0,0.0,0.0,0.0,1.0,0.0,0.0,0.0,1.0,0.0431103515625,-0.578397216797,10.0495019531,0.1,0.0,0.0,0.0,0.1,0.0,0.0,0.0,0.1
1446039390839220426,380,1446039390836070060,robocape,6.51052294484,2.88928802554,-9.87653687281,0.0,10.0,0.0,0.0,0.0,10.0,0.0,0.0,0.0,10.0,0.00572579634367,0.0110521185238,0.0066579027252,1.0,0.0,0.0,0.0,1.0,0.0,0.0,0.0,1.0,0.0275427246094,-0.694555664063,10.0698596191,0.1,0.0,0.0,0.0,0.1,0.0,0.0,0.0,0.1
1446039390872794009,381,1446039390869497060,robocape,6.55008294097,2.90617052486,-9.84388757203,0.0,10.0,0.0,0.0,0.0,10.0,0.0,0.0,0.0,10.0,0.0254331884103,0.0126500151779,0.00772316716123,1.0,0.0,0.0,0.0,1.0,0.0,0.0,0.0,1.0,0.132923583984,-0.596359863281,10.1045874023,0.1,0.0,0.0,0.0,0.1,0.0,0.0,0.0,0.1
1446039390904857051,382,1446039390901789903,robocape,6.6034294113,2.92186416682,-9.81260500071,0.0,10.0,0.0,0.0,0.0,10.0,0.0,0.0,0.0,10.0,0.032756881408,0.0119842249054,0.00705737688871,1.0,0.0,0.0,0.0,1.0,0.0,0.0,0.0,1.0,0.0586779785156,-0.432301025391,10.1333276367,0.1,0.0,0.0,0.0,0.1,0.0,0.0,0.0,0.1
1446039390938175051,383,1446039390935008049,robocape,6.56794483527,2.94262244762,-9.74414313153,0.0,10.0,0.0,0.0,0.0,10.0,0.0,0.0,0.0,10.0,-0.0150468601589,0.0167779148675,0.0264984528463,1.0,0.0,0.0,0.0,1.0,0.0,0.0,0.0,1.0,-0.202379150391,0.441881103516,10.1860180664,0.1,0.0,0.0,0.0,0.1,0.0,0.0,0.0,0.1
1446039390971177634,384,1446039390968111038,robocape,6.25278424474,2.90354608357,-9.28833370811,0.0,10.0,0.0,0.0,0.0,10.0,0.0,0.0,0.0,10.0,-0.173638103073,0.00759000910673,0.233958701763,1.0,0.0,0.0,0.0,1.0,0.0,0.0,0.0,1.0,0.0179626464844,-1.03345092773,10.0483044434,0.1,0.0,0.0,0.0,0.1,0.0,0.0,0.0,0.1
1446039391004943968,385,1446039391001800060,robocape,6.23227841317,2.90515231927,-9.03352126089,0.0,10.0,0.0,0.0,0.0,10.0,0.0,0.0,0.0,10.0,-0.0129163312869,0.0170442309765,0.125834361506,1.0,0.0,0.0,0.0,1.0,0.0,0.0,0.0,1.0,0.219144287109,-2.16869018555,10.0231567383,0.1,0.0,0.0,0.0,0.1,0.0,0.0,0.0,0.1
1446039391038240468,386,1446039391034881114,robocape,6.74662463537,2.94319699411,-8.97421949257,0.0,10.0,0.0,0.0,0.0,10.0,0.0,0.0,0.0,10.0,0.274172434224,0.0255663464648,0.0201068662301,1.0,0.0,0.0,0.0,1.0,0.0,0.0,0.0,1.0,0.240699462891,-1.19990478516,10.0938098145,0.1,0.0,0.0,0.0,0.1,0.0,0.0,0.0,0.1
1446039391071007301,387,1446039391067948102,robocape,7.28999110817,2.97266776912,-8.91041242313,0.0,10.0,0.0,0.0,0.0,10.0,0.0,0.0,0.0,10.0,0.289885084655,0.0217047628841,0.0226368692657,1.0,0.0,0.0,0.0,1.0,0.0,0.0,0.0,1.0,-0.347277832031,-0.711320800781,10.0207617188,0.1,0.0,0.0,0.0,0.1,0.0,0.0,0.0,0.1
1446039391104016968,388,1446039391100922107,robocape,7.93049771551,3.01854039171,-8.93271790528,0.0,10.0,0.0,0.0,0.0,10.0,0.0,0.0,0.0,10.0,0.344346728947,0.0247673981377,-0.0241016078652,1.0,0.0,0.0,0.0,1.0,0.0,0.0,0.0,1.0,-0.00359252929688,-0.717308349609,9.97405883789,0.1,0.0,0.0,0.0,0.1,0.0,0.0,0.0,0.1
1446039391141534135,389,1446039391138191938,robocape,8.58646258267,3.05031499624,-8.88737207764,0.0,10.0,0.0,0.0,0.0,10.0,0.0,0.0,0.0,10.0,0.351270947781,0.0223705531567,0.0117179087963,1.0,0.0,0.0,0.0,1.0,0.0,0.0,0.0,1.0,0.01916015625,0.09580078125,9.98244140625,0.1,0.0,0.0,0.0,0.1,0.0,0.0,0.0,0.1
1446039391170992010,390,1446039391167885065,robocape,9.21726494586,3.07167117089,-8.80441652658,0.0,10.0,0.0,0.0,0.0,10.0,0.0,0.0,0.0,10.0,0.337688826222,0.0202400242846,0.0318247750264,1.0,0.0,0.0,0.0,1.0,0.0,0.0,0.0,1.0,0.00359252929688,0.197589111328,10.0363293457,0.1,0.0,0.0,0.0,0.1,0.0,0.0,0.0,0.1
