%time,field.header.seq,field.header.stamp,field.header.frame_id,field.orientation.x,field.orientation.y,field.orientation.z,field.orientation.w,field.orientation_covariance0,field.orientation_covariance1,field.orientation_covariance2,field.orientation_covariance3,field.orientation_covariance4,field.orientation_covariance5,field.orientation_covariance6,field.orientation_covariance7,field.orientation_covariance8,field.angular_velocity.x,field.angular_velocity.y,field.angular_velocity.z,field.angular_velocity_covariance0,field.angular_velocity_covariance1,field.angular_velocity_covariance2,field.angular_velocity_covariance3,field.angular_velocity_covariance4,field.angular_velocity_covariance5,field.angular_velocity_covariance6,field.angular_velocity_covariance7,field.angular_velocity_covariance8,field.linear_acceleration.x,field.linear_acceleration.y,field.linear_acceleration.z,field.linear_acceleration_covariance0,field.linear_acceleration_covariance1,field.linear_acceleration_covariance2,field.linear_acceleration_covariance3,field.linear_acceleration_covariance4,field.linear_acceleration_covariance5,field.linear_acceleration_covariance6,field.linear_acceleration_covariance7,field.linear_acceleration_covariance8
1446039167361078903,1,1446039167346888065,robocape,5.90985965909,7.88393623694,16.5859266472,0.0,10.0,0.0,0.0,0.0,10.0,0.0,0.0,0.0,10.0,-0.0909469512262,0.00812264132474,0.174037577237,1.0,0.0,0.0,0.0,1.0,0.0,0.0,0.0,1.0,0.420325927734,-0.748443603516,10.1500927734,0.1,0.0,0.0,0.0,0.1,0.0,0.0,0.0,0.1
1446039167378026153,2,1446039167372566938,robocape,6.1227772221,7.8685855524,16.6995958503,0.0,10.0,0.0,0.0,0.0,10.0,0.0,0.0,0.0,10.0,0.108656972475,0.00759000910673,0.0770985135578,1.0,0.0,0.0,0.0,1.0,0.0,0.0,0.0,1.0,0.0203576660156,-0.801134033203,10.1117724609,0.1,0.0,0.0,0.0,0.1,0.0,0.0,0.0,0.1
1446039167401299611,3,1446039167398211956,robocape,6.49113070079,7.85748280352,16.6996965577,0.0,10.0,0.0,0.0,0.0,10.0,0.0,0.0,0.0,10.0,0.198405501211,0.0033289513626,0.017710021249,1.0,0.0,0.0,0.0,1.0,0.0,0.0,0.0,1.0,0.0694555664063,-0.431103515625,10.0219592285,0.1,0.0,0.0,0.0,0.1,0.0,0.0,0.0,0.1
1446039167425918445,4,1446039167422686100,robocape,6.91099887922,7.84355421324,16.7147975704,0.0,10.0,0.0,0.0,0.0,10.0,0.0,0.0,0.0,10.0,0.224903954057,0.00306263525359,0.0260989786828,1.0,0.0,0.0,0.0,1.0,0.0,0.0,0.0,1.0,0.298179931641,0.0359252929688,10.0890197754,0.1,0.0,0.0,0.0,0.1,0.0,0.0,0.0,0.1
1446039167458621278,5,1446039167455266952,robocape,7.37949770437,7.86074598791,16.4982163062,0.0,10.0,0.0,0.0,0.0,10.0,0.0,0.0,0.0,10.0,0.266715583171,0.0033289513626,-0.0973385378424,1.0,0.0,0.0,0.0,1.0,0.0,0.0,0.0,1.0,0.09580078125,0.948427734375,10.0662670898,0.1,0.0,0.0,0.0,0.1,0.0,0.0,0.0,0.1
1446039167491551278,6,1446039167488341093,robocape,7.54555097642,7.88343687274,16.3470002904,0.0,10.0,0.0,0.0,0.0,10.0,0.0,0.0,0.0,10.0,0.103730124459,0.00985369603329,-0.0645816564344,1.0,0.0,0.0,0.0,1.0,0.0,0.0,0.0,1.0,0.470621337891,1.40348144531,9.92735595703,0.1,0.0,0.0,0.0,0.1,0.0,0.0,0.0,0.1
1446039167530030320,7,1446039167523838043,robocape,7.25335605719,7.90446104448,16.2718880479,0.0,10.0,0.0,0.0,0.0,10.0,0.0,0.0,0.0,10.0,-0.142345960265,0.0135821215594,-0.0264984528463,1.0,0.0,0.0,0.0,1.0,0.0,0.0,0.0,1.0,0.222736816406,1.20948486328,9.84233276367,0.1,0.0,0.0,0.0,0.1,0.0,0.0,0.0,0.1
1446039167559038653,8,1446039167555481910,robocape,6.68919229653,7.91892035253,16.2882384886,0.0,10.0,0.0,0.0,0.0,10.0,0.0,0.0,0.0,10.0,-0.291882455473,0.016112124595,0.0209058145571,1.0,0.0,0.0,0.0,1.0,0.0,0.0,0.0,1.0,0.32572265625,0.384400634766,9.96208374023,0.1,0.0,0.0,0.0,0.1,0.0,0.0,0.0,0.1
1446039167591528695,9,1446039167588459014,robocape,5.95042380473,7.87936460859,16.5304012313,0.0,10.0,0.0,0.0,0.0,10.0,0.0,0.0,0.0,10.0,-0.399740479621,0.00159789665405,0.142345960265,1.0,0.0,0.0,0.0,1.0,0.0,0.0,0.0,1.0,0.0981958007813,-0.740061035156,10.1165625,0.1,0.0,0.0,0.0,0.1,0.0,0.0,0.0,0.1
1446039167626292195,10,1446039167622611999,robocape,5.63005806044,7.85247629558,16.6142966374,0.0,10.0,0.0,0.0,0.0,10.0,0.0,0.0,0.0,10.0,-0.169510203384,-0.00133158054504,0.0601874406358,1.0,0.0,0.0,0.0,1.0,0.0,0.0,0.0,1.0,0.0215551757813,-1.66813110352,10.0291442871,0.1,0.0,0.0,0.0,0.1,0.0,0.0,0.0,0.1
1446039167658496820,11,1446039167654992103,robocape,5.67204706749,7.8574858311,16.6048863723,0.0,10.0,0.0,0.0,0.0,10.0,0.0,0.0,0.0,10.0,0.0270310850643,0.0105194863058,0.0106526443603,1.0,0.0,0.0,0.0,1.0,0.0,0.0,0.0,1.0,0.0898132324219,-1.34839599609,9.98723144531,0.1,0.0,0.0,0.0,0.1,0.0,0.0,0.0,0.1
1446039167691840820,12,1446039167688509941,robocape,6.04640865679,7.87481364882,16.5062038514,0.0,10.0,0.0,0.0,0.0,10.0,0.0,0.0,0.0,10.0,0.207859723081,0.0122505410144,-0.0360858327706,1.0,0.0,0.0,0.0,1.0,0.0,0.0,0.0,1.0,0.358055419922,-1.54957763672,10.0686621094,0.1,0.0,0.0,0.0,0.1,0.0,0.0,0.0,0.1
1446039167725266320,13,1446039167721764087,robocape,6.71650963924,7.88590286791,16.2760532669,0.0,10.0,0.0,0.0,0.0,10.0,0.0,0.0,0.0,10.0,0.372709394557,0.000798948327024,-0.104129598622,1.0,0.0,0.0,0.0,1.0,0.0,0.0,0.0,1.0,-0.216749267578,0.342487792969,10.1596728516,0.1,0.0,0.0,0.0,0.1,0.0,0.0,0.0,0.1
1446039167758624820,14,1446039167755409955,robocape,7.0933791975,7.89614884885,16.1725934362,0.0,10.0,0.0,0.0,0.0,10.0,0.0,0.0,0.0,10.0,0.210656042225,0.00759000910673,-0.0383495196971,1.0,0.0,0.0,0.0,1.0,0.0,0.0,0.0,1.0,0.462238769531,1.08254882812,9.98483642578,0.1,0.0,0.0,0.0,0.1,0.0,0.0,0.0,0.1
1446039167791697320,15,1446039167788486957,robocape,7.16214217685,7.90037777671,16.1588391723,0.0,10.0,0.0,0.0,0.0,10.0,0.0,0.0,0.0,10.0,0.0428768935503,0.0099868540878,0.00798948327024,1.0,0.0,0.0,0.0,1.0,0.0,0.0,0.0,1.0,0.180823974609,1.00351318359,10.0423168945,0.1,0.0,0.0,0.0,0.1,0.0,0.0,0.0,0.1
1446039167825123195,16,1446039167821857929,robocape,6.98911002001,7.9061996329,16.1498217662,0.0,10.0,0.0,0.0,0.0,10.0,0.0,0.0,0.0,10.0,-0.08455536461,0.0106526443603,0.00945422186978,1.0,0.0,0.0,0.0,1.0,0.0,0.0,0.0,1.0,0.343685302734,0.722098388672,9.96926879883,0.1,0.0,0.0,0.0,0.1,0.0,0.0,0.0,0.1
1446039167858170820,17,1446039167855098009,robocape,6.6680776604,7.91583766829,16.1493427714,0.0,10.0,0.0,0.0,0.0,10.0,0.0,0.0,0.0,10.0,-0.163118616767,0.0129163312869,0.0131826473959,1.0,0.0,0.0,0.0,1.0,0.0,0.0,0.0,1.0,0.178428955078,0.274229736328,10.024354248,0.1,0.0,0.0,0.0,0.1,0.0,0.0,0.0,0.1
1446039167891687695,18,1446039167888576984,robocape,6.33667465428,7.92328067827,16.1217307331,0.0,10.0,0.0,0.0,0.0,10.0,0.0,0.0,0.0,10.0,-0.166980200348,0.0099868540878,-0.000932106381528,1.0,0.0,0.0,0.0,1.0,0.0,0.0,0.0,1.0,0.217946777344,-0.360450439453,10.0578845215,0.1,0.0,0.0,0.0,0.1,0.0,0.0,0.0,0.1
1446039167924987736,19,1446039167921873092,robocape,6.16489555588,7.9253943144,16.0629361591,0.0,10.0,0.0,0.0,0.0,10.0,0.0,0.0,0.0,10.0,-0.0812264132474,0.00559263828917,-0.0165115987585,1.0,0.0,0.0,0.0,1.0,0.0,0.0,0.0,1.0,0.192799072266,-0.548459472656,10.039921875,0.1,0.0,0.0,0.0,0.1,0.0,0.0,0.0,0.1
1446039167958418611,20,1446039167955303907,robocape,6.03704704638,7.92413814524,16.0487027516,0.0,10.0,0.0,0.0,0.0,10.0,0.0,0.0,0.0,10.0,-0.0613858631263,0.0066579027252,0.00719053494321,1.0,0.0,0.0,0.0,1.0,0.0,0.0,0.0,1.0,0.076640625,-0.639470214844,10.0363293457,0.1,0.0,0.0,0.0,0.1,0.0,0.0,0.0,0.1
1446039167992904570,21,1446039167988914012,robocape,6.04516977271,7.92499060457,16.014682947,0.0,10.0,0.0,0.0,0.0,10.0,0.0,0.0,0.0,10.0,0.0113184346328,0.0067910607797,-0.00292947719909,1.0,0.0,0.0,0.0,1.0,0.0,0.0,0.0,1.0,0.250279541016,-0.550854492188,10.0530944824,0.1,0.0,0.0,0.0,0.1,0.0,0.0,0.0,0.1
1446039168026286403,22,1446039168023245096,robocape,6.12872975093,7.92631493706,15.987934485,0.0,10.0,0.0,0.0,0.0,10.0,0.0,0.0,0.0,10.0,0.050466902657,0.00759000910673,0.00106526443603,1.0,0.0,0.0,0.0,1.0,0.0,0.0,0.0,1.0,0.130528564453,-0.252674560547,10.0303417969,0.1,0.0,0.0,0.0,0.1,0.0,0.0,0.0,0.1
1446039168060744820,23,1446039168057297945,robocape,6.26237534686,7.92646446587,15.9656260933,0.0,10.0,0.0,0.0,0.0,10.0,0.0,0.0,0.0,10.0,0.0765658813398,0.00732369299772,0.00359526747161,1.0,0.0,0.0,0.0,1.0,0.0,0.0,0.0,1.0,0.216749267578,-0.211959228516,10.0542919922,0.1,0.0,0.0,0.0,0.1,0.0,0.0,0.0,0.1
1446039168093710737,24,1446039168089991092,robocape,6.42174110912,7.92695004216,15.9482741042,0.0,10.0,0.0,0.0,0.0,10.0,0.0,0.0,0.0,10.0,0.0898816867902,0.00785632521573,0.00625842856169,1.0,0.0,0.0,0.0,1.0,0.0,0.0,0.0,1.0,0.193996582031,0.0155676269531,10.0483044434,0.1,0.0,0.0,0.0,0.1,0.0,0.0,0.0,0.1
1446039168127120737,25,1446039168123713970,robocape,6.52959982918,7.92531273345,15.9287424873,0.0,10.0,0.0,0.0,0.0,10.0,0.0,0.0,0.0,10.0,0.0631169178349,0.00652474467069,0.00506000607115,1.0,0.0,0.0,0.0,1.0,0.0,0.0,0.0,1.0,0.231119384766,0.227526855469,10.0111816406,0.1,0.0,0.0,0.0,0.1,0.0,0.0,0.0,0.1
1446039168161054278,26,1446039168157504081,robocape,6.55314419323,7.92607505789,15.9168616348,0.0,10.0,0.0,0.0,0.0,10.0,0.0,0.0,0.0,10.0,0.0183758115215,0.00812264132474,0.00865527354276,1.0,0.0,0.0,0.0,1.0,0.0,0.0,0.0,1.0,0.1916015625,0.362845458984,10.0255517578,0.1,0.0,0.0,0.0,0.1,0.0,0.0,0.0,0.1
1446039168193381320,27,1446039168190107107,robocape,6.47673096999,7.92808168381,15.9060339487,0.0,10.0,0.0,0.0,0.0,10.0,0.0,0.0,0.0,10.0,-0.0342216200075,0.00865527354276,0.00878843159726,1.0,0.0,0.0,0.0,1.0,0.0,0.0,0.0,1.0,0.263452148438,0.410745849609,10.0171691895,0.1,0.0,0.0,0.0,0.1,0.0,0.0,0.0,0.1
1446039168226554862,28,1446039168223459959,robocape,6.10698448647,7.90870699788,16.1346100335,0.0,10.0,0.0,0.0,0.0,10.0,0.0,0.0,0.0,10.0,-0.205063403936,0.0118510668509,0.134889109213,1.0,0.0,0.0,0.0,1.0,0.0,0.0,0.0,1.0,0.295784912109,-0.01916015625,9.96088623047,0.1,0.0,0.0,0.0,0.1,0.0,0.0,0.0,0.1
1446039168262936612,29,1446039168258899927,robocape,5.86083519075,7.81803151883,16.286554901,0.0,10.0,0.0,0.0,0.0,10.0,0.0,0.0,0.0,10.0,-0.135155425322,-0.0304931944814,0.0989364344964,1.0,0.0,0.0,0.0,1.0,0.0,0.0,0.0,1.0,0.147293701172,-1.39869140625,9.96926879883,0.1,0.0,0.0,0.0,0.1,0.0,0.0,0.0,0.1
1446039168293202945,30,1446039168290184974,robocape,6.05627839298,7.81720688174,16.2833625823,0.0,10.0,0.0,0.0,0.0,10.0,0.0,0.0,0.0,10.0,0.107458549985,0.00798948327024,0.0142479118319,1.0,0.0,0.0,0.0,1.0,0.0,0.0,0.0,1.0,0.180823974609,-0.906514892578,10.0614770508,0.1,0.0,0.0,0.0,0.1,0.0,0.0,0.0,0.1
1446039168334665695,31,1446039168326153993,robocape,6.40522901577,7.80836810571,16.2849664235,0.0,10.0,0.0,0.0,0.0,10.0,0.0,0.0,0.0,10.0,0.18801917296,0.00439421579863,0.017710021249,1.0,0.0,0.0,0.0,1.0,0.0,0.0,0.0,1.0,0.0934057617188,-0.226329345703,10.024354248,0.1,0.0,0.0,0.0,0.1,0.0,0.0,0.0,0.1
1446039168364201445,32,1446039168360529899,robocape,6.73599619977,7.79667160444,16.3144780408,0.0,10.0,0.0,0.0,0.0,10.0,0.0,0.0,0.0,10.0,0.176967054436,0.00479368996214,0.0326237233535,1.0,0.0,0.0,0.0,1.0,0.0,0.0,0.0,1.0,0.255069580078,0.170046386719,10.0435144043,0.1,0.0,0.0,0.0,0.1,0.0,0.0,0.0,0.1
1446039168396185737,33,1446039168391927003,robocape,7.00101893056,7.78709128412,16.3307250359,0.0,10.0,0.0,0.0,0.0,10.0,0.0,0.0,0.0,10.0,0.14367754081,0.00506000607115,0.0254331884103,1.0,0.0,0.0,0.0,1.0,0.0,0.0,0.0,1.0,0.199984130859,0.536484375,10.0255517578,0.1,0.0,0.0,0.0,0.1,0.0,0.0,0.0,0.1
1446039168429147612,34,1446039168426033973,robocape,7.15052087066,7.78606395638,16.3113801651,0.0,10.0,0.0,0.0,0.0,10.0,0.0,0.0,0.0,10.0,0.085620629046,0.00692421883421,0.00585895439817,1.0,0.0,0.0,0.0,1.0,0.0,0.0,0.0,1.0,0.280217285156,0.605939941406,9.99082397461,0.1,0.0,0.0,0.0,0.1,0.0,0.0,0.0,0.1
1446039168461173820,35,1446039168458123922,robocape,7.14387874291,7.78981501252,16.2987936256,0.0,10.0,0.0,0.0,0.0,10.0,0.0,0.0,0.0,10.0,0.0031957933081,0.00958737992429,0.00852211548825,1.0,0.0,0.0,0.0,1.0,0.0,0.0,0.0,1.0,0.255069580078,0.649050292969,9.99561401367,0.1,0.0,0.0,0.0,0.1,0.0,0.0,0.0,0.1
1446039168496593528,36,1446039168492943048,robocape,6.97436460227,7.79732497689,16.2934226684,0.0,10.0,0.0,0.0,0.0,10.0,0.0,0.0,0.0,10.0,-0.082957467956,0.0117179087963,0.0114515926873,1.0,0.0,0.0,0.0,1.0,0.0,0.0,0.0,1.0,0.277822265625,0.399968261719,9.99082397461,0.1,0.0,0.0,0.0,0.1,0.0,0.0,0.0,0.1
1446039168528615362,37,1446039168525319099,robocape,6.7612847704,7.80431843426,16.2895439013,0.0,10.0,0.0,0.0,0.0,10.0,0.0,0.0,0.0,10.0,-0.10612696944,0.0114515926873,0.0121173829599,1.0,0.0,0.0,0.0,1.0,0.0,0.0,0.0,1.0,0.196391601563,0.0886157226563,10.0063916016,0.1,0.0,0.0,0.0,0.1,0.0,0.0,0.0,0.1
1446039168562336487,38,1446039168558814048,robocape,6.57963831742,7.80977562856,16.28296424,0.0,10.0,0.0,0.0,0.0,10.0,0.0,0.0,0.0,10.0,-0.0896153706812,0.0105194863058,0.0109189604693,1.0,0.0,0.0,0.0,1.0,0.0,0.0,0.0,1.0,0.205971679688,-0.271834716797,10.0051940918,0.1,0.0,0.0,0.0,0.1,0.0,0.0,0.0,0.1
1446039168596762403,39,1446039168593156099,robocape,6.48577279557,7.81375678715,16.2612155209,0.0,10.0,0.0,0.0,0.0,10.0,0.0,0.0,0.0,10.0,-0.0426105774413,0.00892158965177,0.0033289513626,1.0,0.0,0.0,0.0,1.0,0.0,0.0,0.0,1.0,0.174836425781,-0.546064453125,10.0303417969,0.1,0.0,0.0,0.0,0.1,0.0,0.0,0.0,0.1
1446039168628207487,40,1446039168624749898,robocape,6.74786845291,7.83885756605,16.0038831589,0.0,10.0,0.0,0.0,0.0,10.0,0.0,0.0,0.0,10.0,0.160455455677,0.00519316412565,-0.120641197381,1.0,0.0,0.0,0.0,1.0,0.0,0.0,0.0,1.0,0.0850231933594,-0.244291992188,10.1476977539,0.1,0.0,0.0,0.0,0.1,0.0,0.0,0.0,0.1
1446039168662036737,41,1446039168658382892,robocape,6.93490587609,7.85962935506,15.8090052608,0.0,10.0,0.0,0.0,0.0,10.0,0.0,0.0,0.0,10.0,0.117045929909,0.00652474467069,-0.0880174740271,1.0,0.0,0.0,0.0,1.0,0.0,0.0,0.0,1.0,0.409548339844,0.724493408203,9.97645385742,0.1,0.0,0.0,0.0,0.1,0.0,0.0,0.0,0.1
1446039168695989154,42,1446039168692333936,robocape,6.79183264975,7.87398912271,15.7310811228,0.0,10.0,0.0,0.0,0.0,10.0,0.0,0.0,0.0,10.0,-0.0643153403254,0.0103863282513,-0.0275637172823,1.0,0.0,0.0,0.0,1.0,0.0,0.0,0.0,1.0,0.173638916016,0.754431152344,9.83275268555,0.1,0.0,0.0,0.0,0.1,0.0,0.0,0.0,0.1
1446039168728356445,43,1446039168725085973,robocape,6.50565381065,7.88412878029,15.7095520724,0.0,10.0,0.0,0.0,0.0,10.0,0.0,0.0,0.0,10.0,-0.143544382755,0.0117179087963,0.00173105470855,1.0,0.0,0.0,0.0,1.0,0.0,0.0,0.0,1.0,0.281414794922,0.189206542969,9.98603393555,0.1,0.0,0.0,0.0,0.1,0.0,0.0,0.0,0.1
1446039168761077112,44,1446039168757769107,robocape,6.24561219292,7.88876890923,15.6943318967,0.0,10.0,0.0,0.0,0.0,10.0,0.0,0.0,0.0,10.0,-0.130494893414,0.00932106381528,0.00545948023466,1.0,0.0,0.0,0.0,1.0,0.0,0.0,0.0,1.0,0.144898681641,-0.449066162109,10.0291442871,0.1,0.0,0.0,0.0,0.1,0.0,0.0,0.0,0.1
1446039168794360237,45,1446039168791105985,robocape,6.1171759149,7.8921782077,15.637910274,0.0,10.0,0.0,0.0,0.0,10.0,0.0,0.0,0.0,10.0,-0.0587227020362,0.00639158661619,-0.0157126504315,1.0,0.0,0.0,0.0,1.0,0.0,0.0,0.0,1.0,0.178428955078,-0.322130126953,10.0471069336,0.1,0.0,0.0,0.0,0.1,0.0,0.0,0.0,0.1
1446039168828040237,46,1446039168824955940,robocape,6.0710705619,7.89409226609,15.6027605581,0.0,10.0,0.0,0.0,0.0,10.0,0.0,0.0,0.0,10.0,-0.0170442309765,0.00705737688871,-0.00426105774413,1.0,0.0,0.0,0.0,1.0,0.0,0.0,0.0,1.0,0.173638916016,-0.576002197266,10.1105749512,0.1,0.0,0.0,0.0,0.1,0.0,0.0,0.0,0.1
1446039168860891237,47,1446039168857811927,robocape,6.07368655553,7.89549317656,15.5906559235,0.0,10.0,0.0,0.0,0.0,10.0,0.0,0.0,0.0,10.0,0.00692421883421,0.00825579937925,0.00798948327024,1.0,0.0,0.0,0.0,1.0,0.0,0.0,0.0,1.0,0.166453857422,-0.510139160156,10.0542919922,0.1,0.0,0.0,0.0,0.1,0.0,0.0,0.0,0.1
1446039168894090404,48,1446039168890764951,robocape,6.24068472164,7.89522111157,15.5665764014,0.0,10.0,0.0,0.0,0.0,10.0,0.0,0.0,0.0,10.0,0.0941427445343,0.00692421883421,0.00226368692657,1.0,0.0,0.0,0.0,1.0,0.0,0.0,0.0,1.0,0.164058837891,-0.352067871094,10.0207617188,0.1,0.0,0.0,0.0,0.1,0.0,0.0,0.0,0.1
1446039168928219029,49,1446039168925187110,robocape,6.46447354469,7.89310874614,15.5414672151,0.0,10.0,0.0,0.0,0.0,10.0,0.0,0.0,0.0,10.0,0.124236464852,0.00599211245268,0.00199737081756,1.0,0.0,0.0,0.0,1.0,0.0,0.0,0.0,1.0,0.180823974609,-0.009580078125,10.0063916016,0.1,0.0,0.0,0.0,0.1,0.0,0.0,0.0,0.1
1446039168962427945,50,1446039168959327936,robocape,6.65497103597,7.88951527823,15.5189101395,0.0,10.0,0.0,0.0,0.0,10.0,0.0,0.0,0.0,10.0,0.106792759712,0.00532632218016,0.0033289513626,1.0,0.0,0.0,0.0,1.0,0.0,0.0,0.0,1.0,0.225131835938,0.307760009766,10.0087866211,0.1,0.0,0.0,0.0,0.1,0.0,0.0,0.0,0.1
1446039168993450320,51,1446039168990138053,robocape,6.59150414217,7.87689441034,15.6371798124,0.0,10.0,0.0,0.0,0.0,10.0,0.0,0.0,0.0,10.0,-0.0362189908251,0.00932106381528,0.0769653555033,1.0,0.0,0.0,0.0,1.0,0.0,0.0,0.0,1.0,0.330512695313,0.934057617188,9.89741821289,0.1,0.0,0.0,0.0,0.1,0.0,0.0,0.0,0.1
1446039169026131070,52,1446039169023077011,robocape,6.35663150355,7.84683700152,15.9453553627,0.0,10.0,0.0,0.0,0.0,10.0,0.0,0.0,0.0,10.0,-0.139416483066,0.0118510668509,0.177366528599,1.0,0.0,0.0,0.0,1.0,0.0,0.0,0.0,1.0,0.177231445313,-0.698148193359,10.1357226563,0.1,0.0,0.0,0.0,0.1,0.0,0.0,0.0,0.1
1446039169060741070,53,1446039169057715892,robocape,6.53374580107,7.83144182639,16.0424406059,0.0,10.0,0.0,0.0,0.0,10.0,0.0,0.0,0.0,10.0,0.0914795834442,0.0067910607797,0.067377975579,1.0,0.0,0.0,0.0,1.0,0.0,0.0,0.0,1.0,-0.0443078613281,-0.875379638672,10.0866247559,0.1,0.0,0.0,0.0,0.1,0.0,0.0,0.0,0.1
1446039169093262320,54,1446039169090066909,robocape,6.90285766332,7.81804220411,16.0353838941,0.0,10.0,0.0,0.0,0.0,10.0,0.0,0.0,0.0,10.0,0.199737081756,0.00159789665405,0.0133158054504,1.0,0.0,0.0,0.0,1.0,0.0,0.0,0.0,1.0,0.312550048828,-0.4215234375,9.99681152344,0.1,0.0,0.0,0.0,0.1,0.0,0.0,0.0,0.1
1446039169126515195,55,1446039169123400926,robocape,7.34857188388,7.80912828227,16.0065022207,0.0,10.0,0.0,0.0,0.0,10.0,0.0,0.0,0.0,10.0,0.241948185034,0.00266316109008,0.00199737081756,1.0,0.0,0.0,0.0,1.0,0.0,0.0,0.0,1.0,0.186811523438,0.0874182128906,10.055489502,0.1,0.0,0.0,0.0,0.1,0.0,0.0,0.0,0.1
1446039169159488945,56,1446039169156379938,robocape,7.78550785397,7.8212185424,15.8163443413,0.0,10.0,0.0,0.0,0.0,10.0,0.0,0.0,0.0,10.0,0.248739245813,0.00173105470855,-0.0838895743375,1.0,0.0,0.0,0.0,1.0,0.0,0.0,0.0,1.0,0.166453857422,1.05740112305,9.98962646484,0.1,0.0,0.0,0.0,0.1,0.0,0.0,0.0,0.1
1446039169192690279,57,1446039169189415931,robocape,7.92154018586,7.84149380762,15.6608847145,0.0,10.0,0.0,0.0,0.0,10.0,0.0,0.0,0.0,10.0,0.0885501062451,0.00759000910673,-0.0675111336335,1.0,0.0,0.0,0.0,1.0,0.0,0.0,0.0,1.0,0.426313476563,1.58191040039,9.90819580078,0.1,0.0,0.0,0.0,0.1,0.0,0.0,0.0,0.1
1446039169224983779,58,1446039169221946001,robocape,7.6674243603,7.86391586429,15.598264128,0.0,10.0,0.0,0.0,0.0,10.0,0.0,0.0,0.0,10.0,-0.122904884307,0.0149137021044,-0.0207726565026,1.0,0.0,0.0,0.0,1.0,0.0,0.0,0.0,1.0,0.250279541016,1.16158447266,9.97286132813,0.1,0.0,0.0,0.0,0.1,0.0,0.0,0.0,0.1
1446039169259399070,59,1446039169255908012,robocape,7.22617835256,7.8886063114,15.5320131451,0.0,10.0,0.0,0.0,0.0,10.0,0.0,0.0,0.0,10.0,-0.221308686586,0.015579492377,-0.0235689756472,1.0,0.0,0.0,0.0,1.0,0.0,0.0,0.0,1.0,0.275427246094,0.450263671875,9.99321899414,0.1,0.0,0.0,0.0,0.1,0.0,0.0,0.0,0.1
1446039169292412612,60,1446039169289154052,robocape,6.74840727761,7.90471191301,15.471992101,0.0,10.0,0.0,0.0,0.0,10.0,0.0,0.0,0.0,10.0,-0.241282394761,0.0117179087963,-0.0198405501211,1.0,0.0,0.0,0.0,1.0,0.0,0.0,0.0,1.0,0.183218994141,-0.193996582031,9.98363891602,0.1,0.0,0.0,0.0,0.1,0.0,0.0,0.0,0.1
1446039169324895445,61,1446039169321816921,robocape,6.35394170341,7.90854732488,15.4371183238,0.0,10.0,0.0,0.0,0.0,10.0,0.0,0.0,0.0,10.0,-0.199603923701,0.00732369299772,-0.00559263828917,1.0,0.0,0.0,0.0,1.0,0.0,0.0,0.0,1.0,0.207169189453,-0.392783203125,10.0063916016,0.1,0.0,0.0,0.0,0.1,0.0,0.0,0.0,0.1
1446039169361723237,62,1446039169358668088,robocape,6.10930732669,7.90811915402,15.3808323457,0.0,10.0,0.0,0.0,0.0,10.0,0.0,0.0,0.0,10.0,-0.119709090999,0.00412789968962,-0.016112124595,1.0,0.0,0.0,0.0,1.0,0.0,0.0,0.0,1.0,0.0419128417969,-0.737666015625,10.0363293457,0.1,0.0,0.0,0.0,0.1,0.0,0.0,0.0,0.1
1446039169392483904,63,1446039169389120101,robocape,5.98490134492,7.90335641171,15.3934527368,0.0,10.0,0.0,0.0,0.0,10.0,0.0,0.0,0.0,10.0,-0.0615190211808,0.00625842856169,0.0206394984481,1.0,0.0,0.0,0.0,1.0,0.0,0.0,0.0,1.0,0.257464599609,-0.590372314453,10.0938098145,0.1,0.0,0.0,0.0,0.1,0.0,0.0,0.0,0.1
1446039169424737529,64,1446039169421715974,robocape,5.92823323684,7.86912351987,15.6319638852,0.0,10.0,0.0,0.0,0.0,10.0,0.0,0.0,0.0,10.0,-0.0416784710597,0.00426105774413,0.141147537774,1.0,0.0,0.0,0.0,1.0,0.0,0.0,0.0,1.0,0.239501953125,-1.36276611328,10.0495019531,0.1,0.0,0.0,0.0,0.1,0.0,0.0,0.0,0.1
1446039169458604404,65,1446039169455291032,robocape,6.31660915624,7.85805634486,15.7350999057,0.0,10.0,0.0,0.0,0.0,10.0,0.0,0.0,0.0,10.0,0.201601294519,0.00932106381528,0.0704406108326,1.0,0.0,0.0,0.0,1.0,0.0,0.0,0.0,1.0,0.0922082519531,-1.15439941406,10.0339343262,0.1,0.0,0.0,0.0,0.1,0.0,0.0,0.0,0.1
1446039169491800571,66,1446039169488588094,robocape,6.85707934391,7.83092282595,15.8171223489,0.0,10.0,0.0,0.0,0.0,10.0,0.0,0.0,0.0,10.0,0.283493498039,0.000399474163512,0.0609863889628,1.0,0.0,0.0,0.0,1.0,0.0,0.0,0.0,1.0,0.0143701171875,-0.240699462891,10.024354248,0.1,0.0,0.0,0.0,0.1,0.0,0.0,0.0,0.1
1446039169525113071,67,1446039169522027969,robocape,7.46065282785,7.81640879574,15.8319706836,0.0,10.0,0.0,0.0,0.0,10.0,0.0,0.0,0.0,10.0,0.321976175791,0.00306263525359,0.0255663464648,1.0,0.0,0.0,0.0,1.0,0.0,0.0,0.0,1.0,0.318537597656,0.264649658203,10.0087866211,0.1,0.0,0.0,0.0,0.1,0.0,0.0,0.0,0.1
1446039169558537696,68,1446039169555474996,robocape,7.8752149135,7.80239611033,15.8463881087,0.0,10.0,0.0,0.0,0.0,10.0,0.0,0.0,0.0,10.0,0.223306057403,0.0031957933081,0.0249005561922,1.0,0.0,0.0,0.0,1.0,0.0,0.0,0.0,1.0,0.215551757813,1.04183349609,9.99441650391,0.1,0.0,0.0,0.0,0.1,0.0,0.0,0.0,0.1
1446039169591869321,69,1446039169588639974,robocape,8.04891022257,7.79636186378,15.8499560155,0.0,10.0,0.0,0.0,0.0,10.0,0.0,0.0,0.0,10.0,0.0977380120059,0.00612527050718,0.0178431793035,1.0,0.0,0.0,0.0,1.0,0.0,0.0,0.0,1.0,0.378413085938,1.22625,9.96926879883,0.1,0.0,0.0,0.0,0.1,0.0,0.0,0.0,0.1
1446039169624925654,70,1446039169621889114,robocape,7.96451342045,7.79970099449,15.8616223063,0.0,10.0,0.0,0.0,0.0,10.0,0.0,0.0,0.0,10.0,-0.0384826777516,0.0110521185238,0.0203731823391,1.0,0.0,0.0,0.0,1.0,0.0,0.0,0.0,1.0,0.263452148438,0.991538085938,10.0267492676,0.1,0.0,0.0,0.0,0.1,0.0,0.0,0.0,0.1
1446039169658631987,71,1446039169655597925,robocape,7.64556852785,7.79511697331,15.9548853425,0.0,10.0,0.0,0.0,0.0,10.0,0.0,0.0,0.0,10.0,-0.167512832566,0.0125168571234,0.0627174436714,1.0,0.0,0.0,0.0,1.0,0.0,0.0,0.0,1.0,0.271834716797,0.948427734375,9.92017089844,0.1,0.0,0.0,0.0,0.1,0.0,0.0,0.0,0.1
1446039169692282487,72,1446039169689013004,robocape,7.1416170005,7.76846095842,16.1999777312,0.0,10.0,0.0,0.0,0.0,10.0,0.0,0.0,0.0,10.0,-0.275370856714,0.0111852765783,0.143278066646,1.0,0.0,0.0,0.0,1.0,0.0,0.0,0.0,1.0,0.296982421875,-0.0969982910156,10.0183666992,0.1,0.0,0.0,0.0,0.1,0.0,0.0,0.0,0.1
1446039169725123737,73,1446039169722107887,robocape,6.74010464352,7.71001122392,16.531847567,0.0,10.0,0.0,0.0,0.0,10.0,0.0,0.0,0.0,10.0,-0.227700273202,-0.000266316109008,0.191747598486,1.0,0.0,0.0,0.0,1.0,0.0,0.0,0.0,1.0,0.211959228516,-0.707728271484,10.0159716797,0.1,0.0,0.0,0.0,0.1,0.0,0.0,0.0,0.1
1446039169758525779,74,1446039169755502939,robocape,6.62989541948,7.64322891792,16.8699349766,0.0,10.0,0.0,0.0,0.0,10.0,0.0,0.0,0.0,10.0,-0.0751011427402,-0.00439421579863,0.19720707872,1.0,0.0,0.0,0.0,1.0,0.0,0.0,0.0,1.0,0.0706530761719,-1.59029296875,10.0842297363,0.1,0.0,0.0,0.0,0.1,0.0,0.0,0.0,0.1
1446039169791857154,75,1446039169788791894,robocape,7.02506228602,7.59347889274,17.0488402067,0.0,10.0,0.0,0.0,0.0,10.0,0.0,0.0,0.0,10.0,0.20133497841,-0.00479368996214,0.114782242982,1.0,0.0,0.0,0.0,1.0,0.0,0.0,0.0,1.0,0.106578369141,-1.49568969727,10.0626745605,0.1,0.0,0.0,0.0,0.1,0.0,0.0,0.0,0.1
1446039169824751571,76,1446039169821742057,robocape,7.74230269291,7.55183696819,17.0978827281,0.0,10.0,0.0,0.0,0.0,10.0,0.0,0.0,0.0,10.0,0.3798999295,-0.00825579937925,0.0476705835124,1.0,0.0,0.0,0.0,1.0,0.0,0.0,0.0,1.0,-0.0490979003906,-0.732875976563,10.0231567383,0.1,0.0,0.0,0.0,0.1,0.0,0.0,0.0,0.1
1446039169858236321,77,1446039169855206012,robocape,8.61653839995,7.51401201594,17.111833262,0.0,10.0,0.0,0.0,0.0,10.0,0.0,0.0,0.0,10.0,0.465920032709,-0.00798948327024,0.0303600364269,1.0,0.0,0.0,0.0,1.0,0.0,0.0,0.0,1.0,0.251477050781,0.209564208984,10.0291442871,0.1,0.0,0.0,0.0,0.1,0.0,0.0,0.0,0.1
1446039169891722862,78,1446039169888637065,robocape,9.38465595964,7.46538389103,17.1727148059,0.0,10.0,0.0,0.0,0.0,10.0,0.0,0.0,0.0,10.0,0.408395753164,-0.00918790576077,0.0561926990007,1.0,0.0,0.0,0.0,1.0,0.0,0.0,0.0,1.0,0.417930908203,1.18673217773,9.96567626953,0.1,0.0,0.0,0.0,0.1,0.0,0.0,0.0,0.1
1446039169925045237,79,1446039169921879053,robocape,9.85633039768,7.43394648316,17.1886715896,0.0,10.0,0.0,0.0,0.0,10.0,0.0,0.0,0.0,10.0,0.256062938811,-0.00452737385313,0.0303600364269,1.0,0.0,0.0,0.0,1.0,0.0,0.0,0.0,1.0,0.3448828125,1.44060424805,10.0051940918,0.1,0.0,0.0,0.0,0.1,0.0,0.0,0.0,0.1
1446039169958615446,80,1446039169955312967,robocape,9.99413244206,7.42806408449,17.1745905401,0.0,10.0,0.0,0.0,0.0,10.0,0.0,0.0,0.0,10.0,0.082424835738,0.00506000607115,0.0107858024148,1.0,0.0,0.0,0.0,1.0,0.0,0.0,0.0,1.0,0.444276123047,1.92918823242,9.93933105469,0.1,0.0,0.0,0.0,0.1,0.0,0.0,0.0,0.1
1446039169991929196,81,1446039169988491058,robocape,9.93516190908,7.46476213177,17.0211570399,0.0,10.0,0.0,0.0,0.0,10.0,0.0,0.0,0.0,10.0,-0.0125168571234,0.0131826473959,-0.0669785014155,1.0,0.0,0.0,0.0,1.0,0.0,0.0,0.0,1.0,0.353265380859,1.67651367188,10.1165625,0.1,0.0,0.0,0.0,0.1,0.0,0.0,0.0,0.1
1446039170025030362,82,1446039170021663904,robocape,9.55333831049,7.51966644012,16.8768144716,0.0,10.0,0.0,0.0,0.0,10.0,0.0,0.0,0.0,10.0,-0.183358641052,0.0227700273202,-0.065780078925,1.0,0.0,0.0,0.0,1.0,0.0,0.0,0.0,1.0,0.434696044922,1.68010620117,9.96447875977,0.1,0.0,0.0,0.0,0.1,0.0,0.0,0.0,0.1
1446039170058872987,83,1446039170055620908,robocape,8.96442887669,7.58907412915,16.7342429261,0.0,10.0,0.0,0.0,0.0,10.0,0.0,0.0,0.0,10.0,-0.292814561854,0.0304931944814,-0.06711165947,1.0,0.0,0.0,0.0,1.0,0.0,0.0,0.0,1.0,0.293389892578,0.215551757813,10.0590820312,0.1,0.0,0.0,0.0,0.1,0.0,0.0,0.0,0.1
1446039170091918821,84,1446039170088479042,robocape,8.54783911154,7.67464126888,16.4203637734,0.0,10.0,0.0,0.0,0.0,10.0,0.0,0.0,0.0,10.0,-0.191214966268,0.0255663464648,-0.15699334626,1.0,0.0,0.0,0.0,1.0,0.0,0.0,0.0,1.0,0.131726074219,-0.289797363281,9.96208374023,0.1,0.0,0.0,0.0,0.1,0.0,0.0,0.0,0.1
1446039170124939029,85,1446039170121767044,robocape,8.26458659763,7.74738546841,16.0995449169,0.0,10.0,0.0,0.0,0.0,10.0,0.0,0.0,0.0,10.0,-0.120641197381,0.0197073920666,-0.159123875132,1.0,0.0,0.0,0.0,1.0,0.0,0.0,0.0,1.0,0.198786621094,-0.0215551757813,9.95609619141,0.1,0.0,0.0,0.0,0.1,0.0,0.0,0.0,0.1
1446039170158730613,86,1446039170155307054,robocape,7.99151838168,7.79158092182,15.91593446,0.0,10.0,0.0,0.0,0.0,10.0,0.0,0.0,0.0,10.0,-0.124502780961,0.0165115987585,-0.085354312937,1.0,0.0,0.0,0.0,1.0,0.0,0.0,0.0,1.0,0.281414794922,-0.247884521484,9.98962646484,0.1,0.0,0.0,0.0,0.1,0.0,0.0,0.0,0.1
1446039170191865446,87,1446039170188576936,robocape,7.88552663589,7.83057373208,15.718595568,0.0,10.0,0.0,0.0,0.0,10.0,0.0,0.0,0.0,10.0,-0.0358195166616,0.0134489635049,-0.0916127414987,1.0,0.0,0.0,0.0,1.0,0.0,0.0,0.0,1.0,0.0910107421875,-0.490979003906,10.0566870117,0.1,0.0,0.0,0.0,0.1,0.0,0.0,0.0,0.1
1446039170224819446,88,1446039170221813917,robocape,8.00774999623,7.88585305262,15.3734755193,0.0,10.0,0.0,0.0,0.0,10.0,0.0,0.0,0.0,10.0,0.0942759025888,0.0110521185238,-0.169377045329,1.0,0.0,0.0,0.0,1.0,0.0,0.0,0.0,1.0,0.132923583984,-0.255069580078,10.0830322266,0.1,0.0,0.0,0.0,0.1,0.0,0.0,0.0,0.1
1446039170258737613,89,1446039170255295991,robocape,8.21976422919,7.94140549692,14.9266058536,0.0,10.0,0.0,0.0,0.0,10.0,0.0,0.0,0.0,10.0,0.148737546881,0.00292947719909,-0.222507109076,1.0,0.0,0.0,0.0,1.0,0.0,0.0,0.0,1.0,0.247884521484,0.765208740234,9.97046630859,0.1,0.0,0.0,0.0,0.1,0.0,0.0,0.0,0.1
1446039170291856696,90,1446039170288729906,robocape,8.21719135833,7.99559657561,14.5066991672,0.0,10.0,0.0,0.0,0.0,10.0,0.0,0.0,0.0,10.0,0.034354778062,0.0034621094171,-0.209457619735,1.0,0.0,0.0,0.0,1.0,0.0,0.0,0.0,1.0,0.298179931641,1.42982666016,9.97884887695,0.1,0.0,0.0,0.0,0.1,0.0,0.0,0.0,0.1
1446039170331885946,91,1446039170322902917,robocape,7.70016841126,8.0374481011,14.2559920543,0.0,10.0,0.0,0.0,0.0,10.0,0.0,0.0,0.0,10.0,-0.247940297486,0.00972053797879,-0.122638568198,1.0,0.0,0.0,0.0,1.0,0.0,0.0,0.0,1.0,0.366437988281,1.41306152344,9.85071533203,0.1,0.0,0.0,0.0,0.1,0.0,0.0,0.0,0.1
1446039170359801571,92,1446039170355717897,robocape,6.88011473154,8.06191683054,14.1784619982,0.0,10.0,0.0,0.0,0.0,10.0,0.0,0.0,0.0,10.0,-0.419714187796,0.0137152796139,-0.03222424919,1.0,0.0,0.0,0.0,1.0,0.0,0.0,0.0,1.0,0.3065625,0.512534179688,9.95849121094,0.1,0.0,0.0,0.0,0.1,0.0,0.0,0.0,0.1
1446039170393182988,93,1446039170390043973,robocape,6.09162850976,8.06156662361,14.1384116796,0.0,10.0,0.0,0.0,0.0,10.0,0.0,0.0,0.0,10.0,-0.406265224292,0.00386158358061,-0.0107858024148,1.0,0.0,0.0,0.0,1.0,0.0,0.0,0.0,1.0,0.136516113281,-0.675395507813,10.060279541,0.1,0.0,0.0,0.0,0.1,0.0,0.0,0.0,0.1
1446039170426667529,94,1446039170423100948,robocape,5.43432334791,8.03504652513,14.1443425952,0.0,10.0,0.0,0.0,0.0,10.0,0.0,0.0,0.0,10.0,-0.341150935639,-0.0066579027252,0.0151800182135,1.0,0.0,0.0,0.0,1.0,0.0,0.0,0.0,1.0,0.0383203125,-0.6514453125,10.2626586914,0.1,0.0,0.0,0.0,0.1,0.0,0.0,0.0,0.1
1446039170460448071,95,1446039170456476926,robocape,4.90794599269,7.99529430959,14.2529503973,0.0,10.0,0.0,0.0,0.0,10.0,0.0,0.0,0.0,10.0,-0.280164546676,-0.00812264132474,0.0700411366691,1.0,0.0,0.0,0.0,1.0,0.0,0.0,0.0,1.0,0.0131726074219,-1.16278198242,10.0710571289,0.1,0.0,0.0,0.0,0.1,0.0,0.0,0.0,0.1
1446039170492260529,96,1446039170489037036,robocape,4.61005944938,7.96923328597,14.4388398016,0.0,10.0,0.0,0.0,0.0,10.0,0.0,0.0,0.0,10.0,-0.166048093966,0.00266316109008,0.110787501347,1.0,0.0,0.0,0.0,1.0,0.0,0.0,0.0,1.0,0.0706530761719,-0.805924072266,10.0111816406,0.1,0.0,0.0,0.0,0.1,0.0,0.0,0.0,0.1
1446039170526028863,97,1446039170522702932,robocape,4.28892482873,7.91644406046,14.9273246018,0.0,10.0,0.0,0.0,0.0,10.0,0.0,0.0,0.0,10.0,-0.19987023981,0.00173105470855,0.271242957025,1.0,0.0,0.0,0.0,1.0,0.0,0.0,0.0,1.0,0.106578369141,-0.773591308594,9.96447875977,0.1,0.0,0.0,0.0,0.1,0.0,0.0,0.0,0.1
1446039170560571946,98,1446039170557080030,robocape,4.34619625592,7.87409573798,15.3259086576,0.0,10.0,0.0,0.0,0.0,10.0,0.0,0.0,0.0,10.0,0.00506000607115,0.0031957933081,0.225170270166,1.0,0.0,0.0,0.0,1.0,0.0,0.0,0.0,1.0,0.378413085938,-2.25970092773,9.96567626953,0.1,0.0,0.0,0.0,0.1,0.0,0.0,0.0,0.1
1446039170596305363,99,1446039170592027902,robocape,4.91226961799,7.86128173147,15.4922375722,0.0,10.0,0.0,0.0,0.0,10.0,0.0,0.0,0.0,10.0,0.288686662165,0.00958737992429,0.103330650295,1.0,0.0,0.0,0.0,1.0,0.0,0.0,0.0,1.0,0.155676269531,-1.77111694336,10.0866247559,0.1,0.0,0.0,0.0,0.1,0.0,0.0,0.0,0.1
1446039170628457946,100,1446039170624869108,robocape,5.95197759253,7.88292250215,15.4202214394,0.0,10.0,0.0,0.0,0.0,10.0,0.0,0.0,0.0,10.0,0.554736455064,0.0167779148675,-0.0222373951022,1.0,0.0,0.0,0.0,1.0,0.0,0.0,0.0,1.0,0.164058837891,-1.74237670898,10.0267492676,0.1,0.0,0.0,0.0,0.1,0.0,0.0,0.0,0.1
1446039170663632071,101,1446039170659250974,robocape,7.37598643882,7.92189756352,15.1608349303,0.0,10.0,0.0,0.0,0.0,10.0,0.0,0.0,0.0,10.0,0.771118293632,0.0139815957229,-0.120108565163,1.0,0.0,0.0,0.0,1.0,0.0,0.0,0.0,1.0,-0.318537597656,-0.532891845703,10.055489502,0.1,0.0,0.0,0.0,0.1,0.0,0.0,0.0,0.1
1446039170694681779,102,1446039170690593004,robocape,8.8521124824,7.92221716833,14.8382488053,0.0,10.0,0.0,0.0,0.0,10.0,0.0,0.0,0.0,10.0,0.805073597531,-0.0134489635049,-0.149403337153,1.0,0.0,0.0,0.0,1.0,0.0,0.0,0.0,1.0,0.137713623047,1.28852050781,9.87346801758,0.1,0.0,0.0,0.0,0.1,0.0,0.0,0.0,0.1
1446039170728743488,103,1446039170725121974,robocape,9.82804101031,7.92637532781,14.5927490577,0.0,10.0,0.0,0.0,0.0,10.0,0.0,0.0,0.0,10.0,0.538624330469,-0.00838895743375,-0.110254869129,1.0,0.0,0.0,0.0,1.0,0.0,0.0,0.0,1.0,0.677790527344,2.69798950195,9.90340576172,0.1,0.0,0.0,0.0,0.1,0.0,0.0,0.0,0.1
1446039170761671738,104,1446039170758476972,robocape,10.062527336,7.93437772155,14.42686372,0.0,10.0,0.0,0.0,0.0,10.0,0.0,0.0,0.0,10.0,0.143411224701,-0.00199737081756,-0.0723048235957,1.0,0.0,0.0,0.0,1.0,0.0,0.0,0.0,1.0,0.245489501953,3.01173706055,9.75611206055,0.1,0.0,0.0,0.0,0.1,0.0,0.0,0.0,0.1
1446039170796681780,105,1446039170792922019,robocape,9.72823726702,7.99307312983,14.1983783015,0.0,10.0,0.0,0.0,0.0,10.0,0.0,0.0,0.0,10.0,-0.152066498244,0.016644756813,-0.112119081892,1.0,0.0,0.0,0.0,1.0,0.0,0.0,0.0,1.0,0.543669433594,2.72792724609,9.84592529297,0.1,0.0,0.0,0.0,0.1,0.0,0.0,0.0,0.1
1446039170828429738,106,1446039170824769973,robocape,8.75323966249,8.06083917718,13.9935068982,0.0,10.0,0.0,0.0,0.0,10.0,0.0,0.0,0.0,10.0,-0.491486379174,0.0227700273202,-0.103596966404,1.0,0.0,0.0,0.0,1.0,0.0,0.0,0.0,1.0,0.427510986328,2.53033813477,9.68426147461,0.1,0.0,0.0,0.0,0.1,0.0,0.0,0.0,0.1
1446039170861812905,107,1446039170858588933,robocape,7.4470563778,8.08516937115,13.9988992544,0.0,10.0,0.0,0.0,0.0,10.0,0.0,0.0,0.0,10.0,-0.680837132679,0.017976337358,0.00825579937925,1.0,0.0,0.0,0.0,1.0,0.0,0.0,0.0,1.0,-0.0514929199219,0.578397216797,9.96088623047,0.1,0.0,0.0,0.0,0.1,0.0,0.0,0.0,0.1
1446039170895194905,108,1446039170890851020,robocape,6.12538149202,8.05147833915,14.0569743112,0.0,10.0,0.0,0.0,0.0,10.0,0.0,0.0,0.0,10.0,-0.693220831748,-0.00852211548825,0.0402137324602,1.0,0.0,0.0,0.0,1.0,0.0,0.0,0.0,1.0,0.09580078125,-0.658630371094,9.92376342773,0.1,0.0,0.0,0.0,0.1,0.0,0.0,0.0,0.1
1446039170929035488,109,1446039170925523996,robocape,4.98907338595,7.99169245988,14.2101095738,0.0,10.0,0.0,0.0,0.0,10.0,0.0,0.0,0.0,10.0,-0.603205986903,-0.016911072922,0.0924116898257,1.0,0.0,0.0,0.0,1.0,0.0,0.0,0.0,1.0,0.0167651367188,-1.06219116211,9.94771362305,0.1,0.0,0.0,0.0,0.1,0.0,0.0,0.0,0.1
1446039170962732030,110,1446039170959448099,robocape,4.14118737041,7.94742777191,14.2662288165,0.0,10.0,0.0,0.0,0.0,10.0,0.0,0.0,0.0,10.0,-0.44554685037,-0.0139815957229,0.0419447871687,1.0,0.0,0.0,0.0,1.0,0.0,0.0,0.0,1.0,-0.0239501953125,-1.96750854492,9.96208374023,0.1,0.0,0.0,0.0,0.1,0.0,0.0,0.0,0.1
1446039170996403946,111,1446039170992880105,robocape,3.73321223596,7.93521229201,14.2160663961,0.0,10.0,0.0,0.0,0.0,10.0,0.0,0.0,0.0,10.0,-0.207726565026,-0.00119842249054,-0.0139815957229,1.0,0.0,0.0,0.0,1.0,0.0,0.0,0.0,1.0,0.184416503906,-2.08127197266,10.0339343262,0.1,0.0,0.0,0.0,0.1,0.0,0.0,0.0,0.1
1446039171027919155,112,1446039171024518966,robocape,3.69228149023,7.93780947766,14.2053974179,0.0,10.0,0.0,0.0,0.0,10.0,0.0,0.0,0.0,10.0,-0.018242653467,0.00852211548825,0.00692421883421,1.0,0.0,0.0,0.0,1.0,0.0,0.0,0.0,1.0,0.232316894531,-2.12078979492,10.0878222656,0.1,0.0,0.0,0.0,0.1,0.0,0.0,0.0,0.1
1446039171062034196,113,1446039171058815002,robocape,4.01140527451,7.9695628869,14.1797502921,0.0,10.0,0.0,0.0,0.0,10.0,0.0,0.0,0.0,10.0,0.17177389031,0.0235689756472,-0.00133158054504,1.0,0.0,0.0,0.0,1.0,0.0,0.0,0.0,1.0,0.473016357422,-1.63939086914,10.0542919922,0.1,0.0,0.0,0.0,0.1,0.0,0.0,0.0,0.1
1446039171094414571,114,1446039171091026067,robocape,4.57588011671,7.99171484989,14.2060333679,0.0,10.0,0.0,0.0,0.0,10.0,0.0,0.0,0.0,10.0,0.297208777653,0.0210389726116,0.0266316109008,1.0,0.0,0.0,0.0,1.0,0.0,0.0,0.0,1.0,-0.0407153320313,-0.562829589844,9.99202148437,0.1,0.0,0.0,0.0,0.1,0.0,0.0,0.0,0.1
1446039171128156405,115,1446039171125036954,robocape,4.95956594973,7.96826769938,14.5682976888,0.0,10.0,0.0,0.0,0.0,10.0,0.0,0.0,0.0,10.0,0.179097583308,0.0133158054504,0.204797087827,1.0,0.0,0.0,0.0,1.0,0.0,0.0,0.0,1.0,0.136516113281,-0.437091064453,9.98004638672,0.1,0.0,0.0,0.0,0.1,0.0,0.0,0.0,0.1
1446039171161900196,116,1446039171158644914,robocape,5.50770638568,7.93891117866,14.9521404645,0.0,10.0,0.0,0.0,0.0,10.0,0.0,0.0,0.0,10.0,0.264585054299,0.0133158054504,0.217447103005,1.0,0.0,0.0,0.0,1.0,0.0,0.0,0.0,1.0,0.355660400391,-1.28253295898,10.0147741699,0.1,0.0,0.0,0.0,0.1,0.0,0.0,0.0,0.1
1446039171194519238,117,1446039171191056013,robocape,6.54120028708,7.93651615289,15.0749719411,0.0,10.0,0.0,0.0,0.0,10.0,0.0,0.0,0.0,10.0,0.538757488523,0.0157126504315,0.0809600971384,1.0,0.0,0.0,0.0,1.0,0.0,0.0,0.0,1.0,0.120948486328,-0.954415283203,10.0674645996,0.1,0.0,0.0,0.0,0.1,0.0,0.0,0.0,0.1
1446039171227513571,118,1446039171224431037,robocape,7.85826337901,7.96302536816,14.8151161561,0.0,10.0,0.0,0.0,0.0,10.0,0.0,0.0,0.0,10.0,0.715857701013,0.00639158661619,-0.119842249054,1.0,0.0,0.0,0.0,1.0,0.0,0.0,0.0,1.0,-0.3065625,-0.565224609375,10.2566711426,0.1,0.0,0.0,0.0,0.1,0.0,0.0,0.0,0.1
1446039171261349196,119,1446039171258136034,robocape,9.3371977544,7.96711563767,14.4247301909,0.0,10.0,0.0,0.0,0.0,10.0,0.0,0.0,0.0,10.0,0.81213097442,-0.0181094954125,-0.184823379651,1.0,0.0,0.0,0.0,1.0,0.0,0.0,0.0,1.0,0.458646240234,1.67052612305,9.87466552734,0.1,0.0,0.0,0.0,0.1,0.0,0.0,0.0,0.1
1446039171294322571,120,1446039171290832042,robocape,9.96034142792,7.96885620544,14.2289682017,0.0,10.0,0.0,0.0,0.0,10.0,0.0,0.0,0.0,10.0,0.349939367236,-0.00652474467069,-0.0858869451551,1.0,0.0,0.0,0.0,1.0,0.0,0.0,0.0,1.0,0.374820556641,3.20573364258,9.79682739258,0.1,0.0,0.0,0.0,0.1,0.0,0.0,0.0,0.1
1446039171333673655,121,1446039171323327064,robocape,9.86492486665,7.99882730848,14.0856674549,0.0,10.0,0.0,0.0,0.0,10.0,0.0,0.0,0.0,10.0,-0.031957933081,0.0105194863058,-0.0644484983799,1.0,0.0,0.0,0.0,1.0,0.0,0.0,0.0,1.0,0.410745849609,2.89557861328,9.84592529297,0.1,0.0,0.0,0.0,0.1,0.0,0.0,0.0,0.1
1446039171361112405,122,1446039171357999086,robocape,9.22644900738,8.05759880947,13.8172146457,0.0,10.0,0.0,0.0,0.0,10.0,0.0,0.0,0.0,10.0,-0.309725634776,0.0127831732324,-0.134489635049,1.0,0.0,0.0,0.0,1.0,0.0,0.0,0.0,1.0,0.366437988281,2.22976318359,9.85909790039,0.1,0.0,0.0,0.0,0.1,0.0,0.0,0.0,0.1
1446039171393022821,123,1446039171389712095,robocape,8.03512553062,8.11291946988,13.6673602285,0.0,10.0,0.0,0.0,0.0,10.0,0.0,0.0,0.0,10.0,-0.60933125741,0.0214384467751,-0.0748348266312,1.0,0.0,0.0,0.0,1.0,0.0,0.0,0.0,1.0,0.261057128906,1.49209716797,9.76090209961,0.1,0.0,0.0,0.0,0.1,0.0,0.0,0.0,0.1
1446039171426141571,124,1446039171423049926,robocape,6.68015394396,8.10476574106,13.6935469017,0.0,10.0,0.0,0.0,0.0,10.0,0.0,0.0,0.0,10.0,-0.708267691907,0.00253000303558,0.0213052887206,1.0,0.0,0.0,0.0,1.0,0.0,0.0,0.0,1.0,0.0610729980469,-0.150886230469,10.1716479492,0.1,0.0,0.0,0.0,0.1,0.0,0.0,0.0,0.1
1446039171459219446,125,1446039171455974102,robocape,5.45161097098,8.04842334272,13.7546611709,0.0,10.0,0.0,0.0,0.0,10.0,0.0,0.0,0.0,10.0,-0.644884457963,-0.0202400242846,0.0432763677138,1.0,0.0,0.0,0.0,1.0,0.0,0.0,0.0,1.0,0.0646655273438,-0.716110839844,10.100994873,0.1,0.0,0.0,0.0,0.1,0.0,0.0,0.0,0.1
1446039171492593988,126,1446039171489119052,robocape,4.38094487722,8.00080836227,13.8306797325,0.0,10.0,0.0,0.0,0.0,10.0,0.0,0.0,0.0,10.0,-0.563658044715,-0.0150468601589,0.0513990090385,1.0,0.0,0.0,0.0,1.0,0.0,0.0,0.0,1.0,0.00718505859375,-1.12805419922,10.0063916016,0.1,0.0,0.0,0.0,0.1,0.0,0.0,0.0,0.1
1446039171525159697,127,1446039171522073030,robocape,3.7323308037,7.97047804063,13.7973907262,0.0,10.0,0.0,0.0,0.0,10.0,0.0,0.0,0.0,10.0,-0.335025665132,-0.0103863282513,-0.00545948023466,1.0,0.0,0.0,0.0,1.0,0.0,0.0,0.0,1.0,0.0622705078125,-2.00702636719,10.0974023437,0.1,0.0,0.0,0.0,0.1,0.0,0.0,0.0,0.1
1446039171558913905,128,1446039171555716037,robocape,3.51326182756,7.95878844877,13.7473363423,0.0,10.0,0.0,0.0,0.0,10.0,0.0,0.0,0.0,10.0,-0.108923288584,-0.00066579027252,-0.0141147537774,1.0,0.0,0.0,0.0,1.0,0.0,0.0,0.0,1.0,0.331710205078,-1.84536254883,10.0363293457,0.1,0.0,0.0,0.0,0.1,0.0,0.0,0.0,0.1
1446039171592519947,129,1446039171589302062,robocape,3.62339001919,7.97029694483,13.7309267511,0.0,10.0,0.0,0.0,0.0,10.0,0.0,0.0,0.0,10.0,0.0612527050718,0.0130494893414,0.0033289513626,1.0,0.0,0.0,0.0,1.0,0.0,0.0,0.0,1.0,0.547261962891,-1.76872192383,10.0255517578,0.1,0.0,0.0,0.0,0.1,0.0,0.0,0.0,0.1
1446039171624878905,130,1446039171621829032,robocape,4.00735647026,8.00050926569,13.7055613378,0.0,10.0,0.0,0.0,0.0,10.0,0.0,0.0,0.0,10.0,0.205729194209,0.0227700273202,-0.00159789665405,1.0,0.0,0.0,0.0,1.0,0.0,0.0,0.0,1.0,0.383203125,-1.32803833008,10.0710571289,0.1,0.0,0.0,0.0,0.1,0.0,0.0,0.0,0.1
1446039171658340197,131,1446039171655092954,robocape,4.50438333318,8.00680875005,13.7615226474,0.0,10.0,0.0,0.0,0.0,10.0,0.0,0.0,0.0,10.0,0.259658206283,0.0138484376684,0.0420779452233,1.0,0.0,0.0,0.0,1.0,0.0,0.0,0.0,1.0,-0.0275427246094,-0.523311767578,10.0291442871,0.1,0.0,0.0,0.0,0.1,0.0,0.0,0.0,0.1
1446039171691879322,132,1446039171688641071,robocape,5.09407859069,8.03176747453,13.7680641125,0.0,10.0,0.0,0.0,0.0,10.0,0.0,0.0,0.0,10.0,0.312388795866,0.0218379209386,0.0157126504315,1.0,0.0,0.0,0.0,1.0,0.0,0.0,0.0,1.0,-0.01916015625,-0.777183837891,10.0842297363,0.1,0.0,0.0,0.0,0.1,0.0,0.0,0.0,0.1
1446039171724938738,133,1446039171721935033,robocape,5.8985515756,8.06614262354,13.7343400607,0.0,10.0,0.0,0.0,0.0,10.0,0.0,0.0,0.0,10.0,0.428768935503,0.0251668723012,-0.00532632218016,1.0,0.0,0.0,0.0,1.0,0.0,0.0,0.0,1.0,0.171243896484,-0.905317382813,10.0075891113,0.1,0.0,0.0,0.0,0.1,0.0,0.0,0.0,0.1
1446039171758315780,134,1446039171755148887,robocape,6.48022397868,8.06544604468,13.9652165056,0.0,10.0,0.0,0.0,0.0,10.0,0.0,0.0,0.0,10.0,0.29387982629,0.0226368692657,0.134622793104,1.0,0.0,0.0,0.0,1.0,0.0,0.0,0.0,1.0,0.149688720703,0.652642822266,9.87346801758,0.1,0.0,0.0,0.0,0.1,0.0,0.0,0.0,0.1
1446039171792150322,135,1446039171789022922,robocape,6.90819445302,8.0207105694,14.4491855932,0.0,10.0,0.0,0.0,0.0,10.0,0.0,0.0,0.0,10.0,0.19600865623,0.017177389031,0.269645060371,1.0,0.0,0.0,0.0,1.0,0.0,0.0,0.0,1.0,0.572409667969,-0.435893554688,9.95370117188,0.1,0.0,0.0,0.0,0.1,0.0,0.0,0.0,0.1
1446039171825008155,136,1446039171821996927,robocape,7.50052482088,7.97360134881,14.7995568223,0.0,10.0,0.0,0.0,0.0,10.0,0.0,0.0,0.0,10.0,0.2926814038,0.00945422186978,0.20133497841,1.0,0.0,0.0,0.0,1.0,0.0,0.0,0.0,1.0,-0.0514929199219,-0.0490979003906,10.1345251465,0.1,0.0,0.0,0.0,0.1,0.0,0.0,0.0,0.1
1446039171858561113,137,1446039171855283021,robocape,8.1462681668,7.91541773908,15.0378298655,0.0,10.0,0.0,0.0,0.0,10.0,0.0,0.0,0.0,10.0,0.329566184897,-0.00239684498107,0.144476489137,1.0,0.0,0.0,0.0,1.0,0.0,0.0,0.0,1.0,0.413140869141,0.289797363281,9.95370117188,0.1,0.0,0.0,0.0,0.1,0.0,0.0,0.0,0.1
1446039171891957697,138,1446039171888868093,robocape,8.79059441841,7.8910045081,15.0736892423,0.0,10.0,0.0,0.0,0.0,10.0,0.0,0.0,0.0,10.0,0.343680938675,0.000399474163512,0.0370179391521,1.0,0.0,0.0,0.0,1.0,0.0,0.0,0.0,1.0,0.21076171875,0.601149902344,10.0483044434,0.1,0.0,0.0,0.0,0.1,0.0,0.0,0.0,0.1
1446039171925119572,139,1446039171922020912,robocape,9.29959047752,7.88371327908,14.9261344262,0.0,10.0,0.0,0.0,0.0,10.0,0.0,0.0,0.0,10.0,0.285624026911,-0.00652474467069,-0.0601874406358,1.0,0.0,0.0,0.0,1.0,0.0,0.0,0.0,1.0,0.234711914063,1.78309204102,10.0063916016,0.1,0.0,0.0,0.0,0.1,0.0,0.0,0.0,0.1
1446039171958573072,140,1446039171955348968,robocape,9.3413570169,7.90147057183,14.8338145693,0.0,10.0,0.0,0.0,0.0,10.0,0.0,0.0,0.0,10.0,0.0362189908251,0.00985369603329,-0.0355532005526,1.0,0.0,0.0,0.0,1.0,0.0,0.0,0.0,1.0,0.488583984375,2.18545532227,9.9249609375,0.1,0.0,0.0,0.0,0.1,0.0,0.0,0.0,0.1
1446039171991713822,141,1446039171988384008,robocape,8.95481336814,7.92265080494,14.7509265344,0.0,10.0,0.0,0.0,0.0,10.0,0.0,0.0,0.0,10.0,-0.190149701832,0.0113184346328,-0.033023197517,1.0,0.0,0.0,0.0,1.0,0.0,0.0,0.0,1.0,0.160466308594,1.52083740234,9.89143066406,0.1,0.0,0.0,0.0,0.1,0.0,0.0,0.0,0.1
1446039172025021405,142,1446039172021962881,robocape,8.3326524711,7.95784596804,14.689694295,0.0,10.0,0.0,0.0,0.0,10.0,0.0,0.0,0.0,10.0,-0.315984063338,0.0201068662301,-0.0238352917562,1.0,0.0,0.0,0.0,1.0,0.0,0.0,0.0,1.0,0.290994873047,0.655037841797,9.98842895508,0.1,0.0,0.0,0.0,0.1,0.0,0.0,0.0,0.1
1446039172060025655,143,1446039172056690931,robocape,7.67782907215,7.98353776965,14.6417610875,0.0,10.0,0.0,0.0,0.0,10.0,0.0,0.0,0.0,10.0,-0.334493032914,0.0165115987585,-0.016112124595,1.0,0.0,0.0,0.0,1.0,0.0,0.0,0.0,1.0,0.214354248047,-0.105380859375,10.0063916016,0.1,0.0,0.0,0.0,0.1,0.0,0.0,0.0,0.1
1446039172092005322,144,1446039172088640928,robocape,7.15840601159,7.99656711379,14.558502141,0.0,10.0,0.0,0.0,0.0,10.0,0.0,0.0,0.0,10.0,-0.261256102937,0.00798948327024,-0.033023197517,1.0,0.0,0.0,0.0,1.0,0.0,0.0,0.0,1.0,0.146096191406,-0.599952392578,10.060279541,0.1,0.0,0.0,0.0,0.1,0.0,0.0,0.0,0.1
1446039172124804155,145,1446039172121748924,robocape,6.83383874122,7.99137297648,14.523954028,0.0,10.0,0.0,0.0,0.0,10.0,0.0,0.0,0.0,10.0,-0.162585984549,0.00253000303558,-0.00572579634367,1.0,0.0,0.0,0.0,1.0,0.0,0.0,0.0,1.0,0.255069580078,-0.556842041016,9.98842895508,0.1,0.0,0.0,0.0,0.1,0.0,0.0,0.0,0.1
1446039172158103988,146,1446039172155050992,robocape,6.57269801318,7.97160750747,14.5662735006,0.0,10.0,0.0,0.0,0.0,10.0,0.0,0.0,0.0,10.0,-0.134889109213,0.000133158054504,0.0355532005526,1.0,0.0,0.0,0.0,1.0,0.0,0.0,0.0,1.0,-0.138911132813,-0.261057128906,10.0734521484,0.1,0.0,0.0,0.0,0.1,0.0,0.0,0.0,0.1
1446039172191876405,147,1446039172188524007,robocape,6.54025535328,7.97402702526,14.6191244661,0.0,10.0,0.0,0.0,0.0,10.0,0.0,0.0,0.0,10.0,-0.015579492377,0.0127831732324,0.0406132066237,1.0,0.0,0.0,0.0,1.0,0.0,0.0,0.0,1.0,0.0251477050781,-1.29810058594,10.2327209473,0.1,0.0,0.0,0.0,0.1,0.0,0.0,0.0,0.1
1446039172225041989,148,1446039172222002029,robocape,6.94480978793,7.99934464236,14.439744177,0.0,10.0,0.0,0.0,0.0,10.0,0.0,0.0,0.0,10.0,0.230363434292,0.0103863282513,-0.0809600971384,1.0,0.0,0.0,0.0,1.0,0.0,0.0,0.0,1.0,0.189206542969,-1.06817871094,10.0495019531,0.1,0.0,0.0,0.0,0.1,0.0,0.0,0.0,0.1
1446039172258597239,149,1446039172255409955,robocape,7.56350884133,8.05588105434,14.0100654539,0.0,10.0,0.0,0.0,0.0,10.0,0.0,0.0,0.0,10.0,0.36099148576,0.00878843159726,-0.213186045261,1.0,0.0,0.0,0.0,1.0,0.0,0.0,0.0,1.0,-0.298179931641,0.358055419922,9.93334350586,0.1,0.0,0.0,0.0,0.1,0.0,0.0,0.0,0.1
1446039172292239697,150,1446039172288634061,robocape,8.0433513678,8.09844631941,13.5702286055,0.0,10.0,0.0,0.0,0.0,10.0,0.0,0.0,0.0,10.0,0.289485610492,-0.00146473859954,-0.218112893277,1.0,0.0,0.0,0.0,1.0,0.0,0.0,0.0,1.0,0.726888427734,1.19032470703,9.82197509766,0.1,0.0,0.0,0.0,0.1,0.0,0.0,0.0,0.1
1446039172325050822,151,1446039172321743011,robocape,8.17540254917,8.13776906331,13.2517876889,0.0,10.0,0.0,0.0,0.0,10.0,0.0,0.0,0.0,10.0,0.0985369603329,0.00439421579863,-0.156061239879,1.0,0.0,0.0,0.0,1.0,0.0,0.0,0.0,1.0,0.0538879394531,1.89326293945,10.0471069336,0.1,0.0,0.0,0.0,0.1,0.0,0.0,0.0,0.1
1446039172359720114,152,1446039172356515884,robocape,7.75398391429,8.16310554568,12.9964289426,0.0,10.0,0.0,0.0,0.0,10.0,0.0,0.0,0.0,10.0,-0.197073920666,0.000932106381528,-0.124502780961,1.0,0.0,0.0,0.0,1.0,0.0,0.0,0.0,1.0,0.275427246094,1.48131958008,9.92017089844,0.1,0.0,0.0,0.0,0.1,0.0,0.0,0.0,0.1
1446039172394297239,153,1446039172390611886,robocape,7.00403495819,8.17569743927,12.9488274679,0.0,10.0,0.0,0.0,0.0,10.0,0.0,0.0,0.0,10.0,-0.384959935571,0.00958737992429,-0.0167779148675,1.0,0.0,0.0,0.0,1.0,0.0,0.0,0.0,1.0,0.255069580078,0.560434570312,9.95489868164,0.1,0.0,0.0,0.0,0.1,0.0,0.0,0.0,0.1
1446039172425083697,154,1446039172421833992,robocape,6.17003748846,8.14543439829,12.9836424675,0.0,10.0,0.0,0.0,0.0,10.0,0.0,0.0,0.0,10.0,-0.435559996282,-0.00732369299772,0.0286289817184,1.0,0.0,0.0,0.0,1.0,0.0,0.0,0.0,1.0,0.331710205078,-0.204774169922,9.96807128906,0.1,0.0,0.0,0.0,0.1,0.0,0.0,0.0,0.1
1446039172458357614,155,1446039172455149888,robocape,5.41429979885,8.10561142253,13.0110140066,0.0,10.0,0.0,0.0,0.0,10.0,0.0,0.0,0.0,10.0,-0.394414157441,-0.0127831732324,0.0255663464648,1.0,0.0,0.0,0.0,1.0,0.0,0.0,0.0,1.0,-0.0898132324219,-0.610729980469,10.0506994629,0.1,0.0,0.0,0.0,0.1,0.0,0.0,0.0,0.1
1446039172491947614,156,1446039172488526105,robocape,4.76818348211,8.07079600036,13.0489001742,0.0,10.0,0.0,0.0,0.0,10.0,0.0,0.0,0.0,10.0,-0.338088300386,-0.00958737992429,0.0311589847539,1.0,0.0,0.0,0.0,1.0,0.0,0.0,0.0,1.0,-0.0047900390625,-0.808319091797,10.0303417969,0.1,0.0,0.0,0.0,0.1,0.0,0.0,0.0,0.1
1446039172525186239,157,1446039172522094011,robocape,4.2906820793,8.0509809971,13.0764096346,0.0,10.0,0.0,0.0,0.0,10.0,0.0,0.0,0.0,10.0,-0.249271878031,-0.00213052887206,0.0255663464648,1.0,0.0,0.0,0.0,1.0,0.0,0.0,0.0,1.0,0.2682421875,-0.924477539063,10.0698596191,0.1,0.0,0.0,0.0,0.1,0.0,0.0,0.0,0.1
1446039172558420739,158,1446039172555140018,robocape,4.01650483489,8.03942510807,13.0607227966,0.0,10.0,0.0,0.0,0.0,10.0,0.0,0.0,0.0,10.0,-0.139815957229,0.000532632218016,0.00306263525359,1.0,0.0,0.0,0.0,1.0,0.0,0.0,0.0,1.0,0.221539306641,-1.19870727539,10.0219592285,0.1,0.0,0.0,0.0,0.1,0.0,0.0,0.0,0.1
1446039172591885864,159,1446039172588551044,robocape,3.96605268741,8.03707713436,13.0545743427,0.0,10.0,0.0,0.0,0.0,10.0,0.0,0.0,0.0,10.0,-0.0233026595382,0.00599211245268,0.00812264132474,1.0,0.0,0.0,0.0,1.0,0.0,0.0,0.0,1.0,0.199984130859,-1.33522338867,10.0566870117,0.1,0.0,0.0,0.0,0.1,0.0,0.0,0.0,0.1
1446039172625223405,160,1446039172621836900,robocape,4.13543898681,8.0487863735,13.0415615179,0.0,10.0,0.0,0.0,0.0,10.0,0.0,0.0,0.0,10.0,0.0925448478803,0.0133158054504,0.00439421579863,1.0,0.0,0.0,0.0,1.0,0.0,0.0,0.0,1.0,0.366437988281,-1.16996704102,10.0662670898,0.1,0.0,0.0,0.0,0.1,0.0,0.0,0.0,0.1
1446039172659378905,161,1446039172656259059,robocape,4.45838503789,8.06678891124,13.0371725851,0.0,10.0,0.0,0.0,0.0,10.0,0.0,0.0,0.0,10.0,0.172705996692,0.017177389031,0.00892158965177,1.0,0.0,0.0,0.0,1.0,0.0,0.0,0.0,1.0,-0.00838256835938,-0.714913330078,10.039921875,0.1,0.0,0.0,0.0,0.1,0.0,0.0,0.0,0.1
1446039172693029239,162,1446039172689851999,robocape,4.84481402903,8.09360567453,12.9842024693,0.0,10.0,0.0,0.0,0.0,10.0,0.0,0.0,0.0,10.0,0.209857093898,0.0197073920666,-0.0167779148675,1.0,0.0,0.0,0.0,1.0,0.0,0.0,0.0,1.0,0.214354248047,-0.494571533203,10.0626745605,0.1,0.0,0.0,0.0,0.1,0.0,0.0,0.0,0.1
1446039172726178280,163,1446039172723021984,robocape,5.30496593609,8.12358828071,12.9216749761,0.0,10.0,0.0,0.0,0.0,10.0,0.0,0.0,0.0,10.0,0.249671352195,0.0209058145571,-0.0218379209386,1.0,0.0,0.0,0.0,1.0,0.0,0.0,0.0,1.0,0.314945068359,-0.534089355469,10.0207617188,0.1,0.0,0.0,0.0,0.1,0.0,0.0,0.0,0.1
1446039172758570447,164,1446039172755525112,robocape,5.84983786916,8.16134601544,12.857587119,0.0,10.0,0.0,0.0,0.0,10.0,0.0,0.0,0.0,10.0,0.294811932672,0.0249005561922,-0.0229031853747,1.0,0.0,0.0,0.0,1.0,0.0,0.0,0.0,1.0,0.246687011719,-0.561632080078,10.055489502,0.1,0.0,0.0,0.0,0.1,0.0,0.0,0.0,0.1
1446039172792280905,165,1446039172789050102,robocape,6.37599433706,8.18044885308,12.8168266693,0.0,10.0,0.0,0.0,0.0,10.0,0.0,0.0,0.0,10.0,0.283892972202,0.016378440704,-0.00985369603329,1.0,0.0,0.0,0.0,1.0,0.0,0.0,0.0,1.0,0.274229736328,0.105380859375,10.0435144043,0.1,0.0,0.0,0.0,0.1,0.0,0.0,0.0,0.1
1446039172826718989,166,1446039172823457002,robocape,6.79716193285,8.18945895952,12.7887089819,0.0,10.0,0.0,0.0,0.0,10.0,0.0,0.0,0.0,10.0,0.228366063474,0.0117179087963,-0.00292947719909,1.0,0.0,0.0,0.0,1.0,0.0,0.0,0.0,1.0,0.00239501953125,0.566422119141,10.0734521484,0.1,0.0,0.0,0.0,0.1,0.0,0.0,0.0,0.1
1446039172860288739,167,1446039172856837034,robocape,7.05991251286,8.19301835507,12.7656052889,0.0,10.0,0.0,0.0,0.0,10.0,0.0,0.0,0.0,10.0,0.145142279409,0.00892158965177,-0.000399474163512,1.0,0.0,0.0,0.0,1.0,0.0,0.0,0.0,1.0,0.455053710938,0.839454345703,9.95729370117,0.1,0.0,0.0,0.0,0.1,0.0,0.0,0.0,0.1
1446039172896171322,168,1446039172890687942,robocape,7.08583523998,8.18839346485,12.8453178407,0.0,10.0,0.0,0.0,0.0,10.0,0.0,0.0,0.0,10.0,0.0134489635049,0.0111852765783,0.0529969056926,1.0,0.0,0.0,0.0,1.0,0.0,0.0,0.0,1.0,0.0790356445313,1.39270385742,10.0051940918,0.1,0.0,0.0,0.0,0.1,0.0,0.0,0.0,0.1
1446039172926437864,169,1446039172923367977,robocape,6.73168584105,8.15999323471,13.1788645811,0.0,10.0,0.0,0.0,0.0,10.0,0.0,0.0,0.0,10.0,-0.204663929773,0.0147805440499,0.185755486033,1.0,0.0,0.0,0.0,1.0,0.0,0.0,0.0,1.0,0.477806396484,0.384400634766,9.99920654297,0.1,0.0,0.0,0.0,0.1,0.0,0.0,0.0,0.1
1446039172962405906,170,1446039172957073926,robocape,6.39466497905,8.11198189272,13.456618058,0.0,10.0,0.0,0.0,0.0,10.0,0.0,0.0,0.0,10.0,-0.19188075654,0.0,0.158324926805,1.0,0.0,0.0,0.0,1.0,0.0,0.0,0.0,1.0,0.0443078613281,-0.450263671875,10.0327368164,0.1,0.0,0.0,0.0,0.1,0.0,0.0,0.0,0.1
1446039172996435281,171,1446039172992232084,robocape,6.14513093001,8.06438821787,13.8245209815,0.0,10.0,0.0,0.0,0.0,10.0,0.0,0.0,0.0,10.0,-0.152465972407,0.00519316412565,0.206128668372,1.0,0.0,0.0,0.0,1.0,0.0,0.0,0.0,1.0,0.00359252929688,-0.577199707031,9.99202148437,0.1,0.0,0.0,0.0,0.1,0.0,0.0,0.0,0.1
1446039173028123906,172,1446039173025064945,robocape,6.06510243395,8.01731485171,14.2597809067,0.0,10.0,0.0,0.0,0.0,10.0,0.0,0.0,0.0,10.0,-0.068176923906,0.00932106381528,0.242480817252,1.0,0.0,0.0,0.0,1.0,0.0,0.0,0.0,1.0,0.162861328125,-1.44778930664,10.0506994629,0.1,0.0,0.0,0.0,0.1,0.0,0.0,0.0,0.1
1446039173061179281,173,1446039173057142019,robocape,6.44693868748,7.99814431742,14.480106329,0.0,10.0,0.0,0.0,0.0,10.0,0.0,0.0,0.0,10.0,0.189883385723,0.0122505410144,0.130361735359,1.0,0.0,0.0,0.0,1.0,0.0,0.0,0.0,1.0,0.271834716797,-1.89565795898,10.1069824219,0.1,0.0,0.0,0.0,0.1,0.0,0.0,0.0,0.1
1446039173096215072,174,1446039173091898918,robocape,7.25738983634,8.01873235419,14.361000821,0.0,10.0,0.0,0.0,0.0,10.0,0.0,0.0,0.0,10.0,0.439554737918,0.0125168571234,-0.0480700576759,1.0,0.0,0.0,0.0,1.0,0.0,0.0,0.0,1.0,0.0335302734375,-0.653840332031,10.100994873,0.1,0.0,0.0,0.0,0.1,0.0,0.0,0.0,0.1
1446039173128885781,175,1446039173125771999,robocape,8.20397333093,8.02508770674,14.1133968957,0.0,10.0,0.0,0.0,0.0,10.0,0.0,0.0,0.0,10.0,0.521180625329,-0.00479368996214,-0.113583820492,1.0,0.0,0.0,0.0,1.0,0.0,0.0,0.0,1.0,-0.0502954101563,0.777183837891,10.1141674805,0.1,0.0,0.0,0.0,0.1,0.0,0.0,0.0,0.1
1446039173162405322,176,1446039173158934116,robocape,8.76689865287,8.03273523452,14.0163914962,0.0,10.0,0.0,0.0,0.0,10.0,0.0,0.0,0.0,10.0,0.309991950885,0.00599211245268,-0.0362189908251,1.0,0.0,0.0,0.0,1.0,0.0,0.0,0.0,1.0,0.635877685547,1.87170776367,9.94891113281,0.1,0.0,0.0,0.0,0.1,0.0,0.0,0.0,0.1
1446039173196392197,177,1446039173192662954,robocape,8.85713530017,8.03680071255,14.0068494565,0.0,10.0,0.0,0.0,0.0,10.0,0.0,0.0,0.0,10.0,0.0555269087282,0.0101200121423,0.00772316716123,1.0,0.0,0.0,0.0,1.0,0.0,0.0,0.0,1.0,0.125738525391,2.25251586914,10.0267492676,0.1,0.0,0.0,0.0,0.1,0.0,0.0,0.0,0.1
1446039173228511572,178,1446039173224364995,robocape,8.32377893396,8.0116145504,14.2372651615,0.0,10.0,0.0,0.0,0.0,10.0,0.0,0.0,0.0,10.0,-0.289618768546,0.0129163312869,0.132225948122,1.0,0.0,0.0,0.0,1.0,0.0,0.0,0.0,1.0,0.712518310547,1.47173950195,9.81239501953,0.1,0.0,0.0,0.0,0.1,0.0,0.0,0.0,0.1
1446039173262638781,179,1446039173259231090,robocape,7.62890134376,7.99364024988,14.4577707369,0.0,10.0,0.0,0.0,0.0,10.0,0.0,0.0,0.0,10.0,-0.374307291211,0.0142479118319,0.126366993724,1.0,0.0,0.0,0.0,1.0,0.0,0.0,0.0,1.0,0.0215551757813,-0.314945068359,10.1237475586,0.1,0.0,0.0,0.0,0.1,0.0,0.0,0.0,0.1
1446039173295977072,180,1446039173292586088,robocape,7.22010806953,7.98391889185,14.5325227945,0.0,10.0,0.0,0.0,0.0,10.0,0.0,0.0,0.0,10.0,-0.214118151642,0.00772316716123,0.051265850984,1.0,0.0,0.0,0.0,1.0,0.0,0.0,0.0,1.0,0.09580078125,-0.36404296875,10.0159716797,0.1,0.0,0.0,0.0,0.1,0.0,0.0,0.0,0.1
1446039173333382531,181,1446039173325700044,robocape,6.9857384057,7.97957629423,14.5451100137,0.0,10.0,0.0,0.0,0.0,10.0,0.0,0.0,0.0,10.0,-0.118377510454,0.00639158661619,0.0191747598486,1.0,0.0,0.0,0.0,1.0,0.0,0.0,0.0,1.0,0.270637207031,-0.5748046875,10.0411193848,0.1,0.0,0.0,0.0,0.1,0.0,0.0,0.0,0.1
1446039173363516489,182,1446039173360307931,robocape,6.89535184769,7.97465674073,14.5406284196,0.0,10.0,0.0,0.0,0.0,10.0,0.0,0.0,0.0,10.0,-0.0416784710597,0.00519316412565,0.0107858024148,1.0,0.0,0.0,0.0,1.0,0.0,0.0,0.0,1.0,0.0299377441406,-0.59396484375,10.0710571289,0.1,0.0,0.0,0.0,0.1,0.0,0.0,0.0,0.1
1446039173395761531,183,1446039173392533063,robocape,6.93357277654,7.97880526803,14.5292495347,0.0,10.0,0.0,0.0,0.0,10.0,0.0,0.0,0.0,10.0,0.0263652947918,0.00972053797879,0.00705737688871,1.0,0.0,0.0,0.0,1.0,0.0,0.0,0.0,1.0,0.192799072266,-0.597557373047,10.0985998535,0.1,0.0,0.0,0.0,0.1,0.0,0.0,0.0,0.1
1446039173428558239,184,1446039173425435066,robocape,7.10373214571,7.98129839172,14.5148310173,0.0,10.0,0.0,0.0,0.0,10.0,0.0,0.0,0.0,10.0,0.0960069572974,0.00892158965177,0.00599211245268,1.0,0.0,0.0,0.0,1.0,0.0,0.0,0.0,1.0,0.167651367188,-0.348475341797,10.019564209,0.1,0.0,0.0,0.0,0.1,0.0,0.0,0.0,0.1
1446039173461688572,185,1446039173458616971,robocape,7.28808702313,7.9884349479,14.4802452661,0.0,10.0,0.0,0.0,0.0,10.0,0.0,0.0,0.0,10.0,0.105061705004,0.0099868540878,-0.00479368996214,1.0,0.0,0.0,0.0,1.0,0.0,0.0,0.0,1.0,-0.152083740234,-0.13412109375,10.0255517578,0.1,0.0,0.0,0.0,0.1,0.0,0.0,0.0,0.1
1446039173494682031,186,1446039173491458892,robocape,7.83014222457,8.01564827685,14.1964321357,0.0,10.0,0.0,0.0,0.0,10.0,0.0,0.0,0.0,10.0,0.310790899212,0.00292947719909,-0.135155425322,1.0,0.0,0.0,0.0,1.0,0.0,0.0,0.0,1.0,0.423918457031,-0.447868652344,10.1608703613,0.1,0.0,0.0,0.0,0.1,0.0,0.0,0.0,0.1
1446039173527099614,187,1446039173523942947,robocape,8.19915606859,8.04049659344,13.974079073,0.0,10.0,0.0,0.0,0.0,10.0,0.0,0.0,0.0,10.0,0.21611552246,0.00506000607115,-0.103596966404,1.0,0.0,0.0,0.0,1.0,0.0,0.0,0.0,1.0,0.135318603516,1.14242431641,9.97405883789,0.1,0.0,0.0,0.0,0.1,0.0,0.0,0.0,0.1
1446039173560613322,188,1446039173557518959,robocape,8.21035186736,8.05092077172,13.8992615662,0.0,10.0,0.0,0.0,0.0,10.0,0.0,0.0,0.0,10.0,0.0178431793035,0.00798948327024,-0.0271642431188,1.0,0.0,0.0,0.0,1.0,0.0,0.0,0.0,1.0,0.338895263672,1.30169311523,9.97525634766,0.1,0.0,0.0,0.0,0.1,0.0,0.0,0.0,0.1
1446039173593895198,189,1446039173590758085,robocape,7.94533065408,8.05842159699,13.8967536048,0.0,10.0,0.0,0.0,0.0,10.0,0.0,0.0,0.0,10.0,-0.132625422286,0.0114515926873,0.00958737992429,1.0,0.0,0.0,0.0,1.0,0.0,0.0,0.0,1.0,0.21076171875,0.767603759766,9.97765136719,0.1,0.0,0.0,0.0,0.1,0.0,0.0,0.0,0.1
1446039173626994656,190,1446039173623907089,robocape,7.5707960862,8.06320192633,13.904561734,0.0,10.0,0.0,0.0,0.0,10.0,0.0,0.0,0.0,10.0,-0.191214966268,0.0105194863058,0.0147805440499,1.0,0.0,0.0,0.0,1.0,0.0,0.0,0.0,1.0,0.264649658203,0.202379150391,9.98842895508,0.1,0.0,0.0,0.0,0.1,0.0,0.0,0.0,0.1
1446039173660602489,191,1446039173657558917,robocape,7.24025307469,8.06726243491,13.8906654101,0.0,10.0,0.0,0.0,0.0,10.0,0.0,0.0,0.0,10.0,-0.166847042293,0.00865527354276,0.00372842552611,1.0,0.0,0.0,0.0,1.0,0.0,0.0,0.0,1.0,0.202379150391,-0.233514404297,10.0495019531,0.1,0.0,0.0,0.0,0.1,0.0,0.0,0.0,0.1
1446039173695247739,192,1446039173692162990,robocape,7.01824142115,8.06710625705,13.8760301876,0.0,10.0,0.0,0.0,0.0,10.0,0.0,0.0,0.0,10.0,-0.10998855302,0.0066579027252,0.00399474163512,1.0,0.0,0.0,0.0,1.0,0.0,0.0,0.0,1.0,-0.0167651367188,-0.316142578125,10.0111816406,0.1,0.0,0.0,0.0,0.1,0.0,0.0,0.0,0.1
1446039173726547864,193,1446039173723429918,robocape,6.80483506223,8.05381852358,13.9434155885,0.0,10.0,0.0,0.0,0.0,10.0,0.0,0.0,0.0,10.0,-0.11145329162,0.00532632218016,0.0476705835124,1.0,0.0,0.0,0.0,1.0,0.0,0.0,0.0,1.0,0.193996582031,0.0263452148438,10.024354248,0.1,0.0,0.0,0.0,0.1,0.0,0.0,0.0,0.1
1446039173758482864,194,1446039173755433082,robocape,6.53665915303,8.00120935405,14.2514769307,0.0,10.0,0.0,0.0,0.0,10.0,0.0,0.0,0.0,10.0,-0.157392820424,0.000133158054504,0.175768631945,1.0,0.0,0.0,0.0,1.0,0.0,0.0,0.0,1.0,0.0431103515625,-0.802331542969,10.0854272461,0.1,0.0,0.0,0.0,0.1,0.0,0.0,0.0,0.1
1446039173792094031,195,1446039173788805961,robocape,6.69638390913,7.98858301583,14.3732747529,0.0,10.0,0.0,0.0,0.0,10.0,0.0,0.0,0.0,10.0,0.0805606229749,0.00972053797879,0.0777643038303,1.0,0.0,0.0,0.0,1.0,0.0,0.0,0.0,1.0,0.177231445313,-1.18553466797,10.1057849121,0.1,0.0,0.0,0.0,0.1,0.0,0.0,0.0,0.1
1446039173825992114,196,1446039173822853088,robocape,7.08163451847,7.98435642837,14.4116456048,0.0,10.0,0.0,0.0,0.0,10.0,0.0,0.0,0.0,10.0,0.205196561991,0.00932106381528,0.0344879361165,1.0,0.0,0.0,0.0,1.0,0.0,0.0,0.0,1.0,0.0359252929688,-0.377215576172,10.0087866211,0.1,0.0,0.0,0.0,0.1,0.0,0.0,0.0,0.1
1446039173859462989,197,1446039173856348991,robocape,7.54171655243,7.97767228151,14.3906670694,0.0,10.0,0.0,0.0,0.0,10.0,0.0,0.0,0.0,10.0,0.249138719977,0.00426105774413,0.00399474163512,1.0,0.0,0.0,0.0,1.0,0.0,0.0,0.0,1.0,0.106578369141,-0.0658630371094,10.0710571289,0.1,0.0,0.0,0.0,0.1,0.0,0.0,0.0,0.1
1446039173892992614,198,1446039173889947891,robocape,8.14222218727,7.9989271815,14.1897780736,0.0,10.0,0.0,0.0,0.0,10.0,0.0,0.0,0.0,10.0,0.336090929568,0.00559263828917,-0.0912132673352,1.0,0.0,0.0,0.0,1.0,0.0,0.0,0.0,1.0,0.429906005859,0.0455053710938,10.0231567383,0.1,0.0,0.0,0.0,0.1,0.0,0.0,0.0,0.1
1446039173925500823,199,1446039173922383069,robocape,8.62389816312,8.01261402277,14.0210554025,0.0,10.0,0.0,0.0,0.0,10.0,0.0,0.0,0.0,10.0,0.272041905352,0.0031957933081,-0.0743021944132,1.0,0.0,0.0,0.0,1.0,0.0,0.0,0.0,1.0,0.196391601563,1.41306152344,9.90340576172,0.1,0.0,0.0,0.0,0.1,0.0,0.0,0.0,0.1
1446039173960493656,200,1446039173956650972,robocape,8.57392572568,8.02268257668,13.9674731548,0.0,10.0,0.0,0.0,0.0,10.0,0.0,0.0,0.0,10.0,-0.0154463343225,0.00918790576077,-0.0162452826495,1.0,0.0,0.0,0.0,1.0,0.0,0.0,0.0,1.0,0.389190673828,1.47293701172,9.91657836914,0.1,0.0,0.0,0.0,0.1,0.0,0.0,0.0,0.1
1446039173992079948,201,1446039173988821983,robocape,8.21674471136,8.03461522659,13.9590912425,0.0,10.0,0.0,0.0,0.0,10.0,0.0,0.0,0.0,10.0,-0.180429163853,0.0130494893414,0.00585895439817,1.0,0.0,0.0,0.0,1.0,0.0,0.0,0.0,1.0,0.204774169922,1.0693762207,9.98363891602,0.1,0.0,0.0,0.0,0.1,0.0,0.0,0.0,0.1
1446039174025010323,202,1446039174021938085,robocape,7.55152863205,8.02087267936,14.1090570548,0.0,10.0,0.0,0.0,0.0,10.0,0.0,0.0,0.0,10.0,-0.353934108872,0.0109189604693,0.0890827384632,1.0,0.0,0.0,0.0,1.0,0.0,0.0,0.0,1.0,0.399968261719,0.635877685547,9.91059082031,0.1,0.0,0.0,0.0,0.1,0.0,0.0,0.0,0.1
1446039174058826573,203,1446039174055480957,robocape,6.93226083363,7.9879884183,14.3506476576,0.0,10.0,0.0,0.0,0.0,10.0,0.0,0.0,0.0,10.0,-0.336623561786,0.0066579027252,0.138750692793,1.0,0.0,0.0,0.0,1.0,0.0,0.0,0.0,1.0,0.427510986328,-0.943637695313,10.1141674805,0.1,0.0,0.0,0.0,0.1,0.0,0.0,0.0,0.1
1446039174092355031,204,1446039174089184999,robocape,6.6366241255,7.97965738091,14.3480462824,0.0,10.0,0.0,0.0,0.0,10.0,0.0,0.0,0.0,10.0,-0.149802811317,0.00306263525359,0.0110521185238,1.0,0.0,0.0,0.0,1.0,0.0,0.0,0.0,1.0,-0.247884521484,-1.16996704102,10.0734521484,0.1,0.0,0.0,0.0,0.1,0.0,0.0,0.0,0.1
1446039174124905114,205,1446039174121849060,robocape,6.6130299686,7.98324107652,14.3460838336,0.0,10.0,0.0,0.0,0.0,10.0,0.0,0.0,0.0,10.0,-0.00705737688871,0.00985369603329,0.0115847507418,1.0,0.0,0.0,0.0,1.0,0.0,0.0,0.0,1.0,0.24908203125,-1.06219116211,10.1165625,0.1,0.0,0.0,0.0,0.1,0.0,0.0,0.0,0.1
1446039174158628156,206,1446039174155369043,robocape,6.93820528156,7.99459351293,14.2622984064,0.0,10.0,0.0,0.0,0.0,10.0,0.0,0.0,0.0,10.0,0.182027060507,0.00918790576077,-0.0306263525359,1.0,0.0,0.0,0.0,1.0,0.0,0.0,0.0,1.0,0.240699462891,-1.12326416016,10.0866247559,0.1,0.0,0.0,0.0,0.1,0.0,0.0,0.0,0.1
1446039174193022031,207,1446039174189748048,robocape,7.492514401,8.03646063263,13.932457441,0.0,10.0,0.0,0.0,0.0,10.0,0.0,0.0,0.0,10.0,0.320111963028,0.00812264132474,-0.160455455677,1.0,0.0,0.0,0.0,1.0,0.0,0.0,0.0,1.0,-0.0155676269531,0.124541015625,10.0710571289,0.1,0.0,0.0,0.0,0.1,0.0,0.0,0.0,0.1
1446039174225043698,208,1446039174221997976,robocape,7.89701301844,8.05899573686,13.7039107927,0.0,10.0,0.0,0.0,0.0,10.0,0.0,0.0,0.0,10.0,0.234890808145,0.00399474163512,-0.106925917767,1.0,0.0,0.0,0.0,1.0,0.0,0.0,0.0,1.0,0.604742431641,0.771196289063,9.91418334961,0.1,0.0,0.0,0.0,0.1,0.0,0.0,0.0,0.1
1446039174258880114,209,1446039174255522012,robocape,8.00554672841,8.06778749243,13.6569104417,0.0,10.0,0.0,0.0,0.0,10.0,0.0,0.0,0.0,10.0,0.066845343361,0.00958737992429,-0.0125168571234,1.0,0.0,0.0,0.0,1.0,0.0,0.0,0.0,1.0,0.118553466797,1.11967163086,9.98842895508,0.1,0.0,0.0,0.0,0.1,0.0,0.0,0.0,0.1
1446039174291902323,210,1446039174288707017,robocape,7.8824445774,8.07140285457,13.6421126516,0.0,10.0,0.0,0.0,0.0,10.0,0.0,0.0,0.0,10.0,-0.0572579634367,0.00878843159726,0.00372842552611,1.0,0.0,0.0,0.0,1.0,0.0,0.0,0.0,1.0,0.319735107422,0.774788818359,9.99321899414,0.1,0.0,0.0,0.0,0.1,0.0,0.0,0.0,0.1
1446039174325329615,211,1446039174322097063,robocape,7.63768129978,8.08218252037,13.6204255047,0.0,10.0,0.0,0.0,0.0,10.0,0.0,0.0,0.0,10.0,-0.12090751349,0.0117179087963,-0.000798948327024,1.0,0.0,0.0,0.0,1.0,0.0,0.0,0.0,1.0,0.225131835938,0.285007324219,10.0315393066,0.1,0.0,0.0,0.0,0.1,0.0,0.0,0.0,0.1
1446039174359570198,212,1446039174356220960,robocape,7.53570288832,8.11017727005,13.4038278792,0.0,10.0,0.0,0.0,0.0,10.0,0.0,0.0,0.0,10.0,-0.03222424919,0.0067910607797,-0.103064334186,1.0,0.0,0.0,0.0,1.0,0.0,0.0,0.0,1.0,0.0969982910156,-0.422720947266,10.100994873,0.1,0.0,0.0,0.0,0.1,0.0,0.0,0.0,0.1
1446039174393917615,213,1446039174390800952,robocape,7.57384195058,8.16119683786,12.9330076096,0.0,10.0,0.0,0.0,0.0,10.0,0.0,0.0,0.0,10.0,0.0595216503633,0.00066579027252,-0.236755020908,1.0,0.0,0.0,0.0,1.0,0.0,0.0,0.0,1.0,0.173638916016,0.484991455078,9.97765136719,0.1,0.0,0.0,0.0,0.1,0.0,0.0,0.0,0.1
1446039174425008573,214,1446039174421916961,robocape,7.48403497127,8.20908093218,12.4557007384,0.0,10.0,0.0,0.0,0.0,10.0,0.0,0.0,0.0,10.0,-0.00705737688871,-0.00159789665405,-0.240616604489,1.0,0.0,0.0,0.0,1.0,0.0,0.0,0.0,1.0,0.221539306641,0.8047265625,9.97525634766,0.1,0.0,0.0,0.0,0.1,0.0,0.0,0.0,0.1
1446039174458414531,215,1446039174455148935,robocape,7.12746899814,8.23932676519,12.1063900028,0.0,10.0,0.0,0.0,0.0,10.0,0.0,0.0,0.0,10.0,-0.156460714042,-0.00146473859954,-0.174037577237,1.0,0.0,0.0,0.0,1.0,0.0,0.0,0.0,1.0,0.269439697266,0.97716796875,9.93454101563,0.1,0.0,0.0,0.0,0.1,0.0,0.0,0.0,0.1
1446039174491873573,216,1446039174488729000,robocape,6.49057078966,8.23566533378,12.0190382778,0.0,10.0,0.0,0.0,0.0,10.0,0.0,0.0,0.0,10.0,-0.323041440227,-0.00106526443603,-0.0367516230431,1.0,0.0,0.0,0.0,1.0,0.0,0.0,0.0,1.0,0.131726074219,0.458646240234,10.0351318359,0.1,0.0,0.0,0.0,0.1,0.0,0.0,0.0,0.1
1446039174524873323,217,1446039174521781921,robocape,5.64526173758,8.18658243896,12.0656372388,0.0,10.0,0.0,0.0,0.0,10.0,0.0,0.0,0.0,10.0,-0.442750531226,-0.0167779148675,0.03488741028,1.0,0.0,0.0,0.0,1.0,0.0,0.0,0.0,1.0,0.0263452148438,-0.317340087891,9.90819580078,0.1,0.0,0.0,0.0,0.1,0.0,0.0,0.0,0.1
1446039174558435781,218,1446039174555119037,robocape,4.91186635408,8.14062392012,12.1282827918,0.0,10.0,0.0,0.0,0.0,10.0,0.0,0.0,0.0,10.0,-0.385625725843,-0.0143810698864,0.0434095257683,1.0,0.0,0.0,0.0,1.0,0.0,0.0,0.0,1.0,0.0718505859375,-0.490979003906,10.0411193848,0.1,0.0,0.0,0.0,0.1,0.0,0.0,0.0,0.1
1446039174592043948,219,1446039174588748931,robocape,4.29638875831,8.10840139378,12.1127304408,0.0,10.0,0.0,0.0,0.0,10.0,0.0,0.0,0.0,10.0,-0.318514066373,-0.0109189604693,0.00226368692657,1.0,0.0,0.0,0.0,1.0,0.0,0.0,0.0,1.0,0.265847167969,-1.19511474609,10.1536853027,0.1,0.0,0.0,0.0,0.1,0.0,0.0,0.0,0.1
1446039174625185906,220,1446039174621896982,robocape,3.86166450728,8.08110214507,12.1470562771,0.0,10.0,0.0,0.0,0.0,10.0,0.0,0.0,0.0,10.0,-0.227700273202,-0.00599211245268,0.0284958236638,1.0,0.0,0.0,0.0,1.0,0.0,0.0,0.0,1.0,0.326920166016,-1.40587646484,10.0938098145,0.1,0.0,0.0,0.0,0.1,0.0,0.0,0.0,0.1
1446039174658546240,221,1446039174655051946,robocape,3.64982508121,8.06937102366,12.1592117511,0.0,10.0,0.0,0.0,0.0,10.0,0.0,0.0,0.0,10.0,-0.109455920802,0.00146473859954,0.0167779148675,1.0,0.0,0.0,0.0,1.0,0.0,0.0,0.0,1.0,0.379610595703,-1.35677856445,10.0506994629,0.1,0.0,0.0,0.0,0.1,0.0,0.0,0.0,0.1
1446039174692169448,222,1446039174688796997,robocape,3.63364848656,8.06993184314,12.1544896722,0.0,10.0,0.0,0.0,0.0,10.0,0.0,0.0,0.0,10.0,-0.00572579634367,0.00745685105222,0.00785632521573,1.0,0.0,0.0,0.0,1.0,0.0,0.0,0.0,1.0,0.21076171875,-1.22145996094,10.0746496582,0.1,0.0,0.0,0.0,0.1,0.0,0.0,0.0,0.1
1446039174724920115,223,1446039174721740007,robocape,3.79889056407,8.08273153517,12.144181525,0.0,10.0,0.0,0.0,0.0,10.0,0.0,0.0,0.0,10.0,0.0898816867902,0.0138484376684,0.00479368996214,1.0,0.0,0.0,0.0,1.0,0.0,0.0,0.0,1.0,0.246687011719,-0.926872558594,10.055489502,0.1,0.0,0.0,0.0,0.1,0.0,0.0,0.0,0.1
1446039174758281698,224,1446039174755095005,robocape,3.97448789967,8.09365761852,12.1411395982,0.0,10.0,0.0,0.0,0.0,10.0,0.0,0.0,0.0,10.0,0.0949416928613,0.0131826473959,0.00865527354276,1.0,0.0,0.0,0.0,1.0,0.0,0.0,0.0,1.0,0.164058837891,-0.464633789063,10.0447119141,0.1,0.0,0.0,0.0,0.1,0.0,0.0,0.0,0.1
1446039174792507865,225,1446039174789238929,robocape,4.08802570175,8.10402677163,12.1262936036,0.0,10.0,0.0,0.0,0.0,10.0,0.0,0.0,0.0,10.0,0.0633832339439,0.0123836990689,0.00239684498107,1.0,0.0,0.0,0.0,1.0,0.0,0.0,0.0,1.0,0.142503662109,-0.232316894531,10.0327368164,0.1,0.0,0.0,0.0,0.1,0.0,0.0,0.0,0.1
1446039174824948031,226,1446039174821851968,robocape,4.13584106134,8.1066679888,12.1144766718,0.0,10.0,0.0,0.0,0.0,10.0,0.0,0.0,0.0,10.0,0.0287621397729,0.00838895743375,0.00412789968962,1.0,0.0,0.0,0.0,1.0,0.0,0.0,0.0,1.0,0.221539306641,-0.233514404297,10.0710571289,0.1,0.0,0.0,0.0,0.1,0.0,0.0,0.0,0.1
1446039174858165156,227,1446039174855098962,robocape,4.11579446632,8.10787767642,12.1096580109,0.0,10.0,0.0,0.0,0.0,10.0,0.0,0.0,0.0,10.0,-0.00732369299772,0.00785632521573,0.00772316716123,1.0,0.0,0.0,0.0,1.0,0.0,0.0,0.0,1.0,0.370030517578,-0.221539306641,10.019564209,0.1,0.0,0.0,0.0,0.1,0.0,0.0,0.0,0.1
1446039174892065531,228,1446039174888958930,robocape,3.82304133621,8.07773648368,12.4113499164,0.0,10.0,0.0,0.0,0.0,10.0,0.0,0.0,0.0,10.0,-0.172705996692,0.0033289513626,0.168844413111,1.0,0.0,0.0,0.0,1.0,0.0,0.0,0.0,1.0,0.192799072266,0.0107775878906,10.0914147949,0.1,0.0,0.0,0.0,0.1,0.0,0.0,0.0,0.1
1446039174925140198,229,1446039174922009944,robocape,3.63335815915,8.05794251159,12.6040665369,0.0,10.0,0.0,0.0,0.0,10.0,0.0,0.0,0.0,10.0,-0.110920659402,0.00412789968962,0.111985923838,1.0,0.0,0.0,0.0,1.0,0.0,0.0,0.0,1.0,0.158071289063,-1.01908081055,10.0171691895,0.1,0.0,0.0,0.0,0.1,0.0,0.0,0.0,0.1
1446039174958384615,230,1446039174955265998,robocape,3.51780510611,8.04007764036,12.8505155374,0.0,10.0,0.0,0.0,0.0,10.0,0.0,0.0,0.0,10.0,-0.0760332491218,0.00692421883421,0.140481747502,1.0,0.0,0.0,0.0,1.0,0.0,0.0,0.0,1.0,0.234711914063,-0.851429443359,10.0530944824,0.1,0.0,0.0,0.0,0.1,0.0,0.0,0.0,0.1
1446039174993630573,231,1446039174990508079,robocape,3.42888159076,8.01283724767,13.2993637162,0.0,10.0,0.0,0.0,0.0,10.0,0.0,0.0,0.0,10.0,-0.0766990393943,0.00905474770627,0.247407665268,1.0,0.0,0.0,0.0,1.0,0.0,0.0,0.0,1.0,0.201181640625,-1.33163085938,9.94531860352,0.1,0.0,0.0,0.0,0.1,0.0,0.0,0.0,0.1
1446039175025925615,232,1446039175022877931,robocape,3.55216066345,7.98848845824,13.7476787296,0.0,10.0,0.0,0.0,0.0,10.0,0.0,0.0,0.0,10.0,0.0347542522255,0.0109189604693,0.248073455541,1.0,0.0,0.0,0.0,1.0,0.0,0.0,0.0,1.0,0.324525146484,-1.88607788086,10.0578845215,0.1,0.0,0.0,0.0,0.1,0.0,0.0,0.0,0.1
1446039175059732907,233,1446039175056552886,robocape,4.05623923741,7.99486228041,13.9348409243,0.0,10.0,0.0,0.0,0.0,10.0,0.0,0.0,0.0,10.0,0.253532935776,0.0186421276306,0.111053817456,1.0,0.0,0.0,0.0,1.0,0.0,0.0,0.0,1.0,0.0598754882813,-1.47652954102,10.0926123047,0.1,0.0,0.0,0.0,0.1,0.0,0.0,0.0,0.1
1446039175093114615,234,1446039175089802980,robocape,4.90761943879,8.03280995705,13.6380034054,0.0,10.0,0.0,0.0,0.0,10.0,0.0,0.0,0.0,10.0,0.470846880726,0.0150468601589,-0.143544382755,1.0,0.0,0.0,0.0,1.0,0.0,0.0,0.0,1.0,0.360450439453,-1.35797607422,9.97525634766,0.1,0.0,0.0,0.0,0.1,0.0,0.0,0.0,0.1
1446039175126863740,235,1446039175123311042,robocape,5.98707584123,8.09201366938,13.2241750189,0.0,10.0,0.0,0.0,0.0,10.0,0.0,0.0,0.0,10.0,0.600010193595,0.017976337358,-0.205329720045,1.0,0.0,0.0,0.0,1.0,0.0,0.0,0.0,1.0,0.0646655273438,0.219144287109,10.0734521484,0.1,0.0,0.0,0.0,0.1,0.0,0.0,0.0,0.1
1446039175160426740,236,1446039175156997919,robocape,6.53731890986,8.10132041145,13.0971441354,0.0,10.0,0.0,0.0,0.0,10.0,0.0,0.0,0.0,10.0,0.302801415942,0.00599211245268,-0.0539290120741,1.0,0.0,0.0,0.0,1.0,0.0,0.0,0.0,1.0,-0.0910107421875,1.43940673828,10.0578845215,0.1,0.0,0.0,0.0,0.1,0.0,0.0,0.0,0.1
1446039175194496282,237,1446039175190677881,robocape,6.69817000783,8.10867876653,13.0675308287,0.0,10.0,0.0,0.0,0.0,10.0,0.0,0.0,0.0,10.0,0.0917458995532,0.0102531701968,-0.00399474163512,1.0,0.0,0.0,0.0,1.0,0.0,0.0,0.0,1.0,0.403560791016,1.04303100586,10.0363293457,0.1,0.0,0.0,0.0,0.1,0.0,0.0,0.0,0.1
1446039175225998323,238,1446039175222846984,robocape,6.55292960152,8.11316610721,13.0724917647,0.0,10.0,0.0,0.0,0.0,10.0,0.0,0.0,0.0,10.0,-0.0715058752686,0.0103863282513,0.0133158054504,1.0,0.0,0.0,0.0,1.0,0.0,0.0,0.0,1.0,0.192799072266,0.883762207031,10.0794396973,0.1,0.0,0.0,0.0,0.1,0.0,0.0,0.0,0.1
1446039175262370448,239,1446039175258249998,robocape,6.18155454293,8.11401367307,13.0836141583,0.0,10.0,0.0,0.0,0.0,10.0,0.0,0.0,0.0,10.0,-0.190948650159,0.00838895743375,0.016112124595,1.0,0.0,0.0,0.0,1.0,0.0,0.0,0.0,1.0,0.387993164063,0.323327636719,10.0016015625,0.1,0.0,0.0,0.0,0.1,0.0,0.0,0.0,0.1
1446039175294004698,240,1446039175290465116,robocape,5.70452436471,8.10877773177,13.0851166364,0.0,10.0,0.0,0.0,0.0,10.0,0.0,0.0,0.0,10.0,-0.246076084723,0.00439421579863,0.0111852765783,1.0,0.0,0.0,0.0,1.0,0.0,0.0,0.0,1.0,-0.0215551757813,-0.294587402344,10.1333276367,0.1,0.0,0.0,0.0,0.1,0.0,0.0,0.0,0.1
1446039175332371157,241,1446039175325318098,robocape,5.28012538545,8.09287175502,13.1048687181,0.0,10.0,0.0,0.0,0.0,10.0,0.0,0.0,0.0,10.0,-0.220110264095,-0.000133158054504,0.0214384467751,1.0,0.0,0.0,0.0,1.0,0.0,0.0,0.0,1.0,0.173638916016,-0.550854492188,10.1249450684,0.1,0.0,0.0,0.0,0.1,0.0,0.0,0.0,0.1
1446039175362166448,242,1446039175358876943,robocape,5.03181121123,8.0937969201,13.0079127338,0.0,10.0,0.0,0.0,0.0,10.0,0.0,0.0,0.0,10.0,-0.119575932945,0.00292947719909,-0.0399474163512,1.0,0.0,0.0,0.0,1.0,0.0,0.0,0.0,1.0,0.211959228516,-0.931662597656,10.0746496582,0.1,0.0,0.0,0.0,0.1,0.0,0.0,0.0,0.1
1446039175395448615,243,1446039175390959024,robocape,5.05483960968,8.12531578386,12.6420962346,0.0,10.0,0.0,0.0,0.0,10.0,0.0,0.0,0.0,10.0,0.0420779452233,0.00599211245268,-0.181494428289,1.0,0.0,0.0,0.0,1.0,0.0,0.0,0.0,1.0,0.2682421875,-0.850231933594,10.0435144043,0.1,0.0,0.0,0.0,0.1,0.0,0.0,0.0,0.1
1446039175429386115,244,1446039175425251007,robocape,5.26670232887,8.16791019167,12.1042795992,0.0,10.0,0.0,0.0,0.0,10.0,0.0,0.0,0.0,10.0,0.153797552952,0.00292947719909,-0.271775589243,1.0,0.0,0.0,0.0,1.0,0.0,0.0,0.0,1.0,0.238304443359,-0.356857910156,10.0063916016,0.1,0.0,0.0,0.0,0.1,0.0,0.0,0.0,0.1
1446039175463368865,245,1446039175459733009,robocape,5.34600254938,8.18817608658,11.6614511719,0.0,10.0,0.0,0.0,0.0,10.0,0.0,0.0,0.0,10.0,0.0776311457758,-0.00466053190764,-0.221708160749,1.0,0.0,0.0,0.0,1.0,0.0,0.0,0.0,1.0,0.229921875,0.736468505859,9.90220825195,0.1,0.0,0.0,0.0,0.1,0.0,0.0,0.0,0.1
1446039175496500573,246,1446039175493098020,robocape,5.1511448767,8.181638503,11.410111521,0.0,10.0,0.0,0.0,0.0,10.0,0.0,0.0,0.0,10.0,-0.0801611488114,-0.00905474770627,-0.121440145708,1.0,0.0,0.0,0.0,1.0,0.0,0.0,0.0,1.0,0.179626464844,0.815504150391,10.003996582,0.1,0.0,0.0,0.0,0.1,0.0,0.0,0.0,0.1
1446039175528685365,247,1446039175525326967,robocape,4.48962368911,8.13494174972,11.4413161232,0.0,10.0,0.0,0.0,0.0,10.0,0.0,0.0,0.0,10.0,-0.345944625601,-0.0165115987585,0.0264984528463,1.0,0.0,0.0,0.0,1.0,0.0,0.0,0.0,1.0,0.116158447266,0.320932617188,10.0914147949,0.1,0.0,0.0,0.0,0.1,0.0,0.0,0.0,0.1
1446039175566112157,248,1446039175558621883,robocape,3.69204609833,8.08258202522,11.4989651995,0.0,10.0,0.0,0.0,0.0,10.0,0.0,0.0,0.0,10.0,-0.419714187796,-0.0187752856851,0.0402137324602,1.0,0.0,0.0,0.0,1.0,0.0,0.0,0.0,1.0,0.119750976563,-0.0694555664063,10.0794396973,0.1,0.0,0.0,0.0,0.1,0.0,0.0,0.0,0.1
1446039175596371240,249,1446039175592997074,robocape,2.9088489997,8.01946774921,11.5486643447,0.0,10.0,0.0,0.0,0.0,10.0,0.0,0.0,0.0,10.0,-0.41212417869,-0.0250337142467,0.0363521488796,1.0,0.0,0.0,0.0,1.0,0.0,0.0,0.0,1.0,0.234711914063,-0.846639404297,10.0375268555,0.1,0.0,0.0,0.0,0.1,0.0,0.0,0.0,0.1
1446039175628742282,250,1446039175625251054,robocape,2.28558185299,7.96579923277,11.5632063849,0.0,10.0,0.0,0.0,0.0,10.0,0.0,0.0,0.0,10.0,-0.326237233535,-0.0211721306661,0.0178431793035,1.0,0.0,0.0,0.0,1.0,0.0,0.0,0.0,1.0,0.146096191406,-1.75554931641,10.0842297363,0.1,0.0,0.0,0.0,0.1,0.0,0.0,0.0,0.1
1446039175663007948,251,1446039175659629106,robocape,1.94008970698,7.93668819181,11.5677744689,0.0,10.0,0.0,0.0,0.0,10.0,0.0,0.0,0.0,10.0,-0.180296005798,-0.00838895743375,0.0123836990689,1.0,0.0,0.0,0.0,1.0,0.0,0.0,0.0,1.0,0.523311767578,-2.03217407227,10.0483044434,0.1,0.0,0.0,0.0,0.1,0.0,0.0,0.0,0.1
1446039175695855615,252,1446039175692517042,robocape,1.89334432513,7.9389535741,11.599511984,0.0,10.0,0.0,0.0,0.0,10.0,0.0,0.0,0.0,10.0,-0.0258326625738,0.00878843159726,0.0263652947918,1.0,0.0,0.0,0.0,1.0,0.0,0.0,0.0,1.0,0.484991455078,-1.57951538086,10.0483044434,0.1,0.0,0.0,0.0,0.1,0.0,0.0,0.0,0.1
1446039175728457199,253,1446039175725276947,robocape,1.92625147538,7.95646177573,11.7670730081,0.0,10.0,0.0,0.0,0.0,10.0,0.0,0.0,0.0,10.0,0.00612527050718,0.0197073920666,0.0974716958969,1.0,0.0,0.0,0.0,1.0,0.0,0.0,0.0,1.0,0.376018066406,-2.17228271484,10.0566870117,0.1,0.0,0.0,0.0,0.1,0.0,0.0,0.0,0.1
1446039175762795907,254,1446039175759519100,robocape,2.27243580211,7.99741667538,11.9976505169,0.0,10.0,0.0,0.0,0.0,10.0,0.0,0.0,0.0,10.0,0.165914935912,0.0339553038985,0.130494893414,1.0,0.0,0.0,0.0,1.0,0.0,0.0,0.0,1.0,0.360450439453,-1.35318603516,10.1632653809,0.1,0.0,0.0,0.0,0.1,0.0,0.0,0.0,0.1
1446039175796178782,255,1446039175792889118,robocape,2.5263940991,8.00434176681,12.5390554438,0.0,10.0,0.0,0.0,0.0,10.0,0.0,0.0,0.0,10.0,0.0953411670248,0.0247673981377,0.294412458508,1.0,0.0,0.0,0.0,1.0,0.0,0.0,0.0,1.0,0.239501953125,-1.25738525391,10.1057849121,0.1,0.0,0.0,0.0,0.1,0.0,0.0,0.0,0.1
1446039175827872282,256,1446039175824768066,robocape,3.01234032204,8.02327145408,12.94423741,0.0,10.0,0.0,0.0,0.0,10.0,0.0,0.0,0.0,10.0,0.227167640984,0.0292947719909,0.223572373512,1.0,0.0,0.0,0.0,1.0,0.0,0.0,0.0,1.0,0.262254638672,-1.38072875977,9.97645385742,0.1,0.0,0.0,0.0,0.1,0.0,0.0,0.0,0.1
1446039175861355324,257,1446039175858261108,robocape,3.72678983458,8.03380995273,13.1709056799,0.0,10.0,0.0,0.0,0.0,10.0,0.0,0.0,0.0,10.0,0.360458853542,0.0213052887206,0.130761209523,1.0,0.0,0.0,0.0,1.0,0.0,0.0,0.0,1.0,-0.250279541016,-0.768801269531,10.0339343262,0.1,0.0,0.0,0.0,0.1,0.0,0.0,0.0,0.1
1446039175894350074,258,1446039175890929937,robocape,4.50707610319,8.05586748211,13.1868641707,0.0,10.0,0.0,0.0,0.0,10.0,0.0,0.0,0.0,10.0,0.410925756199,0.0205063403936,0.0202400242846,1.0,0.0,0.0,0.0,1.0,0.0,0.0,0.0,1.0,0.314945068359,-0.664617919922,9.97645385742,0.1,0.0,0.0,0.0,0.1,0.0,0.0,0.0,0.1
1446039175928688532,259,1446039175925641059,robocape,5.38036232385,8.09802860651,13.1146346643,0.0,10.0,0.0,0.0,0.0,10.0,0.0,0.0,0.0,10.0,0.466985297145,0.0272974011733,-0.0264984528463,1.0,0.0,0.0,0.0,1.0,0.0,0.0,0.0,1.0,0.354462890625,-0.15328125,9.98483642578,0.1,0.0,0.0,0.0,0.1,0.0,0.0,0.0,0.1
1446039175961703824,260,1446039175958672046,robocape,6.101068417,8.11352928621,13.0862847731,0.0,10.0,0.0,0.0,0.0,10.0,0.0,0.0,0.0,10.0,0.384693619462,0.0154463343225,-0.00253000303558,1.0,0.0,0.0,0.0,1.0,0.0,0.0,0.0,1.0,-0.0467028808594,0.609532470703,10.039921875,0.1,0.0,0.0,0.0,0.1,0.0,0.0,0.0,0.1
1446039175994302490,261,1446039175990715980,robocape,6.61221029946,8.12489765272,13.0299479658,0.0,10.0,0.0,0.0,0.0,10.0,0.0,0.0,0.0,10.0,0.277368227532,0.0113184346328,-0.0173105470855,1.0,0.0,0.0,0.0,1.0,0.0,0.0,0.0,1.0,0.255069580078,0.473016357422,9.97046630859,0.1,0.0,0.0,0.0,0.1,0.0,0.0,0.0,0.1
1446039176027428324,262,1446039176024364948,robocape,6.99321618526,8.14422359756,12.8061892117,0.0,10.0,0.0,0.0,0.0,10.0,0.0,0.0,0.0,10.0,0.22144184464,0.00412789968962,-0.105461179167,1.0,0.0,0.0,0.0,1.0,0.0,0.0,0.0,1.0,0.265847167969,1.45377685547,9.96088623047,0.1,0.0,0.0,0.0,0.1,0.0,0.0,0.0,0.1
1446039176059302824,263,1446039176056227922,robocape,6.89933798582,8.1543342887,12.7137755985,0.0,10.0,0.0,0.0,0.0,10.0,0.0,0.0,0.0,10.0,-0.0372842552611,0.00692421883421,-0.0379500455336,1.0,0.0,0.0,0.0,1.0,0.0,0.0,0.0,1.0,0.354462890625,1.67651367188,9.95609619141,0.1,0.0,0.0,0.0,0.1,0.0,0.0,0.0,0.1
1446039176093552032,264,1446039176089920043,robocape,6.36406380531,8.15577169409,12.7152279137,0.0,10.0,0.0,0.0,0.0,10.0,0.0,0.0,0.0,10.0,-0.276169805041,0.00772316716123,0.0101200121423,1.0,0.0,0.0,0.0,1.0,0.0,0.0,0.0,1.0,0.277822265625,0.626297607422,10.0255517578,0.1,0.0,0.0,0.0,0.1,0.0,0.0,0.0,0.1
1446039176126398240,265,1446039176123246908,robocape,5.69323987507,8.14411480091,12.6633107461,0.0,10.0,0.0,0.0,0.0,10.0,0.0,0.0,0.0,10.0,-0.343947254784,-0.00253000303558,-0.0173105470855,1.0,0.0,0.0,0.0,1.0,0.0,0.0,0.0,1.0,-0.0910107421875,-0.086220703125,10.1644628906,0.1,0.0,0.0,0.0,0.1,0.0,0.0,0.0,0.1
1446039176158859115,266,1446039176155817031,robocape,4.98371890506,8.11357958279,12.6979847606,0.0,10.0,0.0,0.0,0.0,10.0,0.0,0.0,0.0,10.0,-0.370978339848,-0.00759000910673,0.0287621397729,1.0,0.0,0.0,0.0,1.0,0.0,0.0,0.0,1.0,0.0790356445313,-0.173638916016,10.0171691895,0.1,0.0,0.0,0.0,0.1,0.0,0.0,0.0,0.1
1446039176192150865,267,1446039176189065933,robocape,4.24767018446,8.07559286147,12.7618036246,0.0,10.0,0.0,0.0,0.0,10.0,0.0,0.0,0.0,10.0,-0.387489938607,-0.0103863282513,0.0443416321498,1.0,0.0,0.0,0.0,1.0,0.0,0.0,0.0,1.0,0.0562829589844,-0.368833007813,10.0231567383,0.1,0.0,0.0,0.0,0.1,0.0,0.0,0.0,0.1
1446039176225424949,268,1446039176222209930,robocape,3.58216736898,8.04163753335,12.7522625443,0.0,10.0,0.0,0.0,0.0,10.0,0.0,0.0,0.0,10.0,-0.345678309492,-0.0114515926873,0.00599211245268,1.0,0.0,0.0,0.0,1.0,0.0,0.0,0.0,1.0,0.330512695313,-1.27774291992,10.0506994629,0.1,0.0,0.0,0.0,0.1,0.0,0.0,0.0,0.1
1446039176258664032,269,1446039176255620956,robocape,3.00693246066,8.00901515291,12.7722257935,0.0,10.0,0.0,0.0,0.0,10.0,0.0,0.0,0.0,10.0,-0.300937203179,-0.00958737992429,0.0215716048296,1.0,0.0,0.0,0.0,1.0,0.0,0.0,0.0,1.0,0.225131835938,-1.2226574707,10.1393151855,0.1,0.0,0.0,0.0,0.1,0.0,0.0,0.0,0.1
1446039176291866407,270,1446039176288862943,robocape,2.56353121155,7.96781023229,12.9862022986,0.0,10.0,0.0,0.0,0.0,10.0,0.0,0.0,0.0,10.0,-0.246209242778,-0.00838895743375,0.123836990689,1.0,0.0,0.0,0.0,1.0,0.0,0.0,0.0,1.0,0.189206542969,-2.30640380859,10.0710571289,0.1,0.0,0.0,0.0,0.1,0.0,0.0,0.0,0.1
1446039176325518365,271,1446039176322118043,robocape,2.65018367456,7.98663872698,13.0276257709,0.0,10.0,0.0,0.0,0.0,10.0,0.0,0.0,0.0,10.0,0.0439421579863,0.0183758115215,0.032756881408,1.0,0.0,0.0,0.0,1.0,0.0,0.0,0.0,1.0,0.737666015625,-2.53872070313,9.93214599609,0.1,0.0,0.0,0.0,0.1,0.0,0.0,0.0,0.1
1446039176359819074,272,1446039176356540918,robocape,3.20481812802,8.02068103893,13.0200194536,0.0,10.0,0.0,0.0,0.0,10.0,0.0,0.0,0.0,10.0,0.293080877963,0.0253000303558,0.00705737688871,1.0,0.0,0.0,0.0,1.0,0.0,0.0,0.0,1.0,0.377215576172,-1.38432128906,10.100994873,0.1,0.0,0.0,0.0,0.1,0.0,0.0,0.0,0.1
1446039176391513449,273,1446039176388483047,robocape,3.81596716529,8.04158305094,13.0213015273,0.0,10.0,0.0,0.0,0.0,10.0,0.0,0.0,0.0,10.0,0.322641966063,0.0189084437396,0.0121173829599,1.0,0.0,0.0,0.0,1.0,0.0,0.0,0.0,1.0,-0.0922082519531,-0.559237060547,10.0483044434,0.1,0.0,0.0,0.0,0.1,0.0,0.0,0.0,0.1
1446039176425189116,274,1446039176422032117,robocape,4.36586198854,8.05618307436,13.0341502507,0.0,10.0,0.0,0.0,0.0,10.0,0.0,0.0,0.0,10.0,0.290284558819,0.0162452826495,0.0183758115215,1.0,0.0,0.0,0.0,1.0,0.0,0.0,0.0,1.0,0.201181640625,-0.399968261719,10.0506994629,0.1,0.0,0.0,0.0,0.1,0.0,0.0,0.0,0.1
1446039176458407032,275,1446039176455312967,robocape,4.9117301858,8.08242248989,12.9699751567,0.0,10.0,0.0,0.0,0.0,10.0,0.0,0.0,0.0,10.0,0.294279300454,0.0190416017941,-0.0223705531567,1.0,0.0,0.0,0.0,1.0,0.0,0.0,0.0,1.0,0.285007324219,-0.276624755859,10.055489502,0.1,0.0,0.0,0.0,0.1,0.0,0.0,0.0,0.1
1446039176491518824,276,1446039176488425016,robocape,5.38471672106,8.10147700632,12.9576429172,0.0,10.0,0.0,0.0,0.0,10.0,0.0,0.0,0.0,10.0,0.252867145503,0.017710021249,0.00492684801665,1.0,0.0,0.0,0.0,1.0,0.0,0.0,0.0,1.0,0.17244140625,-0.329315185547,10.0698596191,0.1,0.0,0.0,0.0,0.1,0.0,0.0,0.0,0.1
1446039176525400907,277,1446039176521975994,robocape,5.86700422955,8.12719019977,12.8534382936,0.0,10.0,0.0,0.0,0.0,10.0,0.0,0.0,0.0,10.0,0.264851370408,0.0162452826495,-0.0434095257683,1.0,0.0,0.0,0.0,1.0,0.0,0.0,0.0,1.0,0.263452148438,-0.331710205078,10.0183666992,0.1,0.0,0.0,0.0,0.1,0.0,0.0,0.0,0.1
1446039176558608532,278,1446039176555433988,robocape,6.27194700818,8.14861760009,12.5960814223,0.0,10.0,0.0,0.0,0.0,10.0,0.0,0.0,0.0,10.0,0.235689756472,0.00452737385313,-0.123437516525,1.0,0.0,0.0,0.0,1.0,0.0,0.0,0.0,1.0,0.0814306640625,0.758023681641,10.019564209,0.1,0.0,0.0,0.0,0.1,0.0,0.0,0.0,0.1
1446039176591963199,279,1446039176588938951,robocape,6.2581011003,8.16005227387,12.4540543018,0.0,10.0,0.0,0.0,0.0,10.0,0.0,0.0,0.0,10.0,0.00772316716123,0.00519316412565,-0.0639158661619,1.0,0.0,0.0,0.0,1.0,0.0,0.0,0.0,1.0,0.275427246094,1.20469482422,9.97645385742,0.1,0.0,0.0,0.0,0.1,0.0,0.0,0.0,0.1
1446039176625843657,280,1446039176622616052,robocape,5.8784641957,8.16757370615,12.4624399327,0.0,10.0,0.0,0.0,0.0,10.0,0.0,0.0,0.0,10.0,-0.195342865957,0.0115847507418,0.0137152796139,1.0,0.0,0.0,0.0,1.0,0.0,0.0,0.0,1.0,-0.0682580566406,0.499361572266,10.0782421875,0.1,0.0,0.0,0.0,0.1,0.0,0.0,0.0,0.1
1446039176658526949,281,1446039176655338048,robocape,5.3479737935,8.15819510463,12.4993490134,0.0,10.0,0.0,0.0,0.0,10.0,0.0,0.0,0.0,10.0,-0.276968753368,0.00399474163512,0.0291616139364,1.0,0.0,0.0,0.0,1.0,0.0,0.0,0.0,1.0,0.0431103515625,0.4215234375,10.0638720703,0.1,0.0,0.0,0.0,0.1,0.0,0.0,0.0,0.1
1446039176692605866,282,1446039176689511060,robocape,4.49107060558,8.08419731157,13.0505848546,0.0,10.0,0.0,0.0,0.0,10.0,0.0,0.0,0.0,10.0,-0.486026898939,-0.00559263828917,0.300404570961,1.0,0.0,0.0,0.0,1.0,0.0,0.0,0.0,1.0,0.180823974609,-0.270637207031,9.90101074219,0.1,0.0,0.0,0.0,0.1,0.0,0.0,0.0,0.1
1446039176724759616,283,1446039176721760988,robocape,3.77239475679,8.0538860089,13.2288094308,0.0,10.0,0.0,0.0,0.0,10.0,0.0,0.0,0.0,10.0,-0.386957306389,-0.00173105470855,0.104529072786,1.0,0.0,0.0,0.0,1.0,0.0,0.0,0.0,1.0,0.47900390625,-2.54231323242,10.0351318359,0.1,0.0,0.0,0.0,0.1,0.0,0.0,0.0,0.1
1446039176758374157,284,1446039176755148887,robocape,3.66108570794,8.04924468464,13.2236050931,0.0,10.0,0.0,0.0,0.0,10.0,0.0,0.0,0.0,10.0,-0.0555269087282,0.00479368996214,0.00878843159726,1.0,0.0,0.0,0.0,1.0,0.0,0.0,0.0,1.0,0.159268798828,-1.69088378906,9.97765136719,0.1,0.0,0.0,0.0,0.1,0.0,0.0,0.0,0.1
1446039176791844616,285,1446039176788697004,robocape,3.88703456888,8.06847467177,13.1270455959,0.0,10.0,0.0,0.0,0.0,10.0,0.0,0.0,0.0,10.0,0.127964890378,0.0141147537774,-0.0394147841332,1.0,0.0,0.0,0.0,1.0,0.0,0.0,0.0,1.0,0.225131835938,-1.65495849609,10.0530944824,0.1,0.0,0.0,0.0,0.1,0.0,0.0,0.0,0.1
1446039176825023532,286,1446039176822010993,robocape,4.39950222026,8.11329698523,12.753754822,0.0,10.0,0.0,0.0,0.0,10.0,0.0,0.0,0.0,10.0,0.298540358198,0.0159789665405,-0.185089695761,1.0,0.0,0.0,0.0,1.0,0.0,0.0,0.0,1.0,0.3065625,-0.916094970703,10.0854272461,0.1,0.0,0.0,0.0,0.1,0.0,0.0,0.0,0.1
1446039176858297241,287,1446039176855273962,robocape,5.00142900175,8.17612140242,12.2526944741,0.0,10.0,0.0,0.0,0.0,10.0,0.0,0.0,0.0,10.0,0.355398847471,0.0178431793035,-0.252733987449,1.0,0.0,0.0,0.0,1.0,0.0,0.0,0.0,1.0,0.190404052734,-0.146096191406,10.0495019531,0.1,0.0,0.0,0.0,0.1,0.0,0.0,0.0,0.1
1446039176891405366,288,1446039176888339996,robocape,5.36176127395,8.20527715003,12.0301873782,0.0,10.0,0.0,0.0,0.0,10.0,0.0,0.0,0.0,10.0,0.209058145571,0.0121173829599,-0.106393285549,1.0,0.0,0.0,0.0,1.0,0.0,0.0,0.0,1.0,0.148491210938,0.391585693359,10.039921875,0.1,0.0,0.0,0.0,0.1,0.0,0.0,0.0,0.1
1446039176925725991,289,1446039176922384977,robocape,5.42469390857,8.20425241605,12.0189130031,0.0,10.0,0.0,0.0,0.0,10.0,0.0,0.0,0.0,10.0,0.0378168874791,0.0066579027252,0.00452737385313,1.0,0.0,0.0,0.0,1.0,0.0,0.0,0.0,1.0,0.0946032714844,0.119750976563,10.0662670898,0.1,0.0,0.0,0.0,0.1,0.0,0.0,0.0,0.1
1446039176958471282,290,1446039176955228090,robocape,5.39417601178,8.20591098112,12.016431969,0.0,10.0,0.0,0.0,0.0,10.0,0.0,0.0,0.0,10.0,-0.0118510668509,0.00838895743375,0.00878843159726,1.0,0.0,0.0,0.0,1.0,0.0,0.0,0.0,1.0,0.228724365234,0.00838256835938,10.0578845215,0.1,0.0,0.0,0.0,0.1,0.0,0.0,0.0,0.1
1446039176991690324,291,1446039176988351106,robocape,5.26768699151,8.20255965916,12.0416982865,0.0,10.0,0.0,0.0,0.0,10.0,0.0,0.0,0.0,10.0,-0.0643153403254,0.00705737688871,0.0233026595382,1.0,0.0,0.0,0.0,1.0,0.0,0.0,0.0,1.0,0.182021484375,-0.0898132324219,10.0614770508,0.1,0.0,0.0,0.0,0.1,0.0,0.0,0.0,0.1
1446039177025181657,292,1446039177021768093,robocape,5.10573203158,8.1961809946,12.040026988,0.0,10.0,0.0,0.0,0.0,10.0,0.0,0.0,0.0,10.0,-0.0810932551929,0.00399474163512,0.00932106381528,1.0,0.0,0.0,0.0,1.0,0.0,0.0,0.0,1.0,0.250279541016,-0.261057128906,10.039921875,0.1,0.0,0.0,0.0,0.1,0.0,0.0,0.0,0.1
1446039177058752366,293,1446039177055248022,robocape,4.80605796218,8.18190458443,12.1439897792,0.0,10.0,0.0,0.0,0.0,10.0,0.0,0.0,0.0,10.0,-0.161254404004,0.00479368996214,0.0645816564344,1.0,0.0,0.0,0.0,1.0,0.0,0.0,0.0,1.0,0.164058837891,0.655037841797,10.0794396973,0.1,0.0,0.0,0.0,0.1,0.0,0.0,0.0,0.1
1446039177091862283,294,1446039177088566064,robocape,4.06959981886,8.10692162217,12.8219195187,0.0,10.0,0.0,0.0,0.0,10.0,0.0,0.0,0.0,10.0,-0.432630519083,-0.00279631914458,0.366584124049,1.0,0.0,0.0,0.0,1.0,0.0,0.0,0.0,1.0,0.13412109375,-0.183218994141,9.98483642578,0.1,0.0,0.0,0.0,0.1,0.0,0.0,0.0,0.1
1446039177124906241,295,1446039177121701955,robocape,3.63480611048,8.08118091026,13.0442932063,0.0,10.0,0.0,0.0,0.0,10.0,0.0,0.0,0.0,10.0,-0.24154871087,0.00226368692657,0.127831732324,1.0,0.0,0.0,0.0,1.0,0.0,0.0,0.0,1.0,0.130528564453,-2.23335571289,9.94651611328,0.1,0.0,0.0,0.0,0.1,0.0,0.0,0.0,0.1
1446039177158435616,296,1446039177155113935,robocape,3.77552162744,8.08920530811,13.050930544,0.0,10.0,0.0,0.0,0.0,10.0,0.0,0.0,0.0,10.0,0.0757669330128,0.0121173829599,0.0147805440499,1.0,0.0,0.0,0.0,1.0,0.0,0.0,0.0,1.0,0.365240478516,-1.62861328125,10.019564209,0.1,0.0,0.0,0.0,0.1,0.0,0.0,0.0,0.1
1446039177191815199,297,1446039177188538074,robocape,4.07444976384,8.10243598472,13.0439949492,0.0,10.0,0.0,0.0,0.0,10.0,0.0,0.0,0.0,10.0,0.159922823459,0.0145142279409,0.00772316716123,1.0,0.0,0.0,0.0,1.0,0.0,0.0,0.0,1.0,0.106578369141,-1.11368408203,9.99082397461,0.1,0.0,0.0,0.0,0.1,0.0,0.0,0.0,0.1
1446039177224828491,298,1446039177221832036,robocape,4.39303986481,8.11611990755,13.0014815872,0.0,10.0,0.0,0.0,0.0,10.0,0.0,0.0,0.0,10.0,0.173105470855,0.0133158054504,-0.0109189604693,1.0,0.0,0.0,0.0,1.0,0.0,0.0,0.0,1.0,0.269439697266,-0.671802978516,9.99561401367,0.1,0.0,0.0,0.0,0.1,0.0,0.0,0.0,0.1
1446039177258918866,299,1446039177255614995,robocape,4.71251090213,8.12714327066,12.9641590243,0.0,10.0,0.0,0.0,0.0,10.0,0.0,0.0,0.0,10.0,0.173504945019,0.0121173829599,-0.00812264132474,1.0,0.0,0.0,0.0,1.0,0.0,0.0,0.0,1.0,0.285007324219,-0.566422119141,10.0471069336,0.1,0.0,0.0,0.0,0.1,0.0,0.0,0.0,0.1
1446039177291893699,300,1446039177288860082,robocape,5.02824854125,8.13818664328,12.929925761,0.0,10.0,0.0,0.0,0.0,10.0,0.0,0.0,0.0,10.0,0.171640732256,0.0122505410144,-0.00652474467069,1.0,0.0,0.0,0.0,1.0,0.0,0.0,0.0,1.0,0.204774169922,-0.507744140625,10.0734521484,0.1,0.0,0.0,0.0,0.1,0.0,0.0,0.0,0.1
1446039177332524783,301,1446039177322252035,robocape,5.34631530611,8.15094885562,12.891265367,0.0,10.0,0.0,0.0,0.0,10.0,0.0,0.0,0.0,10.0,0.173504945019,0.0129163312869,-0.00892158965177,1.0,0.0,0.0,0.0,1.0,0.0,0.0,0.0,1.0,0.1916015625,-0.476608886719,10.0830322266,0.1,0.0,0.0,0.0,0.1,0.0,0.0,0.0,0.1
1446039177366623574,302,1446039177362979888,robocape,5.6689108812,8.16494462545,12.8606159591,0.0,10.0,0.0,0.0,0.0,10.0,0.0,0.0,0.0,10.0,0.175635473891,0.0139815957229,-0.00479368996214,1.0,0.0,0.0,0.0,1.0,0.0,0.0,0.0,1.0,0.220341796875,-0.235909423828,10.0099841309,0.1,0.0,0.0,0.0,0.1,0.0,0.0,0.0,0.1
1446039177392211199,303,1446039177388839960,robocape,5.96466854608,8.17508792146,12.8310135229,0.0,10.0,0.0,0.0,0.0,10.0,0.0,0.0,0.0,10.0,0.161787036222,0.0119842249054,-0.00412789968962,1.0,0.0,0.0,0.0,1.0,0.0,0.0,0.0,1.0,0.234711914063,-0.165256347656,10.0027990723,0.1,0.0,0.0,0.0,0.1,0.0,0.0,0.0,0.1
1446039177426929283,304,1446039177423722982,robocape,6.15274201795,8.18013018057,12.820281767,0.0,10.0,0.0,0.0,0.0,10.0,0.0,0.0,0.0,10.0,0.104129598622,0.0102531701968,0.00572579634367,1.0,0.0,0.0,0.0,1.0,0.0,0.0,0.0,1.0,0.219144287109,0.204774169922,10.0219592285,0.1,0.0,0.0,0.0,0.1,0.0,0.0,0.0,0.1
1446039177459258616,305,1446039177456226110,robocape,6.19505369345,8.18269571372,12.8151126218,0.0,10.0,0.0,0.0,0.0,10.0,0.0,0.0,0.0,10.0,0.0272974011733,0.00905474770627,0.00838895743375,1.0,0.0,0.0,0.0,1.0,0.0,0.0,0.0,1.0,0.1916015625,0.349672851562,10.0447119141,0.1,0.0,0.0,0.0,0.1,0.0,0.0,0.0,0.1
1446039177493702574,306,1446039177490418910,robocape,6.09182213616,8.18229189037,12.8114004544,0.0,10.0,0.0,0.0,0.0,10.0,0.0,0.0,0.0,10.0,-0.0492684801665,0.00732369299772,0.00892158965177,1.0,0.0,0.0,0.0,1.0,0.0,0.0,0.0,1.0,0.213156738281,0.156873779297,10.0303417969,0.1,0.0,0.0,0.0,0.1,0.0,0.0,0.0,0.1
1446039177526967074,307,1446039177523710966,robocape,5.90486507911,8.18038274959,12.81483934,0.0,10.0,0.0,0.0,0.0,10.0,0.0,0.0,0.0,10.0,-0.0938764284253,0.0067910607797,0.0125168571234,1.0,0.0,0.0,0.0,1.0,0.0,0.0,0.0,1.0,0.209564208984,-0.232316894531,10.0375268555,0.1,0.0,0.0,0.0,0.1,0.0,0.0,0.0,0.1
1446039177566111741,308,1446039177562680959,robocape,5.71602933418,8.17660731568,12.8078934961,0.0,10.0,0.0,0.0,0.0,10.0,0.0,0.0,0.0,10.0,-0.0942759025888,0.00519316412565,0.00719053494321,1.0,0.0,0.0,0.0,1.0,0.0,0.0,0.0,1.0,0.259859619141,-0.576002197266,10.060279541,0.1,0.0,0.0,0.0,0.1,0.0,0.0,0.0,0.1
1446039177595472908,309,1446039177591269016,robocape,5.59435711993,8.17360014114,12.8134484809,0.0,10.0,0.0,0.0,0.0,10.0,0.0,0.0,0.0,10.0,-0.0600542825813,0.00639158661619,0.0138484376684,1.0,0.0,0.0,0.0,1.0,0.0,0.0,0.0,1.0,0.184416503906,-0.70892578125,10.0662670898,0.1,0.0,0.0,0.0,0.1,0.0,0.0,0.0,0.1
1446039177628432074,310,1446039177625276088,robocape,5.57234468311,8.17278723017,12.8123735726,0.0,10.0,0.0,0.0,0.0,10.0,0.0,0.0,0.0,10.0,-0.00732369299772,0.00732369299772,0.0105194863058,1.0,0.0,0.0,0.0,1.0,0.0,0.0,0.0,1.0,0.271834716797,-0.966390380859,10.0770446777,0.1,0.0,0.0,0.0,0.1,0.0,0.0,0.0,0.1
1446039177661698408,311,1446039177658042907,robocape,6.00287410731,8.22363399276,12.442918716,0.0,10.0,0.0,0.0,0.0,10.0,0.0,0.0,0.0,10.0,0.257128203247,0.0142479118319,-0.183491799106,1.0,0.0,0.0,0.0,1.0,0.0,0.0,0.0,1.0,0.147293701172,-1.02387084961,10.1117724609,0.1,0.0,0.0,0.0,0.1,0.0,0.0,0.0,0.1
1446039177695697991,312,1446039177691545009,robocape,6.49039624898,8.27650811155,11.912723909,0.0,10.0,0.0,0.0,0.0,10.0,0.0,0.0,0.0,10.0,0.299339306525,0.00426105774413,-0.267514531498,1.0,0.0,0.0,0.0,1.0,0.0,0.0,0.0,1.0,0.102985839844,0.771196289063,10.0255517578,0.1,0.0,0.0,0.0,0.1,0.0,0.0,0.0,0.1
1446039177728802408,313,1446039177725769042,robocape,6.58434613039,8.29832726232,11.5340994577,0.0,10.0,0.0,0.0,0.0,10.0,0.0,0.0,0.0,10.0,0.0820253615744,-0.00439421579863,-0.18801917296,1.0,0.0,0.0,0.0,1.0,0.0,0.0,0.0,1.0,0.264649658203,1.1915222168,9.91418334961,0.1,0.0,0.0,0.0,0.1,0.0,0.0,0.0,0.1
1446039177761580616,314,1446039177758100986,robocape,6.28078844474,8.31905989479,11.199492003,0.0,10.0,0.0,0.0,0.0,10.0,0.0,0.0,0.0,10.0,-0.129962261196,-0.00266316109008,-0.166314410075,1.0,0.0,0.0,0.0,1.0,0.0,0.0,0.0,1.0,0.217946777344,0.996328125,9.82437011719,0.1,0.0,0.0,0.0,0.1,0.0,0.0,0.0,0.1
1446039177796098241,315,1446039177791899919,robocape,5.66144124278,8.30425995456,10.918039167,0.0,10.0,0.0,0.0,0.0,10.0,0.0,0.0,0.0,10.0,-0.300005096797,-0.01744370514,-0.137818586412,1.0,0.0,0.0,0.0,1.0,0.0,0.0,0.0,1.0,0.0263452148438,0.482596435547,9.96208374023,0.1,0.0,0.0,0.0,0.1,0.0,0.0,0.0,0.1
1446039177828451116,316,1446039177825030088,robocape,4.7878071469,8.25508752182,10.8259939516,0.0,10.0,0.0,0.0,0.0,10.0,0.0,0.0,0.0,10.0,-0.447943695351,-0.0243679239742,-0.0384826777516,1.0,0.0,0.0,0.0,1.0,0.0,0.0,0.0,1.0,0.0850231933594,0.508941650391,9.94292358398,0.1,0.0,0.0,0.0,0.1,0.0,0.0,0.0,0.1
1446039177861496616,317,1446039177858270883,robocape,3.71471819018,8.17989827163,10.8293163972,0.0,10.0,0.0,0.0,0.0,10.0,0.0,0.0,0.0,10.0,-0.560195935298,-0.0334226716805,0.0115847507418,1.0,0.0,0.0,0.0,1.0,0.0,0.0,0.0,1.0,0.372425537109,-0.760418701172,10.0231567383,0.1,0.0,0.0,0.0,0.1,0.0,0.0,0.0,0.1
1446039177895635616,318,1446039177892036914,robocape,2.69994032218,8.09801030099,10.8815331911,0.0,10.0,0.0,0.0,0.0,10.0,0.0,0.0,0.0,10.0,-0.533830640506,-0.035153726389,0.0371510972066,1.0,0.0,0.0,0.0,1.0,0.0,0.0,0.0,1.0,0.138911132813,-1.73758666992,10.055489502,0.1,0.0,0.0,0.0,0.1,0.0,0.0,0.0,0.1
1446039177930018116,319,1446039177926732063,robocape,2.13881887232,8.04215719826,10.8735328719,0.0,10.0,0.0,0.0,0.0,10.0,0.0,0.0,0.0,10.0,-0.292148771582,-0.0229031853747,0.00545948023466,1.0,0.0,0.0,0.0,1.0,0.0,0.0,0.0,1.0,0.211959228516,-2.45369750977,10.060279541,0.1,0.0,0.0,0.0,0.1,0.0,0.0,0.0,0.1
1446039177961822658,320,1446039177958417892,robocape,1.98740108824,8.03046813457,10.870279436,0.0,10.0,0.0,0.0,0.0,10.0,0.0,0.0,0.0,10.0,-0.0780306199393,0.00066579027252,0.00745685105222,1.0,0.0,0.0,0.0,1.0,0.0,0.0,0.0,1.0,0.758023681641,-2.51237548828,10.024354248,0.1,0.0,0.0,0.0,0.1,0.0,0.0,0.0,0.1
1446039177995885866,321,1446039177992417097,robocape,2.20323650064,8.05891811807,10.8922553695,0.0,10.0,0.0,0.0,0.0,10.0,0.0,0.0,0.0,10.0,0.11265171411,0.0225037112112,0.0202400242846,1.0,0.0,0.0,0.0,1.0,0.0,0.0,0.0,1.0,0.433498535156,-2.05971679688,10.100994873,0.1,0.0,0.0,0.0,0.1,0.0,0.0,0.0,0.1
1446039178027974366,322,1446039178024779081,robocape,2.6550220711,8.10519306381,10.9854101882,0.0,10.0,0.0,0.0,0.0,10.0,0.0,0.0,0.0,10.0,0.231428698728,0.0339553038985,0.0572579634367,1.0,0.0,0.0,0.0,1.0,0.0,0.0,0.0,1.0,0.366437988281,-1.43341918945,9.98962646484,0.1,0.0,0.0,0.0,0.1,0.0,0.0,0.0,0.1
1446039178061046575,323,1446039178057849884,robocape,3.21280114631,8.15396844375,11.1452885038,0.0,10.0,0.0,0.0,0.0,10.0,0.0,0.0,0.0,10.0,0.282561391657,0.0379500455336,0.0921453737167,1.0,0.0,0.0,0.0,1.0,0.0,0.0,0.0,1.0,0.47900390625,-1.03704345703,9.99321899414,0.1,0.0,0.0,0.0,0.1,0.0,0.0,0.0,0.1
1446039178094086075,324,1446039178090759038,robocape,3.75198995668,8.1740691183,11.3606300772,0.0,10.0,0.0,0.0,0.0,10.0,0.0,0.0,0.0,10.0,0.269245586207,0.0258326625738,0.121972777926,1.0,0.0,0.0,0.0,1.0,0.0,0.0,0.0,1.0,-0.199984130859,0.0203576660156,10.1237475586,0.1,0.0,0.0,0.0,0.1,0.0,0.0,0.0,0.1
1446039178127554991,325,1446039178124396085,robocape,3.8808726386,8.16697652729,11.8532517005,0.0,10.0,0.0,0.0,0.0,10.0,0.0,0.0,0.0,10.0,0.034088461953,0.0226368692657,0.267647689553,1.0,0.0,0.0,0.0,1.0,0.0,0.0,0.0,1.0,-0.0347277832031,-0.111368408203,10.1824255371,0.1,0.0,0.0,0.0,0.1,0.0,0.0,0.0,0.1
1446039178160478658,326,1446039178157356023,robocape,3.98654021815,8.15567387986,12.2837757781,0.0,10.0,0.0,0.0,0.0,10.0,0.0,0.0,0.0,10.0,0.0266316109008,0.0186421276306,0.235956072581,1.0,0.0,0.0,0.0,1.0,0.0,0.0,0.0,1.0,0.59396484375,-0.899329833984,10.0459094238,0.1,0.0,0.0,0.0,0.1,0.0,0.0,0.0,0.1
1446039178193724158,327,1446039178190659999,robocape,4.31331292846,8.16145198946,12.5206982731,0.0,10.0,0.0,0.0,0.0,10.0,0.0,0.0,0.0,10.0,0.15699334626,0.0207726565026,0.134889109213,1.0,0.0,0.0,0.0,1.0,0.0,0.0,0.0,1.0,0.1149609375,-1.10051147461,10.039921875,0.1,0.0,0.0,0.0,0.1,0.0,0.0,0.0,0.1
1446039178226629533,328,1446039178223520994,robocape,4.75810328195,8.16741661505,12.5927306937,0.0,10.0,0.0,0.0,0.0,10.0,0.0,0.0,0.0,10.0,0.231295540673,0.0145142279409,0.0490021640575,1.0,0.0,0.0,0.0,1.0,0.0,0.0,0.0,1.0,0.217946777344,-0.578397216797,10.0363293457,0.1,0.0,0.0,0.0,0.1,0.0,0.0,0.0,0.1
1446039178260353241,329,1446039178257303953,robocape,5.22464640327,8.18630819081,12.5608945809,0.0,10.0,0.0,0.0,0.0,10.0,0.0,0.0,0.0,10.0,0.250736616631,0.016644756813,-0.00572579634367,1.0,0.0,0.0,0.0,1.0,0.0,0.0,0.0,1.0,0.294587402344,-0.410745849609,10.0590820312,0.1,0.0,0.0,0.0,0.1,0.0,0.0,0.0,0.1
1446039178294872366,330,1446039178291801929,robocape,5.67523659428,8.20692373786,12.5121990503,0.0,10.0,0.0,0.0,0.0,10.0,0.0,0.0,0.0,10.0,0.244078713906,0.016644756813,-0.0146473859954,1.0,0.0,0.0,0.0,1.0,0.0,0.0,0.0,1.0,0.178428955078,-0.380808105469,10.0770446777,0.1,0.0,0.0,0.0,0.1,0.0,0.0,0.0,0.1
1446039178331990408,331,1446039178323476076,robocape,6.0805080802,8.22483210668,12.4925280619,0.0,10.0,0.0,0.0,0.0,10.0,0.0,0.0,0.0,10.0,0.218645525496,0.0167779148675,0.000532632218016,1.0,0.0,0.0,0.0,1.0,0.0,0.0,0.0,1.0,0.141306152344,-0.24908203125,10.0087866211,0.1,0.0,0.0,0.0,0.1,0.0,0.0,0.0,0.1
1446039178361102200,332,1446039178358007907,robocape,6.43297601354,8.23280241927,12.4889119113,0.0,10.0,0.0,0.0,0.0,10.0,0.0,0.0,0.0,10.0,0.190149701832,0.0125168571234,0.00932106381528,1.0,0.0,0.0,0.0,1.0,0.0,0.0,0.0,1.0,0.220341796875,0.155676269531,10.003996582,0.1,0.0,0.0,0.0,0.1,0.0,0.0,0.0,0.1
1446039178392359950,333,1446039178389241933,robocape,6.63161365875,8.23891432612,12.4786499281,0.0,10.0,0.0,0.0,0.0,10.0,0.0,0.0,0.0,10.0,0.110121711075,0.0109189604693,0.00559263828917,1.0,0.0,0.0,0.0,1.0,0.0,0.0,0.0,1.0,0.201181640625,0.307760009766,10.0016015625,0.1,0.0,0.0,0.0,0.1,0.0,0.0,0.0,0.1
1446039178425622158,334,1446039178422533035,robocape,6.62997601249,8.23933315906,12.4749375749,0.0,10.0,0.0,0.0,0.0,10.0,0.0,0.0,0.0,10.0,0.00452737385313,0.00798948327024,0.00878843159726,1.0,0.0,0.0,0.0,1.0,0.0,0.0,0.0,1.0,0.256267089844,0.441881103516,10.039921875,0.1,0.0,0.0,0.0,0.1,0.0,0.0,0.0,0.1
1446039178458827408,335,1446039178455759048,robocape,6.4583728682,8.23694978574,12.4746386926,0.0,10.0,0.0,0.0,0.0,10.0,0.0,0.0,0.0,10.0,-0.085087996828,0.00639158661619,0.0102531701968,1.0,0.0,0.0,0.0,1.0,0.0,0.0,0.0,1.0,0.17244140625,0.128133544922,10.0267492676,0.1,0.0,0.0,0.0,0.1,0.0,0.0,0.0,0.1
1446039178491895658,336,1446039178488804101,robocape,6.31115920709,8.24089461984,12.390366227,0.0,10.0,0.0,0.0,0.0,10.0,0.0,0.0,0.0,10.0,-0.066312711143,0.00452737385313,-0.033822145844,1.0,0.0,0.0,0.0,1.0,0.0,0.0,0.0,1.0,0.233514404297,-0.962797851563,10.0435144043,0.1,0.0,0.0,0.0,0.1,0.0,0.0,0.0,0.1
1446039178525169200,337,1446039178522063016,robocape,6.42254250067,8.27749039685,12.0172417597,0.0,10.0,0.0,0.0,0.0,10.0,0.0,0.0,0.0,10.0,0.0905474770627,0.00426105774413,-0.185622327979,1.0,0.0,0.0,0.0,1.0,0.0,0.0,0.0,1.0,0.215551757813,-0.0431103515625,10.0411193848,0.1,0.0,0.0,0.0,0.1,0.0,0.0,0.0,0.1
1446039178558541867,338,1446039178555371046,robocape,6.34742966492,8.30178978548,11.7395584907,0.0,10.0,0.0,0.0,0.0,10.0,0.0,0.0,0.0,10.0,-0.0142479118319,0.0033289513626,-0.135954373649,1.0,0.0,0.0,0.0,1.0,0.0,0.0,0.0,1.0,0.116158447266,0.264649658203,10.0483044434,0.1,0.0,0.0,0.0,0.1,0.0,0.0,0.0,0.1
1446039178591622908,339,1446039178588540077,robocape,6.06500728025,8.30461415994,11.6152483483,0.0,10.0,0.0,0.0,0.0,10.0,0.0,0.0,0.0,10.0,-0.134489635049,0.00133158054504,-0.0556600667827,1.0,0.0,0.0,0.0,1.0,0.0,0.0,0.0,1.0,0.17244140625,0.267044677734,10.0770446777,0.1,0.0,0.0,0.0,0.1,0.0,0.0,0.0,0.1
1446039178624895742,340,1446039178621841907,robocape,5.65312369913,8.28635014173,11.6292190039,0.0,10.0,0.0,0.0,0.0,10.0,0.0,0.0,0.0,10.0,-0.212919729152,-0.00173105470855,0.0170442309765,1.0,0.0,0.0,0.0,1.0,0.0,0.0,0.0,1.0,0.152083740234,-0.390388183594,10.0483044434,0.1,0.0,0.0,0.0,0.1,0.0,0.0,0.0,0.1
1446039178658456450,341,1446039178655112028,robocape,5.2412163018,8.26634433568,11.6641889529,0.0,10.0,0.0,0.0,0.0,10.0,0.0,0.0,0.0,10.0,-0.214783941915,-0.00159789665405,0.0280963495003,1.0,0.0,0.0,0.0,1.0,0.0,0.0,0.0,1.0,0.244291992188,-0.404758300781,10.0375268555,0.1,0.0,0.0,0.0,0.1,0.0,0.0,0.0,0.1
1446039178691638325,342,1446039178688615083,robocape,4.81133408773,8.2433210218,11.7078290086,0.0,10.0,0.0,0.0,0.0,10.0,0.0,0.0,0.0,10.0,-0.225170270166,-0.00292947719909,0.032756881408,1.0,0.0,0.0,0.0,1.0,0.0,0.0,0.0,1.0,0.300574951172,-0.390388183594,10.0435144043,0.1,0.0,0.0,0.0,0.1,0.0,0.0,0.0,0.1
1446039178724954700,343,1446039178721931934,robocape,4.33985445631,8.21879606687,11.7126808835,0.0,10.0,0.0,0.0,0.0,10.0,0.0,0.0,0.0,10.0,-0.244478188069,-0.00572579634367,0.0125168571234,1.0,0.0,0.0,0.0,1.0,0.0,0.0,0.0,1.0,0.17244140625,-0.693358154297,10.0650695801,0.1,0.0,0.0,0.0,0.1,0.0,0.0,0.0,0.1
1446039178759245992,344,1446039178755835056,robocape,3.98350910917,8.19498161973,11.7250996092,0.0,10.0,0.0,0.0,0.0,10.0,0.0,0.0,0.0,10.0,-0.184956537706,-0.00492684801665,0.016644756813,1.0,0.0,0.0,0.0,1.0,0.0,0.0,0.0,1.0,0.234711914063,-1.05141357422,10.0662670898,0.1,0.0,0.0,0.0,0.1,0.0,0.0,0.0,0.1
1446039178791954867,345,1446039178788923978,robocape,3.82378432058,8.1868329417,11.71016125,0.0,10.0,0.0,0.0,0.0,10.0,0.0,0.0,0.0,10.0,-0.0800279907569,0.00239684498107,0.00213052887206,1.0,0.0,0.0,0.0,1.0,0.0,0.0,0.0,1.0,0.247884521484,-1.53880004883,10.039921875,0.1,0.0,0.0,0.0,0.1,0.0,0.0,0.0,0.1
1446039178825128492,346,1446039178822105884,robocape,3.86148768479,8.19130244441,11.7046462323,0.0,10.0,0.0,0.0,0.0,10.0,0.0,0.0,0.0,10.0,0.0227700273202,0.00958737992429,0.00692421883421,1.0,0.0,0.0,0.0,1.0,0.0,0.0,0.0,1.0,0.158071289063,-1.44898681641,10.0770446777,0.1,0.0,0.0,0.0,0.1,0.0,0.0,0.0,0.1
1446039178858505533,347,1446039178855164051,robocape,4.06749361641,8.20893564254,11.6913826998,0.0,10.0,0.0,0.0,0.0,10.0,0.0,0.0,0.0,10.0,0.111719607729,0.016378440704,0.00266316109008,1.0,0.0,0.0,0.0,1.0,0.0,0.0,0.0,1.0,0.397573242188,-1.08853637695,10.0518969727,0.1,0.0,0.0,0.0,0.1,0.0,0.0,0.0,0.1
1446039178891863533,348,1446039178888758897,robocape,4.33492752508,8.22998813301,11.6774717996,0.0,10.0,0.0,0.0,0.0,10.0,0.0,0.0,0.0,10.0,0.144210173028,0.018242653467,0.00226368692657,1.0,0.0,0.0,0.0,1.0,0.0,0.0,0.0,1.0,0.0934057617188,-0.659827880859,10.0075891113,0.1,0.0,0.0,0.0,0.1,0.0,0.0,0.0,0.1
1446039178925056283,349,1446039178921947002,robocape,4.55408278021,8.24298846422,11.6481595776,0.0,10.0,0.0,0.0,0.0,10.0,0.0,0.0,0.0,10.0,0.120241723217,0.0133158054504,-0.00559263828917,1.0,0.0,0.0,0.0,1.0,0.0,0.0,0.0,1.0,0.261057128906,-0.408350830078,9.97405883789,0.1,0.0,0.0,0.0,0.1,0.0,0.0,0.0,0.1
1446039178958553158,350,1446039178955261945,robocape,4.68498879479,8.25053835955,11.6343227382,0.0,10.0,0.0,0.0,0.0,10.0,0.0,0.0,0.0,10.0,0.0729706138682,0.0110521185238,0.00253000303558,1.0,0.0,0.0,0.0,1.0,0.0,0.0,0.0,1.0,0.252674560547,-0.317340087891,10.0123791504,0.1,0.0,0.0,0.0,0.1,0.0,0.0,0.0,0.1
1446039178993968408,351,1446039178990750074,robocape,4.7402442295,8.25254313255,11.6305365001,0.0,10.0,0.0,0.0,0.0,10.0,0.0,0.0,0.0,10.0,0.0326237233535,0.00852211548825,0.00785632521573,1.0,0.0,0.0,0.0,1.0,0.0,0.0,0.0,1.0,0.190404052734,-0.276624755859,10.0207617188,0.1,0.0,0.0,0.0,0.1,0.0,0.0,0.0,0.1
1446039179024853867,352,1446039179021786928,robocape,4.59242397183,8.24817579733,11.7309488026,0.0,10.0,0.0,0.0,0.0,10.0,0.0,0.0,0.0,10.0,-0.0816258874109,0.00972053797879,0.0621848114534,1.0,0.0,0.0,0.0,1.0,0.0,0.0,0.0,1.0,0.140108642578,0.78556640625,10.1141674805,0.1,0.0,0.0,0.0,0.1,0.0,0.0,0.0,0.1
1446039179059099283,353,1446039179055865049,robocape,4.07017616634,8.18186571619,12.2183819754,0.0,10.0,0.0,0.0,0.0,10.0,0.0,0.0,0.0,10.0,-0.306796157577,-0.00692421883421,0.266316109008,1.0,0.0,0.0,0.0,1.0,0.0,0.0,0.0,1.0,0.441881103516,-1.54359008789,10.100994873,0.1,0.0,0.0,0.0,0.1,0.0,0.0,0.0,0.1
1446039179091783825,354,1446039179088718891,robocape,4.04235268548,8.17312324629,12.4245426203,0.0,10.0,0.0,0.0,0.0,10.0,0.0,0.0,0.0,10.0,-0.0268979270098,0.0113184346328,0.118643826563,1.0,0.0,0.0,0.0,1.0,0.0,0.0,0.0,1.0,0.208366699219,-2.12677734375,10.0590820312,0.1,0.0,0.0,0.0,0.1,0.0,0.0,0.0,0.1
1446039179124752533,355,1446039179121666908,robocape,4.42498052314,8.19782585662,12.4359890432,0.0,10.0,0.0,0.0,0.0,10.0,0.0,0.0,0.0,10.0,0.20279971701,0.0214384467751,0.016378440704,1.0,0.0,0.0,0.0,1.0,0.0,0.0,0.0,1.0,0.277822265625,-1.10051147461,10.100994873,0.1,0.0,0.0,0.0,0.1,0.0,0.0,0.0,0.1
1446039179158300700,356,1446039179155101060,robocape,4.84777053375,8.20838635543,12.4422131528,0.0,10.0,0.0,0.0,0.0,10.0,0.0,0.0,0.0,10.0,0.224637637948,0.0139815957229,0.0142479118319,1.0,0.0,0.0,0.0,1.0,0.0,0.0,0.0,1.0,0.113763427734,-0.647852783203,10.0159716797,0.1,0.0,0.0,0.0,0.1,0.0,0.0,0.0,0.1
1446039179191654825,357,1446039179188631057,robocape,5.29349011941,8.22604237057,12.3969030711,0.0,10.0,0.0,0.0,0.0,10.0,0.0,0.0,0.0,10.0,0.240882920598,0.015313176268,-0.0129163312869,1.0,0.0,0.0,0.0,1.0,0.0,0.0,0.0,1.0,0.253872070313,-0.427510986328,10.0123791504,0.1,0.0,0.0,0.0,0.1,0.0,0.0,0.0,0.1
1446039179224984034,358,1446039179221981048,robocape,5.73169946715,8.24424811593,12.3496449092,0.0,10.0,0.0,0.0,0.0,10.0,0.0,0.0,0.0,10.0,0.237553969235,0.0154463343225,-0.0139815957229,1.0,0.0,0.0,0.0,1.0,0.0,0.0,0.0,1.0,0.202379150391,-0.445473632813,10.0686621094,0.1,0.0,0.0,0.0,0.1,0.0,0.0,0.0,0.1
1446039179258421367,359,1446039179255031108,robocape,6.14933678332,8.26096726029,12.3378008556,0.0,10.0,0.0,0.0,0.0,10.0,0.0,0.0,0.0,10.0,0.224637637948,0.016644756813,0.00452737385313,1.0,0.0,0.0,0.0,1.0,0.0,0.0,0.0,1.0,0.17244140625,-0.355660400391,10.0375268555,0.1,0.0,0.0,0.0,0.1,0.0,0.0,0.0,0.1
1446039179292439575,360,1446039179288877010,robocape,6.57401862408,8.28277410599,12.2551959558,0.0,10.0,0.0,0.0,0.0,10.0,0.0,0.0,0.0,10.0,0.233958701763,0.0150468601589,-0.0326237233535,1.0,0.0,0.0,0.0,1.0,0.0,0.0,0.0,1.0,0.164058837891,0.0526904296875,10.0111816406,0.1,0.0,0.0,0.0,0.1,0.0,0.0,0.0,0.1
1446039179325817409,361,1446039179322263956,robocape,6.86185292134,8.28887341694,12.2418886492,0.0,10.0,0.0,0.0,0.0,10.0,0.0,0.0,0.0,10.0,0.157392820424,0.0109189604693,0.00399474163512,1.0,0.0,0.0,0.0,1.0,0.0,0.0,0.0,1.0,0.174836425781,0.300574951172,10.0291442871,0.1,0.0,0.0,0.0,0.1,0.0,0.0,0.0,0.1
1446039179359914450,362,1446039179356261968,robocape,6.93099304761,8.28870284904,12.2420383733,0.0,10.0,0.0,0.0,0.0,10.0,0.0,0.0,0.0,10.0,0.0416784710597,0.00812264132474,0.0107858024148,1.0,0.0,0.0,0.0,1.0,0.0,0.0,0.0,1.0,0.243094482422,0.501756591797,10.0135766602,0.1,0.0,0.0,0.0,0.1,0.0,0.0,0.0,0.1
1446039179393474450,363,1446039179390429019,robocape,6.82157213113,8.28870981021,12.2444534017,0.0,10.0,0.0,0.0,0.0,10.0,0.0,0.0,0.0,10.0,-0.0523311154201,0.00798948327024,0.0114515926873,1.0,0.0,0.0,0.0,1.0,0.0,0.0,0.0,1.0,0.250279541016,0.399968261719,10.0051940918,0.1,0.0,0.0,0.0,0.1,0.0,0.0,0.0,0.1
1446039179425266867,364,1446039179422013044,robocape,6.57701488378,8.28678947213,12.2425145454,0.0,10.0,0.0,0.0,0.0,10.0,0.0,0.0,0.0,10.0,-0.123171200416,0.00639158661619,0.00892158965177,1.0,0.0,0.0,0.0,1.0,0.0,0.0,0.0,1.0,0.155676269531,-0.028740234375,10.0135766602,0.1,0.0,0.0,0.0,0.1,0.0,0.0,0.0,0.1
1446039179458616200,365,1446039179455332994,robocape,6.30839539422,8.28126915472,12.263285039,0.0,10.0,0.0,0.0,0.0,10.0,0.0,0.0,0.0,10.0,-0.137685428357,0.00585895439817,0.0209058145571,1.0,0.0,0.0,0.0,1.0,0.0,0.0,0.0,1.0,0.186811523438,-0.390388183594,10.0566870117,0.1,0.0,0.0,0.0,0.1,0.0,0.0,0.0,0.1
1446039179491788159,366,1446039179488641977,robocape,6.09562719192,8.27614505848,12.2599978475,0.0,10.0,0.0,0.0,0.0,10.0,0.0,0.0,0.0,10.0,-0.106792759712,0.00466053190764,0.00852211548825,1.0,0.0,0.0,0.0,1.0,0.0,0.0,0.0,1.0,0.203576660156,-0.759221191406,10.0506994629,0.1,0.0,0.0,0.0,0.1,0.0,0.0,0.0,0.1
1446039179525190034,367,1446039179522083044,robocape,5.9827187904,8.27378642686,12.2654370386,0.0,10.0,0.0,0.0,0.0,10.0,0.0,0.0,0.0,10.0,-0.0551274345646,0.0067910607797,0.0131826473959,1.0,0.0,0.0,0.0,1.0,0.0,0.0,0.0,1.0,0.205971679688,-0.795146484375,10.0686621094,0.1,0.0,0.0,0.0,0.1,0.0,0.0,0.0,0.1
1446039179558523950,368,1446039179555318117,robocape,6.14786234605,8.29415604141,12.1194528193,0.0,10.0,0.0,0.0,0.0,10.0,0.0,0.0,0.0,10.0,0.10199906975,0.0102531701968,-0.066312711143,1.0,0.0,0.0,0.0,1.0,0.0,0.0,0.0,1.0,0.296982421875,-1.33043334961,10.0375268555,0.1,0.0,0.0,0.0,0.1,0.0,0.0,0.0,0.1
1446039179591816492,369,1446039179588709115,robocape,6.57552364263,8.34340546051,11.6936727321,0.0,10.0,0.0,0.0,0.0,10.0,0.0,0.0,0.0,10.0,0.260723470719,0.00825579937925,-0.213186045261,1.0,0.0,0.0,0.0,1.0,0.0,0.0,0.0,1.0,0.233514404297,-0.367635498047,10.0207617188,0.1,0.0,0.0,0.0,0.1,0.0,0.0,0.0,0.1
1446039179625082242,370,1446039179621984958,robocape,6.79262935218,8.37324228524,11.4015251482,0.0,10.0,0.0,0.0,0.0,10.0,0.0,0.0,0.0,10.0,0.140748063611,0.00519316412565,-0.143278066646,1.0,0.0,0.0,0.0,1.0,0.0,0.0,0.0,1.0,0.135318603516,0.637075195313,10.0375268555,0.1,0.0,0.0,0.0,0.1,0.0,0.0,0.0,0.1
1446039179660190617,371,1446039179656790971,robocape,6.61274469464,8.37315410421,11.3509145023,0.0,10.0,0.0,0.0,0.0,10.0,0.0,0.0,0.0,10.0,-0.085620629046,0.00426105774413,-0.017177389031,1.0,0.0,0.0,0.0,1.0,0.0,0.0,0.0,1.0,0.221539306641,0.411943359375,10.0483044434,0.1,0.0,0.0,0.0,0.1,0.0,0.0,0.0,0.1
1446039179692923034,372,1446039179689788103,robocape,6.07736172469,8.33851844371,11.5904549553,0.0,10.0,0.0,0.0,0.0,10.0,0.0,0.0,0.0,10.0,-0.294146142399,0.0033289513626,0.134755951158,1.0,0.0,0.0,0.0,1.0,0.0,0.0,0.0,1.0,0.0299377441406,0.492176513672,10.1357226563,0.1,0.0,0.0,0.0,0.1,0.0,0.0,0.0,0.1
1446039179726311242,373,1446039179723180055,robocape,5.35293757273,8.27433442289,12.0692087463,0.0,10.0,0.0,0.0,0.0,10.0,0.0,0.0,0.0,10.0,-0.411458388417,-0.000532632218016,0.260856628773,1.0,0.0,0.0,0.0,1.0,0.0,0.0,0.0,1.0,0.302969970703,-0.693358154297,10.0698596191,0.1,0.0,0.0,0.0,0.1,0.0,0.0,0.0,0.1
1446039179758727659,374,1446039179755510091,robocape,4.98452947203,8.25056650378,12.2073091761,0.0,10.0,0.0,0.0,0.0,10.0,0.0,0.0,0.0,10.0,-0.199737081756,0.00173105470855,0.082691151847,1.0,0.0,0.0,0.0,1.0,0.0,0.0,0.0,1.0,0.310155029297,-1.34719848633,10.0303417969,0.1,0.0,0.0,0.0,0.1,0.0,0.0,0.0,0.1
1446039179794068950,375,1446039179790366888,robocape,4.86086674408,8.24529918592,12.2187341694,0.0,10.0,0.0,0.0,0.0,10.0,0.0,0.0,0.0,10.0,-0.0621848114534,0.00532632218016,0.016378440704,1.0,0.0,0.0,0.0,1.0,0.0,0.0,0.0,1.0,0.177231445313,-1.21786743164,10.0291442871,0.1,0.0,0.0,0.0,0.1,0.0,0.0,0.0,0.1
1446039179832567825,376,1446039179827078104,robocape,4.91213182351,8.24953796933,12.2103724489,0.0,10.0,0.0,0.0,0.0,10.0,0.0,0.0,0.0,10.0,0.0310258266994,0.00958737992429,0.00599211245268,1.0,0.0,0.0,0.0,1.0,0.0,0.0,0.0,1.0,0.221539306641,-1.09332641602,10.0087866211,0.1,0.0,0.0,0.0,0.1,0.0,0.0,0.0,0.1
1446039179860449700,377,1446039179856940031,robocape,5.05220761409,8.25401337181,12.2103849208,0.0,10.0,0.0,0.0,0.0,10.0,0.0,0.0,0.0,10.0,0.0770985135578,0.0102531701968,0.0105194863058,1.0,0.0,0.0,0.0,1.0,0.0,0.0,0.0,1.0,0.247884521484,-0.726888427734,10.0506994629,0.1,0.0,0.0,0.0,0.1,0.0,0.0,0.0,0.1
1446039179893514617,378,1446039179890156984,robocape,5.20427293322,8.25982183345,12.1982250788,0.0,10.0,0.0,0.0,0.0,10.0,0.0,0.0,0.0,10.0,0.0844222065555,0.0103863282513,0.00412789968962,1.0,0.0,0.0,0.0,1.0,0.0,0.0,0.0,1.0,0.205971679688,-0.578397216797,10.0710571289,0.1,0.0,0.0,0.0,0.1,0.0,0.0,0.0,0.1
1446039179929737409,379,1446039179925797939,robocape,5.37286238117,8.26650831721,12.1738574778,0.0,10.0,0.0,0.0,0.0,10.0,0.0,0.0,0.0,10.0,0.0941427445343,0.0102531701968,-0.00226368692657,1.0,0.0,0.0,0.0,1.0,0.0,0.0,0.0,1.0,0.217946777344,-0.595162353516,10.0722546387,0.1,0.0,0.0,0.0,0.1,0.0,0.0,0.0,0.1
1446039179962315826,380,1446039179958085060,robocape,5.87644009237,8.32354173937,11.7599472282,0.0,10.0,0.0,0.0,0.0,10.0,0.0,0.0,0.0,10.0,0.298939832361,0.0157126504315,-0.207327090863,1.0,0.0,0.0,0.0,1.0,0.0,0.0,0.0,1.0,0.246687011719,-1.20948486328,10.0542919922,0.1,0.0,0.0,0.0,0.1,0.0,0.0,0.0,0.1
1446039179992537326,381,1446039179989187955,robocape,6.49921183697,8.387111749,11.2574265233,0.0,10.0,0.0,0.0,0.0,10.0,0.0,0.0,0.0,10.0,0.368847810976,0.0121173829599,-0.253799251885,1.0,0.0,0.0,0.0,1.0,0.0,0.0,0.0,1.0,0.179626464844,-0.182021484375,10.0530944824,0.1,0.0,0.0,0.0,0.1,0.0,0.0,0.0,0.1
1446039180029980117,382,1446039180026531934,robocape,6.79458877588,8.41309836949,11.0074500054,0.0,10.0,0.0,0.0,0.0,10.0,0.0,0.0,0.0,10.0,0.178831267199,0.00612527050718,-0.121306987653,1.0,0.0,0.0,0.0,1.0,0.0,0.0,0.0,1.0,0.00598754882813,0.657432861328,10.0459094238,0.1,0.0,0.0,0.0,0.1,0.0,0.0,0.0,0.1
1446039180062866451,383,1446039180058768987,robocape,6.72692670319,8.41943666381,10.9287731903,0.0,10.0,0.0,0.0,0.0,10.0,0.0,0.0,0.0,10.0,-0.0245010820287,0.00599211245268,-0.03222424919,1.0,0.0,0.0,0.0,1.0,0.0,0.0,0.0,1.0,0.209564208984,0.275427246094,10.0339343262,0.1,0.0,0.0,0.0,0.1,0.0,0.0,0.0,0.1
1446039180094235617,384,1446039180090958118,robocape,6.53724262559,8.41318750931,10.9460391113,0.0,10.0,0.0,0.0,0.0,10.0,0.0,0.0,0.0,10.0,-0.0958737992429,0.00532632218016,0.017976337358,1.0,0.0,0.0,0.0,1.0,0.0,0.0,0.0,1.0,0.176033935547,-0.0107775878906,10.0303417969,0.1,0.0,0.0,0.0,0.1,0.0,0.0,0.0,0.1
1446039180128073159,385,1446039180124936103,robocape,6.28290872592,8.40137945688,10.9552932381,0.0,10.0,0.0,0.0,0.0,10.0,0.0,0.0,0.0,10.0,-0.129429628978,0.00173105470855,0.0139815957229,1.0,0.0,0.0,0.0,1.0,0.0,0.0,0.0,1.0,0.246687011719,-0.338895263672,10.0674645996,0.1,0.0,0.0,0.0,0.1,0.0,0.0,0.0,0.1
1446039180160097784,386,1446039180156987905,robocape,6.03221292486,8.38623555118,10.9767234517,0.0,10.0,0.0,0.0,0.0,10.0,0.0,0.0,0.0,10.0,-0.128630680651,0.00066579027252,0.0205063403936,1.0,0.0,0.0,0.0,1.0,0.0,0.0,0.0,1.0,0.221539306641,-0.385598144531,10.0686621094,0.1,0.0,0.0,0.0,0.1,0.0,0.0,0.0,0.1
1446039180195790451,387,1446039180192457914,robocape,5.76870790441,8.37318158078,11.0017125484,0.0,10.0,0.0,0.0,0.0,10.0,0.0,0.0,0.0,10.0,-0.135821215594,0.00186421276306,0.0222373951022,1.0,0.0,0.0,0.0,1.0,0.0,0.0,0.0,1.0,0.244291992188,-0.28740234375,10.0638720703,0.1,0.0,0.0,0.0,0.1,0.0,0.0,0.0,0.1
1446039180228870867,388,1446039180225080013,robocape,5.10738361542,8.30675120223,11.4760722101,0.0,10.0,0.0,0.0,0.0,10.0,0.0,0.0,0.0,10.0,-0.3784351909,-0.0031957933081,0.258060309629,1.0,0.0,0.0,0.0,1.0,0.0,0.0,0.0,1.0,0.0215551757813,0.279019775391,10.0171691895,0.1,0.0,0.0,0.0,0.1,0.0,0.0,0.0,0.1
1446039180262825284,389,1446039180259021043,robocape,4.48531724384,8.24412254802,11.9198534736,0.0,10.0,0.0,0.0,0.0,10.0,0.0,0.0,0.0,10.0,-0.355798321635,-0.00519316412565,0.242747133361,1.0,0.0,0.0,0.0,1.0,0.0,0.0,0.0,1.0,0.158071289063,-2.08725952148,10.0411193848,0.1,0.0,0.0,0.0,0.1,0.0,0.0,0.0,0.1
1446039180295776159,390,1446039180292376041,robocape,4.49976630653,8.2591460413,11.9483870339,0.0,10.0,0.0,0.0,0.0,10.0,0.0,0.0,0.0,10.0,0.00865527354276,0.0167779148675,0.0245010820287,1.0,0.0,0.0,0.0,1.0,0.0,0.0,0.0,1.0,0.354462890625,-2.04175415039,10.0075891113,0.1,0.0,0.0,0.0,0.1,0.0,0.0,0.0,0.1
1446039180334654534,391,1446039180326828002,robocape,4.88879227665,8.27829592789,11.9500340017,0.0,10.0,0.0,0.0,0.0,10.0,0.0,0.0,0.0,10.0,0.207327090863,0.018242653467,0.0109189604693,1.0,0.0,0.0,0.0,1.0,0.0,0.0,0.0,1.0,0.281414794922,-1.35797607422,10.0866247559,0.1,0.0,0.0,0.0,0.1,0.0,0.0,0.0,0.1
1446039180363111992,392,1446039180359508037,robocape,5.31516783808,8.29683024359,11.9359507444,0.0,10.0,0.0,0.0,0.0,10.0,0.0,0.0,0.0,10.0,0.228499221529,0.0173105470855,0.00279631914458,1.0,0.0,0.0,0.0,1.0,0.0,0.0,0.0,1.0,0.076640625,-0.696950683594,10.0674645996,0.1,0.0,0.0,0.0,0.1,0.0,0.0,0.0,0.1
