%time,field.header.seq,field.header.stamp,field.header.frame_id,field.orientation.x,field.orientation.y,field.orientation.z,field.orientation.w,field.orientation_covariance0,field.orientation_covariance1,field.orientation_covariance2,field.orientation_covariance3,field.orientation_covariance4,field.orientation_covariance5,field.orientation_covariance6,field.orientation_covariance7,field.orientation_covariance8,field.angular_velocity.x,field.angular_velocity.y,field.angular_velocity.z,field.angular_velocity_covariance0,field.angular_velocity_covariance1,field.angular_velocity_covariance2,field.angular_velocity_covariance3,field.angular_velocity_covariance4,field.angular_velocity_covariance5,field.angular_velocity_covariance6,field.angular_velocity_covariance7,field.angular_velocity_covariance8,field.linear_acceleration.x,field.linear_acceleration.y,field.linear_acceleration.z,field.linear_acceleration_covariance0,field.linear_acceleration_covariance1,field.linear_acceleration_covariance2,field.linear_acceleration_covariance3,field.linear_acceleration_covariance4,field.linear_acceleration_covariance5,field.linear_acceleration_covariance6,field.linear_acceleration_covariance7,field.linear_acceleration_covariance8
1446036458276401245,1,1446036457938256978,robocape,3.59746680179,12.9462179611,3.59746680179,0.0,10.0,0.0,0.0,0.0,10.0,0.0,0.0,0.0,10.0,0.00692421883421,0.0262321367373,0.00745685105222,1.0,0.0,0.0,0.0,1.0,0.0,0.0,0.0,1.0,-0.0215551757813,0.689765625,10.0351318359,0.1,0.0,0.0,0.0,0.1,0.0,0.0,0.0,0.1
1446036458309007536,2,1446036457975847959,robocape,3.59678992417,12.9685084763,3.59678992417,0.0,10.0,0.0,0.0,0.0,10.0,0.0,0.0,0.0,10.0,0.00545948023466,0.0268979270098,0.00719053494321,1.0,0.0,0.0,0.0,1.0,0.0,0.0,0.0,1.0,-0.0239501953125,0.696950683594,10.0327368164,0.1,0.0,0.0,0.0,0.1,0.0,0.0,0.0,0.1
1446036458332927953,3,1446036458005220890,robocape,3.59742020547,12.9904055094,3.59742020547,0.0,10.0,0.0,0.0,0.0,10.0,0.0,0.0,0.0,10.0,0.00599211245268,0.0267647689553,0.00785632521573,1.0,0.0,0.0,0.0,1.0,0.0,0.0,0.0,1.0,-0.0107775878906,0.677790527344,10.0590820312,0.1,0.0,0.0,0.0,0.1,0.0,0.0,0.0,0.1
1446036458332995953,4,1446036458049122095,robocape,3.59880087026,13.0123723481,3.59880087026,0.0,10.0,0.0,0.0,0.0,10.0,0.0,0.0,0.0,10.0,0.00652474467069,0.0267647689553,0.00719053494321,1.0,0.0,0.0,0.0,1.0,0.0,0.0,0.0,1.0,-0.0203576660156,0.683778076172,10.0351318359,0.1,0.0,0.0,0.0,0.1,0.0,0.0,0.0,0.1
1446036458333032120,5,1446036458074696063,robocape,3.60246318837,13.0325518823,3.60246318837,0.0,10.0,0.0,0.0,0.0,10.0,0.0,0.0,0.0,10.0,0.00772316716123,0.0258326625738,0.00719053494321,1.0,0.0,0.0,0.0,1.0,0.0,0.0,0.0,1.0,-0.0179626464844,0.690963134766,10.0171691895,0.1,0.0,0.0,0.0,0.1,0.0,0.0,0.0,0.1
1446036458333103036,6,1446036458102463960,robocape,3.60741758071,13.054701428,3.60741758071,0.0,10.0,0.0,0.0,0.0,10.0,0.0,0.0,0.0,10.0,0.00838895743375,0.0268979270098,0.00719053494321,1.0,0.0,0.0,0.0,1.0,0.0,0.0,0.0,1.0,-0.0107775878906,0.707728271484,10.0063916016,0.1,0.0,0.0,0.0,0.1,0.0,0.0,0.0,0.1
1446036458333234828,7,1446036458135792016,robocape,3.6088196129,13.0760664305,3.6088196129,0.0,10.0,0.0,0.0,0.0,10.0,0.0,0.0,0.0,10.0,0.00652474467069,0.0264984528463,0.00719053494321,1.0,0.0,0.0,0.0,1.0,0.0,0.0,0.0,1.0,-0.0179626464844,0.695753173828,10.024354248,0.1,0.0,0.0,0.0,0.1,0.0,0.0,0.0,0.1
1446036458333300911,8,1446036458171560049,robocape,3.60821086272,13.0981484126,3.60821086272,0.0,10.0,0.0,0.0,0.0,10.0,0.0,0.0,0.0,10.0,0.00545948023466,0.0268979270098,0.00719053494321,1.0,0.0,0.0,0.0,1.0,0.0,0.0,0.0,1.0,-0.0143701171875,0.694555664063,10.0495019531,0.1,0.0,0.0,0.0,0.1,0.0,0.0,0.0,0.1
1446036458333366161,9,1446036458219515085,robocape,3.60902417039,13.1197357992,3.60902417039,0.0,10.0,0.0,0.0,0.0,10.0,0.0,0.0,0.0,10.0,0.00625842856169,0.0266316109008,0.00692421883421,1.0,0.0,0.0,0.0,1.0,0.0,0.0,0.0,1.0,-0.01916015625,0.676593017578,10.0135766602,0.1,0.0,0.0,0.0,0.1,0.0,0.0,0.0,0.1
1446036458333399120,10,1446036458241319894,robocape,3.6090901498,13.1412888422,3.6090901498,0.0,10.0,0.0,0.0,0.0,10.0,0.0,0.0,0.0,10.0,0.00585895439817,0.0266316109008,0.00692421883421,1.0,0.0,0.0,0.0,1.0,0.0,0.0,0.0,1.0,-0.009580078125,0.693358154297,10.019564209,0.1,0.0,0.0,0.0,0.1,0.0,0.0,0.0,0.1
1446036458334118453,11,1446036458272839069,robocape,3.61060857721,13.1627426353,3.61060857721,0.0,10.0,0.0,0.0,0.0,10.0,0.0,0.0,0.0,10.0,0.00652474467069,0.0266316109008,0.00732369299772,1.0,0.0,0.0,0.0,1.0,0.0,0.0,0.0,1.0,-0.0167651367188,0.689765625,10.0279467773,0.1,0.0,0.0,0.0,0.1,0.0,0.0,0.0,0.1
1446036458334486995,12,1446036458317044019,robocape,3.61461488056,13.1836818292,3.61461488056,0.0,10.0,0.0,0.0,0.0,10.0,0.0,0.0,0.0,10.0,0.00785632521573,0.0263652947918,0.00719053494321,1.0,0.0,0.0,0.0,1.0,0.0,0.0,0.0,1.0,-0.0179626464844,0.694555664063,10.0363293457,0.1,0.0,0.0,0.0,0.1,0.0,0.0,0.0,0.1
1446036458349969578,13,1446036458344516992,robocape,3.61939080862,13.2048377993,3.61939080862,0.0,10.0,0.0,0.0,0.0,10.0,0.0,0.0,0.0,10.0,0.00825579937925,0.0264984528463,0.00719053494321,1.0,0.0,0.0,0.0,1.0,0.0,0.0,0.0,1.0,-0.0275427246094,0.689765625,10.0435144043,0.1,0.0,0.0,0.0,0.1,0.0,0.0,0.0,0.1
1446036458371173703,14,1446036458367877006,robocape,3.62512754987,13.2257311842,3.62512754987,0.0,10.0,0.0,0.0,0.0,10.0,0.0,0.0,0.0,10.0,0.00878843159726,0.0263652947918,0.00705737688871,1.0,0.0,0.0,0.0,1.0,0.0,0.0,0.0,1.0,-0.0311352539063,0.696950683594,10.0267492676,0.1,0.0,0.0,0.0,0.1,0.0,0.0,0.0,0.1
1446036458406237786,15,1446036458402837038,robocape,3.63090137615,13.2469850973,3.63090137615,0.0,10.0,0.0,0.0,0.0,10.0,0.0,0.0,0.0,10.0,0.00865527354276,0.0266316109008,0.00772316716123,1.0,0.0,0.0,0.0,1.0,0.0,0.0,0.0,1.0,-0.00598754882813,0.701740722656,10.0459094238,0.1,0.0,0.0,0.0,0.1,0.0,0.0,0.0,0.1
1446036458448010328,16,1446036458438669919,robocape,3.63926883673,13.2679319257,3.63926883673,0.0,10.0,0.0,0.0,0.0,10.0,0.0,0.0,0.0,10.0,0.0099868540878,0.0264984528463,0.00785632521573,1.0,0.0,0.0,0.0,1.0,0.0,0.0,0.0,1.0,-0.0239501953125,0.693358154297,10.019564209,0.1,0.0,0.0,0.0,0.1,0.0,0.0,0.0,0.1
1446036458471481161,17,1446036458468002080,robocape,3.64433373529,13.2885967066,3.64433373529,0.0,10.0,0.0,0.0,0.0,10.0,0.0,0.0,0.0,10.0,0.00825579937925,0.0263652947918,0.00785632521573,1.0,0.0,0.0,0.0,1.0,0.0,0.0,0.0,1.0,-0.0263452148438,0.720900878906,10.0327368164,0.1,0.0,0.0,0.0,0.1,0.0,0.0,0.0,0.1
1446036458504237786,18,1446036458500988006,robocape,3.64536571185,13.3088160213,3.64536571185,0.0,10.0,0.0,0.0,0.0,10.0,0.0,0.0,0.0,10.0,0.00625842856169,0.0260989786828,0.00732369299772,1.0,0.0,0.0,0.0,1.0,0.0,0.0,0.0,1.0,-0.0143701171875,0.717308349609,10.0435144043,0.1,0.0,0.0,0.0,0.1,0.0,0.0,0.0,0.1
1446036458537703245,19,1446036458534431934,robocape,3.64323781719,13.33021179,3.64323781719,0.0,10.0,0.0,0.0,0.0,10.0,0.0,0.0,0.0,10.0,0.00452737385313,0.0267647689553,0.00759000910673,1.0,0.0,0.0,0.0,1.0,0.0,0.0,0.0,1.0,-0.0239501953125,0.704135742188,10.0255517578,0.1,0.0,0.0,0.0,0.1,0.0,0.0,0.0,0.1
1446036458570840245,20,1446036458567545890,robocape,3.64076284911,13.3518646236,3.64076284911,0.0,10.0,0.0,0.0,0.0,10.0,0.0,0.0,0.0,10.0,0.00439421579863,0.0268979270098,0.00732369299772,1.0,0.0,0.0,0.0,1.0,0.0,0.0,0.0,1.0,-0.01916015625,0.694555664063,10.0411193848,0.1,0.0,0.0,0.0,0.1,0.0,0.0,0.0,0.1
1446036458604432120,21,1446036458601273059,robocape,3.63883293728,13.3728166183,3.63883293728,0.0,10.0,0.0,0.0,0.0,10.0,0.0,0.0,0.0,10.0,0.00479368996214,0.0264984528463,0.0067910607797,1.0,0.0,0.0,0.0,1.0,0.0,0.0,0.0,1.0,-0.0179626464844,0.688568115234,10.0351318359,0.1,0.0,0.0,0.0,0.1,0.0,0.0,0.0,0.1
1446036458637484161,22,1446036458634309053,robocape,3.63904644077,13.3941048732,3.63904644077,0.0,10.0,0.0,0.0,0.0,10.0,0.0,0.0,0.0,10.0,0.00572579634367,0.0267647689553,0.00759000910673,1.0,0.0,0.0,0.0,1.0,0.0,0.0,0.0,1.0,-0.0119750976563,0.682580566406,10.0471069336,0.1,0.0,0.0,0.0,0.1,0.0,0.0,0.0,0.1
1446036458670890578,23,1446036458667777061,robocape,3.63929308395,13.414943443,3.63929308395,0.0,10.0,0.0,0.0,0.0,10.0,0.0,0.0,0.0,10.0,0.00585895439817,0.0264984528463,0.00705737688871,1.0,0.0,0.0,0.0,1.0,0.0,0.0,0.0,1.0,-0.0179626464844,0.694555664063,10.0135766602,0.1,0.0,0.0,0.0,0.1,0.0,0.0,0.0,0.1
1446036458704217328,24,1446036458701183080,robocape,3.64054756975,13.4359118903,3.64054756975,0.0,10.0,0.0,0.0,0.0,10.0,0.0,0.0,0.0,10.0,0.00625842856169,0.0266316109008,0.00759000910673,1.0,0.0,0.0,0.0,1.0,0.0,0.0,0.0,1.0,-0.0155676269531,0.704135742188,10.0171691895,0.1,0.0,0.0,0.0,0.1,0.0,0.0,0.0,0.1
1446036458737343036,25,1446036458734318017,robocape,3.64260128588,13.457430841,3.64260128588,0.0,10.0,0.0,0.0,0.0,10.0,0.0,0.0,0.0,10.0,0.0067910607797,0.0268979270098,0.00705737688871,1.0,0.0,0.0,0.0,1.0,0.0,0.0,0.0,1.0,-0.00598754882813,0.693358154297,10.0327368164,0.1,0.0,0.0,0.0,0.1,0.0,0.0,0.0,0.1
1446036458770699703,26,1446036458767657041,robocape,3.64649414705,13.4783920774,3.64649414705,0.0,10.0,0.0,0.0,0.0,10.0,0.0,0.0,0.0,10.0,0.00772316716123,0.0266316109008,0.00719053494321,1.0,0.0,0.0,0.0,1.0,0.0,0.0,0.0,1.0,-0.0335302734375,0.694555664063,10.0291442871,0.1,0.0,0.0,0.0,0.1,0.0,0.0,0.0,0.1
1446036458804229661,27,1446036458801217079,robocape,3.65025333885,13.4990265023,3.65025333885,0.0,10.0,0.0,0.0,0.0,10.0,0.0,0.0,0.0,10.0,0.00759000910673,0.0264984528463,0.00745685105222,1.0,0.0,0.0,0.0,1.0,0.0,0.0,0.0,1.0,-0.01916015625,0.701740722656,10.0471069336,0.1,0.0,0.0,0.0,0.1,0.0,0.0,0.0,0.1
1446036458838648578,28,1446036458835596084,robocape,3.65024173334,13.5204648196,3.65024173334,0.0,10.0,0.0,0.0,0.0,10.0,0.0,0.0,0.0,10.0,0.00572579634367,0.0268979270098,0.00692421883421,1.0,0.0,0.0,0.0,1.0,0.0,0.0,0.0,1.0,-0.0239501953125,0.70892578125,10.0231567383,0.1,0.0,0.0,0.0,0.1,0.0,0.0,0.0,0.1
1446036458871508245,29,1446036458867928028,robocape,3.64922348921,13.5411183771,3.64922348921,0.0,10.0,0.0,0.0,0.0,10.0,0.0,0.0,0.0,10.0,0.00519316412565,0.0264984528463,0.00692421883421,1.0,0.0,0.0,0.0,1.0,0.0,0.0,0.0,1.0,-0.0155676269531,0.686173095703,10.0339343262,0.1,0.0,0.0,0.0,0.1,0.0,0.0,0.0,0.1
1446036458905716286,30,1446036458902534961,robocape,3.64872288727,13.5609883966,3.64872288727,0.0,10.0,0.0,0.0,0.0,10.0,0.0,0.0,0.0,10.0,0.00545948023466,0.0260989786828,0.00692421883421,1.0,0.0,0.0,0.0,1.0,0.0,0.0,0.0,1.0,-0.0227526855469,0.689765625,10.0339343262,0.1,0.0,0.0,0.0,0.1,0.0,0.0,0.0,0.1
1446036458938342286,31,1446036458935230970,robocape,3.65013865731,13.5817822661,3.65013865731,0.0,10.0,0.0,0.0,0.0,10.0,0.0,0.0,0.0,10.0,0.00639158661619,0.0266316109008,0.00719053494321,1.0,0.0,0.0,0.0,1.0,0.0,0.0,0.0,1.0,-0.0179626464844,0.700543212891,10.0075891113,0.1,0.0,0.0,0.0,0.1,0.0,0.0,0.0,0.1
1446036458972594703,32,1446036458969188928,robocape,3.65251745117,13.6020632373,3.65251745117,0.0,10.0,0.0,0.0,0.0,10.0,0.0,0.0,0.0,10.0,0.00692421883421,0.0263652947918,0.00705737688871,1.0,0.0,0.0,0.0,1.0,0.0,0.0,0.0,1.0,-0.01916015625,0.700543212891,10.0506994629,0.1,0.0,0.0,0.0,0.1,0.0,0.0,0.0,0.1
1446036459009394787,33,1446036459006027936,robocape,3.65406669583,13.6222475141,3.65406669583,0.0,10.0,0.0,0.0,0.0,10.0,0.0,0.0,0.0,10.0,0.00639158661619,0.0263652947918,0.00745685105222,1.0,0.0,0.0,0.0,1.0,0.0,0.0,0.0,1.0,-0.0263452148438,0.704135742188,10.0435144043,0.1,0.0,0.0,0.0,0.1,0.0,0.0,0.0,0.1
1446036459039443828,34,1446036459036039113,robocape,3.65551151817,13.642691668,3.65551151817,0.0,10.0,0.0,0.0,0.0,10.0,0.0,0.0,0.0,10.0,0.00639158661619,0.0264984528463,0.00719053494321,1.0,0.0,0.0,0.0,1.0,0.0,0.0,0.0,1.0,-0.0203576660156,0.698148193359,10.0279467773,0.1,0.0,0.0,0.0,0.1,0.0,0.0,0.0,0.1
1446036459075675203,35,1446036459071759939,robocape,3.65563823897,13.6628747442,3.65563823897,0.0,10.0,0.0,0.0,0.0,10.0,0.0,0.0,0.0,10.0,0.00572579634367,0.0263652947918,0.00705737688871,1.0,0.0,0.0,0.0,1.0,0.0,0.0,0.0,1.0,-0.00119750976563,0.699345703125,10.024354248,0.1,0.0,0.0,0.0,0.1,0.0,0.0,0.0,0.1
1446036459108593620,36,1446036459105120897,robocape,3.65667778572,13.6833173011,3.65667778572,0.0,10.0,0.0,0.0,0.0,10.0,0.0,0.0,0.0,10.0,0.00625842856169,0.0264984528463,0.0067910607797,1.0,0.0,0.0,0.0,1.0,0.0,0.0,0.0,1.0,-0.0119750976563,0.704135742188,10.0219592285,0.1,0.0,0.0,0.0,0.1,0.0,0.0,0.0,0.1
1446036459141057037,37,1446036459136087894,robocape,3.65942593938,13.7034114126,3.65942593938,0.0,10.0,0.0,0.0,0.0,10.0,0.0,0.0,0.0,10.0,0.00705737688871,0.0263652947918,0.00719053494321,1.0,0.0,0.0,0.0,1.0,0.0,0.0,0.0,1.0,-0.0215551757813,0.701740722656,10.0279467773,0.1,0.0,0.0,0.0,0.1,0.0,0.0,0.0,0.1
1446036459176336287,38,1446036459172728061,robocape,3.6622456109,13.7239508931,3.6622456109,0.0,10.0,0.0,0.0,0.0,10.0,0.0,0.0,0.0,10.0,0.00705737688871,0.0266316109008,0.00732369299772,1.0,0.0,0.0,0.0,1.0,0.0,0.0,0.0,1.0,-0.0347277832031,0.699345703125,10.0255517578,0.1,0.0,0.0,0.0,0.1,0.0,0.0,0.0,0.1
1446036459207295245,39,1446036459204091072,robocape,3.66589101881,13.7441845883,3.66589101881,0.0,10.0,0.0,0.0,0.0,10.0,0.0,0.0,0.0,10.0,0.00745685105222,0.0264984528463,0.00745685105222,1.0,0.0,0.0,0.0,1.0,0.0,0.0,0.0,1.0,-0.0263452148438,0.686173095703,10.0590820312,0.1,0.0,0.0,0.0,0.1,0.0,0.0,0.0,0.1
1446036459240310328,40,1446036459237076997,robocape,3.6695488357,13.7651341489,3.6695488357,0.0,10.0,0.0,0.0,0.0,10.0,0.0,0.0,0.0,10.0,0.00745685105222,0.0268979270098,0.00745685105222,1.0,0.0,0.0,0.0,1.0,0.0,0.0,0.0,1.0,-0.0347277832031,0.706530761719,10.0291442871,0.1,0.0,0.0,0.0,0.1,0.0,0.0,0.0,0.1
1446036459277776703,41,1446036459273500919,robocape,3.67220198987,13.7865483353,3.67220198987,0.0,10.0,0.0,0.0,0.0,10.0,0.0,0.0,0.0,10.0,0.00692421883421,0.0271642431188,0.00745685105222,1.0,0.0,0.0,0.0,1.0,0.0,0.0,0.0,1.0,-0.0263452148438,0.705333251953,10.039921875,0.1,0.0,0.0,0.0,0.1,0.0,0.0,0.0,0.1
1446036459308726203,42,1446036459304651975,robocape,3.67518507619,13.8072410966,3.67518507619,0.0,10.0,0.0,0.0,0.0,10.0,0.0,0.0,0.0,10.0,0.00719053494321,0.0267647689553,0.00705737688871,1.0,0.0,0.0,0.0,1.0,0.0,0.0,0.0,1.0,-0.028740234375,0.692160644531,10.0327368164,0.1,0.0,0.0,0.0,0.1,0.0,0.0,0.0,0.1
1446036459341170495,43,1446036459337608098,robocape,3.67671095691,13.8276289604,3.67671095691,0.0,10.0,0.0,0.0,0.0,10.0,0.0,0.0,0.0,10.0,0.00639158661619,0.0266316109008,0.00719053494321,1.0,0.0,0.0,0.0,1.0,0.0,0.0,0.0,1.0,-0.0119750976563,0.696950683594,10.0255517578,0.1,0.0,0.0,0.0,0.1,0.0,0.0,0.0,0.1
1446036459374638620,44,1446036459370913028,robocape,3.6775502095,13.8484610424,3.6775502095,0.0,10.0,0.0,0.0,0.0,10.0,0.0,0.0,0.0,10.0,0.00599211245268,0.0268979270098,0.00732369299772,1.0,0.0,0.0,0.0,1.0,0.0,0.0,0.0,1.0,-0.0119750976563,0.692160644531,10.0363293457,0.1,0.0,0.0,0.0,0.1,0.0,0.0,0.0,0.1
1446036459409359037,45,1446036459404495000,robocape,3.68028735191,13.8682146008,3.68028735191,0.0,10.0,0.0,0.0,0.0,10.0,0.0,0.0,0.0,10.0,0.00692421883421,0.0263652947918,0.00759000910673,1.0,0.0,0.0,0.0,1.0,0.0,0.0,0.0,1.0,-0.0119750976563,0.686173095703,10.0255517578,0.1,0.0,0.0,0.0,0.1,0.0,0.0,0.0,0.1
1446036459441123412,46,1446036459437674045,robocape,3.68412083029,13.8879996741,3.68412083029,0.0,10.0,0.0,0.0,0.0,10.0,0.0,0.0,0.0,10.0,0.00759000910673,0.0263652947918,0.00719053494321,1.0,0.0,0.0,0.0,1.0,0.0,0.0,0.0,1.0,-0.00838256835938,0.704135742188,10.0279467773,0.1,0.0,0.0,0.0,0.1,0.0,0.0,0.0,0.1
1446036459475159287,47,1446036459471860885,robocape,3.68676028313,13.9087301719,3.68676028313,0.0,10.0,0.0,0.0,0.0,10.0,0.0,0.0,0.0,10.0,0.00692421883421,0.0268979270098,0.00732369299772,1.0,0.0,0.0,0.0,1.0,0.0,0.0,0.0,1.0,-0.0119750976563,0.695753173828,10.0123791504,0.1,0.0,0.0,0.0,0.1,0.0,0.0,0.0,0.1
1446036459508610162,48,1446036459505336999,robocape,3.68865317862,13.9287635064,3.68865317862,0.0,10.0,0.0,0.0,0.0,10.0,0.0,0.0,0.0,10.0,0.0066579027252,0.0264984528463,0.0067910607797,1.0,0.0,0.0,0.0,1.0,0.0,0.0,0.0,1.0,-0.0119750976563,0.710123291016,10.0087866211,0.1,0.0,0.0,0.0,0.1,0.0,0.0,0.0,0.1
1446036459541450703,49,1446036459538297891,robocape,3.68901864273,13.9484286644,3.68901864273,0.0,10.0,0.0,0.0,0.0,10.0,0.0,0.0,0.0,10.0,0.00572579634367,0.0263652947918,0.00732369299772,1.0,0.0,0.0,0.0,1.0,0.0,0.0,0.0,1.0,-0.0251477050781,0.694555664063,10.0219592285,0.1,0.0,0.0,0.0,0.1,0.0,0.0,0.0,0.1
1446036459573899995,50,1446036459570642948,robocape,3.68932994416,13.9673339602,3.68932994416,0.0,10.0,0.0,0.0,0.0,10.0,0.0,0.0,0.0,10.0,0.00572579634367,0.0259658206283,0.00719053494321,1.0,0.0,0.0,0.0,1.0,0.0,0.0,0.0,1.0,-0.0155676269531,0.692160644531,10.0291442871,0.1,0.0,0.0,0.0,0.1,0.0,0.0,0.0,0.1
1446036459607709287,51,1446036459604603052,robocape,3.69060071855,13.9866424617,3.69060071855,0.0,10.0,0.0,0.0,0.0,10.0,0.0,0.0,0.0,10.0,0.00612527050718,0.0262321367373,0.00759000910673,1.0,0.0,0.0,0.0,1.0,0.0,0.0,0.0,1.0,-0.0275427246094,0.689765625,10.0578845215,0.1,0.0,0.0,0.0,0.1,0.0,0.0,0.0,0.1
1446036459641055745,52,1446036459638026952,robocape,3.69245867812,14.0068953433,3.69245867812,0.0,10.0,0.0,0.0,0.0,10.0,0.0,0.0,0.0,10.0,0.00639158661619,0.0267647689553,0.00772316716123,1.0,0.0,0.0,0.0,1.0,0.0,0.0,0.0,1.0,-0.0215551757813,0.702938232422,10.0291442871,0.1,0.0,0.0,0.0,0.1,0.0,0.0,0.0,0.1
1446036459674588287,53,1446036459671485900,robocape,3.69369057509,14.0264083504,3.69369057509,0.0,10.0,0.0,0.0,0.0,10.0,0.0,0.0,0.0,10.0,0.00612527050718,0.0263652947918,0.00745685105222,1.0,0.0,0.0,0.0,1.0,0.0,0.0,0.0,1.0,-0.0215551757813,0.704135742188,10.0051940918,0.1,0.0,0.0,0.0,0.1,0.0,0.0,0.0,0.1
1446036459707388162,54,1446036459704133987,robocape,3.71392321243,14.0417525618,3.71392321243,0.0,10.0,0.0,0.0,0.0,10.0,0.0,0.0,0.0,10.0,0.0122505410144,0.0255663464648,0.0235689756472,1.0,0.0,0.0,0.0,1.0,0.0,0.0,0.0,1.0,0.0395178222656,1.04183349609,10.0363293457,0.1,0.0,0.0,0.0,0.1,0.0,0.0,0.0,0.1
1446036459741026287,55,1446036459737824916,robocape,3.41900507366,14.0280394302,3.41900507366,0.0,10.0,0.0,0.0,0.0,10.0,0.0,0.0,0.0,10.0,-0.206128668372,0.0286289817184,0.244478188069,1.0,0.0,0.0,0.0,1.0,0.0,0.0,0.0,1.0,-0.119750976563,0.694555664063,9.91059082031,0.1,0.0,0.0,0.0,0.1,0.0,0.0,0.0,0.1
1446036459773504245,56,1446036459770255088,robocape,3.13263476576,13.9834281207,3.13263476576,0.0,10.0,0.0,0.0,0.0,10.0,0.0,0.0,0.0,10.0,-0.226235534602,0.0194410759576,0.347143048092,1.0,0.0,0.0,0.0,1.0,0.0,0.0,0.0,1.0,0.0275427246094,-0.140108642578,9.97046630859,0.1,0.0,0.0,0.0,0.1,0.0,0.0,0.0,0.1
1446036459807427954,57,1446036459804311037,robocape,3.21764466746,13.9476787055,3.21764466746,0.0,10.0,0.0,0.0,0.0,10.0,0.0,0.0,0.0,10.0,-0.0105194863058,0.017177389031,0.261122944882,1.0,0.0,0.0,0.0,1.0,0.0,0.0,0.0,1.0,-0.00119750976563,-1.00830322266,10.0111816406,0.1,0.0,0.0,0.0,0.1,0.0,0.0,0.0,0.1
1446036459839297662,58,1446036459836231946,robocape,3.71042112066,13.9194045661,3.71042112066,0.0,10.0,0.0,0.0,0.0,10.0,0.0,0.0,0.0,10.0,0.224238163785,0.0154463343225,0.176301264163,1.0,0.0,0.0,0.0,1.0,0.0,0.0,0.0,1.0,0.067060546875,-0.906514892578,9.99202148437,0.1,0.0,0.0,0.0,0.1,0.0,0.0,0.0,0.1
1446036459872130870,59,1446036459869046926,robocape,4.6736818503,13.9026019383,4.6736818503,0.0,10.0,0.0,0.0,0.0,10.0,0.0,0.0,0.0,10.0,0.498676914117,0.0130494893414,0.0640490242164,1.0,0.0,0.0,0.0,1.0,0.0,0.0,0.0,1.0,-0.274229736328,-0.378413085938,10.0351318359,0.1,0.0,0.0,0.0,0.1,0.0,0.0,0.0,0.1
1446036459905530495,60,1446036459901938915,robocape,6.03995690709,13.9337063645,6.03995690709,0.0,10.0,0.0,0.0,0.0,10.0,0.0,0.0,0.0,10.0,0.775911983595,0.00825579937925,-0.211454990552,1.0,0.0,0.0,0.0,1.0,0.0,0.0,0.0,1.0,-0.505349121094,2.21659057617,10.2578686523,0.1,0.0,0.0,0.0,0.1,0.0,0.0,0.0,0.1
1446036459939217537,61,1446036459936141967,robocape,6.80524547036,13.9783138397,6.80524547036,0.0,10.0,0.0,0.0,0.0,10.0,0.0,0.0,0.0,10.0,0.441818424844,0.0231695014837,-0.125168571234,1.0,0.0,0.0,0.0,1.0,0.0,0.0,0.0,1.0,0.262254638672,3.05125488281,9.95370117188,0.1,0.0,0.0,0.0,0.1,0.0,0.0,0.0,0.1
1446036459971730370,62,1446036459968630075,robocape,6.85670296649,14.0154394188,6.85670296649,0.0,10.0,0.0,0.0,0.0,10.0,0.0,0.0,0.0,10.0,0.0411458388417,0.0331563555715,-0.0131826473959,1.0,0.0,0.0,0.0,1.0,0.0,0.0,0.0,1.0,0.379610595703,2.78660522461,9.79443237305,0.1,0.0,0.0,0.0,0.1,0.0,0.0,0.0,0.1
1446036460004996995,63,1446036460001858949,robocape,6.48342778349,14.0495908122,6.48342778349,0.0,10.0,0.0,0.0,0.0,10.0,0.0,0.0,0.0,10.0,-0.188818121287,0.0347542522255,0.0146473859954,1.0,0.0,0.0,0.0,1.0,0.0,0.0,0.0,1.0,0.401165771484,2.49201782227,9.85311035156,0.1,0.0,0.0,0.0,0.1,0.0,0.0,0.0,0.1
1446036460037937079,64,1446036460034723997,robocape,5.91843589255,14.0911807945,5.91843589255,0.0,10.0,0.0,0.0,0.0,10.0,0.0,0.0,0.0,10.0,-0.283360339984,0.0347542522255,-0.0137152796139,1.0,0.0,0.0,0.0,1.0,0.0,0.0,0.0,1.0,0.0886157226563,1.46814697266,9.93693603516,0.1,0.0,0.0,0.0,0.1,0.0,0.0,0.0,0.1
1446036460070750412,65,1446036460067724943,robocape,5.33112428832,14.1428291518,5.33112428832,0.0,10.0,0.0,0.0,0.0,10.0,0.0,0.0,0.0,10.0,-0.28589034302,0.0355532005526,-0.0545948023466,1.0,0.0,0.0,0.0,1.0,0.0,0.0,0.0,1.0,-0.0131726074219,0.825084228516,10.0339343262,0.1,0.0,0.0,0.0,0.1,0.0,0.0,0.0,0.1
1446036460105474287,66,1446036460102410078,robocape,4.97597744294,14.2023360308,4.97597744294,0.0,10.0,0.0,0.0,0.0,10.0,0.0,0.0,0.0,10.0,-0.152865446571,0.0352868844435,-0.102664860023,1.0,0.0,0.0,0.0,1.0,0.0,0.0,0.0,1.0,-0.0155676269531,0.1149609375,10.1309326172,0.1,0.0,0.0,0.0,0.1,0.0,0.0,0.0,0.1
1446036460137584454,67,1446036460134272098,robocape,4.86218085888,14.2887618332,4.86218085888,0.0,10.0,0.0,0.0,0.0,10.0,0.0,0.0,0.0,10.0,0.0202400242846,0.0294279300454,-0.295877197108,1.0,0.0,0.0,0.0,1.0,0.0,0.0,0.0,1.0,-0.183218994141,0.417930908203,9.99202148437,0.1,0.0,0.0,0.0,0.1,0.0,0.0,0.0,0.1
1446036460171025495,68,1446036460167962074,robocape,4.88108756256,14.3704207943,4.88108756256,0.0,10.0,0.0,0.0,0.0,10.0,0.0,0.0,0.0,10.0,0.109056446639,0.0190416017941,-0.372975710666,1.0,0.0,0.0,0.0,1.0,0.0,0.0,0.0,1.0,-0.0335302734375,1.15559692383,9.98004638672,0.1,0.0,0.0,0.0,0.1,0.0,0.0,0.0,0.1
1446036460204442537,69,1446036460201327085,robocape,4.67382246139,14.4299376124,4.67382246139,0.0,10.0,0.0,0.0,0.0,10.0,0.0,0.0,0.0,10.0,-0.0139815957229,0.00985369603329,-0.352735686381,1.0,0.0,0.0,0.0,1.0,0.0,0.0,0.0,1.0,-0.00598754882813,2.17108520508,9.86149291992,0.1,0.0,0.0,0.0,0.1,0.0,0.0,0.0,0.1
1446036460237987079,70,1446036460234673976,robocape,4.06596785959,14.4615729409,4.06596785959,0.0,10.0,0.0,0.0,0.0,10.0,0.0,0.0,0.0,10.0,-0.243146607524,0.00479368996214,-0.274971382551,1.0,0.0,0.0,0.0,1.0,0.0,0.0,0.0,1.0,0.00359252929688,2.26928100586,9.86748046875,0.1,0.0,0.0,0.0,0.1,0.0,0.0,0.0,0.1
1446036460278136662,71,1446036460269102096,robocape,2.96656176849,14.4564250849,2.96656176849,0.0,10.0,0.0,0.0,0.0,10.0,0.0,0.0,0.0,10.0,-0.554736455064,0.0067910607797,-0.0608532309083,1.0,0.0,0.0,0.0,1.0,0.0,0.0,0.0,1.0,-0.161663818359,1.88009033203,10.0016015625,0.1,0.0,0.0,0.0,0.1,0.0,0.0,0.0,0.1
1446036460304868329,72,1446036460301810026,robocape,1.50896080997,14.4140690813,1.50896080997,0.0,10.0,0.0,0.0,0.0,10.0,0.0,0.0,0.0,10.0,-0.808269390839,0.00452737385313,0.196541288448,1.0,0.0,0.0,0.0,1.0,0.0,0.0,0.0,1.0,-0.340092773437,0.947230224609,9.86987548828,0.1,0.0,0.0,0.0,0.1,0.0,0.0,0.0,0.1
1446036460337889662,73,1446036460334733009,robocape,0.0212152997023,14.3175360437,0.0212152997023,0.0,10.0,0.0,0.0,0.0,10.0,0.0,0.0,0.0,10.0,-0.796817798152,-0.0316916169719,0.082691151847,1.0,0.0,0.0,0.0,1.0,0.0,0.0,0.0,1.0,-0.341290283203,-1.78309204102,10.0566870117,0.1,0.0,0.0,0.0,0.1,0.0,0.0,0.0,0.1
1446036460370685204,74,1446036460367649078,robocape,-1.03289509337,14.2960750222,-1.03289509337,0.0,10.0,0.0,0.0,0.0,10.0,0.0,0.0,0.0,10.0,-0.57324542464,0.00745685105222,0.0918790576077,1.0,0.0,0.0,0.0,1.0,0.0,0.0,0.0,1.0,-0.0610729980469,-0.437091064453,10.0722546387,0.1,0.0,0.0,0.0,0.1,0.0,0.0,0.0,0.1
1446036460404230204,75,1446036460401205062,robocape,-1.77509522751,14.2735600702,-1.77509522751,0.0,10.0,0.0,0.0,0.0,10.0,0.0,0.0,0.0,10.0,-0.390153099697,0.00585895439817,0.0101200121423,1.0,0.0,0.0,0.0,1.0,0.0,0.0,0.0,1.0,0.296982421875,-1.17236206055,9.99321899414,0.1,0.0,0.0,0.0,0.1,0.0,0.0,0.0,0.1
1446036460437665954,76,1446036460434539079,robocape,-2.12188932134,14.2682274473,-2.12188932134,0.0,10.0,0.0,0.0,0.0,10.0,0.0,0.0,0.0,10.0,-0.179497057471,0.0145142279409,-0.00559263828917,1.0,0.0,0.0,0.0,1.0,0.0,0.0,0.0,1.0,-0.105380859375,-1.65735351563,10.0016015625,0.1,0.0,0.0,0.0,0.1,0.0,0.0,0.0,0.1
1446036460470732662,77,1446036460467741966,robocape,-2.06272384447,14.2895876569,-2.06272384447,0.0,10.0,0.0,0.0,0.0,10.0,0.0,0.0,0.0,10.0,0.0300937203179,0.0275637172823,0.0067910607797,1.0,0.0,0.0,0.0,1.0,0.0,0.0,0.0,1.0,0.240699462891,-1.76872192383,10.024354248,0.1,0.0,0.0,0.0,0.1,0.0,0.0,0.0,0.1
1446036460504394162,78,1446036460501321077,robocape,-1.64416862672,14.3368525208,-1.64416862672,0.0,10.0,0.0,0.0,0.0,10.0,0.0,0.0,0.0,10.0,0.225303428221,0.0406132066237,-0.0189084437396,1.0,0.0,0.0,0.0,1.0,0.0,0.0,0.0,1.0,0.00359252929688,-0.734073486328,10.0566870117,0.1,0.0,0.0,0.0,0.1,0.0,0.0,0.0,0.1
1446036460539206912,79,1446036460536086082,robocape,-1.10142273705,14.3936999316,-1.10142273705,0.0,10.0,0.0,0.0,0.0,10.0,0.0,0.0,0.0,10.0,0.295078248781,0.0452737385313,-0.0355532005526,1.0,0.0,0.0,0.0,1.0,0.0,0.0,0.0,1.0,0.104183349609,-0.219144287109,10.0674645996,0.1,0.0,0.0,0.0,0.1,0.0,0.0,0.0,0.1
1446036460570943871,80,1446036460567912101,robocape,-0.551687485059,14.4221272154,-0.551687485059,0.0,10.0,0.0,0.0,0.0,10.0,0.0,0.0,0.0,10.0,0.320111963028,0.0291616139364,-0.1182443524,1.0,0.0,0.0,0.0,1.0,0.0,0.0,0.0,1.0,-0.0143701171875,0.283809814453,10.0471069336,0.1,0.0,0.0,0.0,0.1,0.0,0.0,0.0,0.1
1446036460604424246,81,1446036460600948095,robocape,-0.0721299414073,14.4355774844,-0.0721299414073,0.0,10.0,0.0,0.0,0.0,10.0,0.0,0.0,0.0,10.0,0.316783011665,0.0181094954125,-0.248606087759,1.0,0.0,0.0,0.0,1.0,0.0,0.0,0.0,1.0,-0.264649658203,0.756826171875,9.98483642578,0.1,0.0,0.0,0.0,0.1,0.0,0.0,0.0,0.1
1446036460637695496,82,1446036460634613990,robocape,0.108897429948,14.4400614691,0.108897429948,0.0,10.0,0.0,0.0,0.0,10.0,0.0,0.0,0.0,10.0,0.148870704935,0.0134489635049,-0.202133926737,1.0,0.0,0.0,0.0,1.0,0.0,0.0,0.0,1.0,-0.207169189453,1.61424316406,10.0183666992,0.1,0.0,0.0,0.0,0.1,0.0,0.0,0.0,0.1
1446036460670794829,83,1446036460667714118,robocape,-0.226204393667,14.4388517435,-0.226204393667,0.0,10.0,0.0,0.0,0.0,10.0,0.0,0.0,0.0,10.0,-0.171241258092,0.015313176268,-0.0067910607797,1.0,0.0,0.0,0.0,1.0,0.0,0.0,0.0,1.0,-0.173638916016,1.58191040039,10.039921875,0.1,0.0,0.0,0.0,0.1,0.0,0.0,0.0,0.1
1446036460704578412,84,1446036460701086044,robocape,-1.02149861954,14.4265515623,-1.02149861954,0.0,10.0,0.0,0.0,0.0,10.0,0.0,0.0,0.0,10.0,-0.449941066169,0.0118510668509,0.137818586412,1.0,0.0,0.0,0.0,1.0,0.0,0.0,0.0,1.0,-0.0359252929688,1.51245483398,9.98244140625,0.1,0.0,0.0,0.0,0.1,0.0,0.0,0.0,0.1
1446036460737590204,85,1446036460734414100,robocape,-2.02434645555,14.4568501148,-2.02434645555,0.0,10.0,0.0,0.0,0.0,10.0,0.0,0.0,0.0,10.0,-0.553937506736,0.0336889877895,0.115181717146,1.0,0.0,0.0,0.0,1.0,0.0,0.0,0.0,1.0,-0.195194091797,-0.821491699219,10.1057849121,0.1,0.0,0.0,0.0,0.1,0.0,0.0,0.0,0.1
1446036460770678829,86,1446036460767556905,robocape,-2.76826452384,14.4431944088,-2.76826452384,0.0,10.0,0.0,0.0,0.0,10.0,0.0,0.0,0.0,10.0,-0.40413469542,0.0099868540878,0.0555269087282,1.0,0.0,0.0,0.0,1.0,0.0,0.0,0.0,1.0,0.203576660156,-1.35198852539,9.96088623047,0.1,0.0,0.0,0.0,0.1,0.0,0.0,0.0,0.1
1446036460804097746,87,1446036460800904989,robocape,-3.01571547522,14.4432041286,-3.01571547522,0.0,10.0,0.0,0.0,0.0,10.0,0.0,0.0,0.0,10.0,-0.123703832634,0.017976337358,-0.0243679239742,1.0,0.0,0.0,0.0,1.0,0.0,0.0,0.0,1.0,0.253872070313,-1.69926635742,9.97405883789,0.1,0.0,0.0,0.0,0.1,0.0,0.0,0.0,0.1
1446036460837648454,88,1446036460834315061,robocape,-3.00391145546,14.4621226939,-3.00391145546,0.0,10.0,0.0,0.0,0.0,10.0,0.0,0.0,0.0,10.0,0.00745685105222,0.0267647689553,-0.00599211245268,1.0,0.0,0.0,0.0,1.0,0.0,0.0,0.0,1.0,0.0910107421875,-1.23942260742,10.019564209,0.1,0.0,0.0,0.0,0.1,0.0,0.0,0.0,0.1
1446036460870818704,89,1446036460867465019,robocape,-2.76517000715,14.5024497058,-2.76517000715,0.0,10.0,0.0,0.0,0.0,10.0,0.0,0.0,0.0,10.0,0.123038042362,0.0370179391521,0.00812264132474,1.0,0.0,0.0,0.0,1.0,0.0,0.0,0.0,1.0,0.147293701172,-1.04183349609,10.0506994629,0.1,0.0,0.0,0.0,0.1,0.0,0.0,0.0,0.1
1446036460904391496,90,1446036460901201963,robocape,-2.40919226236,14.5545842319,-2.40919226236,0.0,10.0,0.0,0.0,0.0,10.0,0.0,0.0,0.0,10.0,0.180562321907,0.0426105774413,0.0246342400832,1.0,0.0,0.0,0.0,1.0,0.0,0.0,0.0,1.0,0.0646655273438,-0.455053710938,10.0506994629,0.1,0.0,0.0,0.0,0.1,0.0,0.0,0.0,0.1
1446036460937760621,91,1446036460934581995,robocape,-2.05895794608,14.6054503023,-2.05895794608,0.0,10.0,0.0,0.0,0.0,10.0,0.0,0.0,0.0,10.0,0.17057546782,0.0416784710597,0.0527305895836,1.0,0.0,0.0,0.0,1.0,0.0,0.0,0.0,1.0,0.0359252929688,-0.119750976563,10.0075891113,0.1,0.0,0.0,0.0,0.1,0.0,0.0,0.0,0.1
1446036460970911496,92,1446036460967771053,robocape,-1.72286782519,14.6512409697,-1.72286782519,0.0,10.0,0.0,0.0,0.0,10.0,0.0,0.0,0.0,10.0,0.174037577237,0.0398142582967,0.0119842249054,1.0,0.0,0.0,0.0,1.0,0.0,0.0,0.0,1.0,-0.0718505859375,0.0467028808594,10.0291442871,0.1,0.0,0.0,0.0,0.1,0.0,0.0,0.0,0.1
1446036461004680162,93,1446036461001264095,robocape,-1.521369408,14.6876045285,-1.521369408,0.0,10.0,0.0,0.0,0.0,10.0,0.0,0.0,0.0,10.0,0.10053433115,0.035153726389,0.0242347659197,1.0,0.0,0.0,0.0,1.0,0.0,0.0,0.0,1.0,-0.146096191406,0.523311767578,10.0518969727,0.1,0.0,0.0,0.0,0.1,0.0,0.0,0.0,0.1
1446036461037471371,94,1446036461034413099,robocape,-1.60115002558,14.7108968069,-1.60115002558,0.0,10.0,0.0,0.0,0.0,10.0,0.0,0.0,0.0,10.0,-0.0709732430506,0.0284958236638,0.116646455745,1.0,0.0,0.0,0.0,1.0,0.0,0.0,0.0,1.0,-0.117355957031,0.433498535156,10.0818347168,0.1,0.0,0.0,0.0,0.1,0.0,0.0,0.0,0.1
1446036461070687246,95,1446036461067670106,robocape,-1.80320983505,14.7296891518,-1.80320983505,0.0,10.0,0.0,0.0,0.0,10.0,0.0,0.0,0.0,10.0,-0.147272808281,0.0259658206283,0.162585984549,1.0,0.0,0.0,0.0,1.0,0.0,0.0,0.0,1.0,-0.0167651367188,-0.354462890625,10.0495019531,0.1,0.0,0.0,0.0,0.1,0.0,0.0,0.0,0.1
1446036461104255288,96,1446036461101038932,robocape,-1.90712191548,14.7502239677,-1.90712191548,0.0,10.0,0.0,0.0,0.0,10.0,0.0,0.0,0.0,10.0,-0.0952080089703,0.0264984528463,0.159523349296,1.0,0.0,0.0,0.0,1.0,0.0,0.0,0.0,1.0,0.0850231933594,-0.946032714844,10.0291442871,0.1,0.0,0.0,0.0,0.1,0.0,0.0,0.0,0.1
1446036461137806621,97,1446036461134416103,robocape,-1.77647088454,14.7834374079,-1.77647088454,0.0,10.0,0.0,0.0,0.0,10.0,0.0,0.0,0.0,10.0,0.0368847810976,0.0331563555715,0.124902255125,1.0,0.0,0.0,0.0,1.0,0.0,0.0,0.0,1.0,0.164058837891,-1.26337280273,10.0375268555,0.1,0.0,0.0,0.0,0.1,0.0,0.0,0.0,0.1
1446036461171397621,98,1446036461168342113,robocape,-1.3795815956,14.8329587023,-1.3795815956,0.0,10.0,0.0,0.0,0.0,10.0,0.0,0.0,0.0,10.0,0.186288118251,0.0419447871687,0.0885501062451,1.0,0.0,0.0,0.0,1.0,0.0,0.0,0.0,1.0,0.0598754882813,-0.887354736328,10.003996582,0.1,0.0,0.0,0.0,0.1,0.0,0.0,0.0,0.1
1446036461205532496,99,1446036461202318906,robocape,-0.789338520699,14.8865041646,-0.789338520699,0.0,10.0,0.0,0.0,0.0,10.0,0.0,0.0,0.0,10.0,0.301469835397,0.0442084740953,0.0375505713701,1.0,0.0,0.0,0.0,1.0,0.0,0.0,0.0,1.0,0.101788330078,-0.196391601563,10.0734521484,0.1,0.0,0.0,0.0,0.1,0.0,0.0,0.0,0.1
1446036461239194704,100,1446036461235775947,robocape,-0.288273268086,14.9196281448,-0.288273268086,0.0,10.0,0.0,0.0,0.0,10.0,0.0,0.0,0.0,10.0,0.25100293274,0.0342216200075,0.0536626959651,1.0,0.0,0.0,0.0,1.0,0.0,0.0,0.0,1.0,-0.196391601563,0.580792236328,9.98723144531,0.1,0.0,0.0,0.0,0.1,0.0,0.0,0.0,0.1
1446036461276950579,101,1446036461269202947,robocape,0.128005247477,14.9469929473,0.128005247477,0.0,10.0,0.0,0.0,0.0,10.0,0.0,0.0,0.0,10.0,0.214917099969,0.0311589847539,0.0237021337017,1.0,0.0,0.0,0.0,1.0,0.0,0.0,0.0,1.0,-0.197589111328,0.353265380859,10.1177600098,0.1,0.0,0.0,0.0,0.1,0.0,0.0,0.0,0.1
1446036461306557663,102,1446036461303323984,robocape,0.504211600966,14.975582544,0.504211600966,0.0,10.0,0.0,0.0,0.0,10.0,0.0,0.0,0.0,10.0,0.215982364405,0.0296942461544,-0.0588558600908,1.0,0.0,0.0,0.0,1.0,0.0,0.0,0.0,1.0,-0.0886157226563,0.300574951172,10.0303417969,0.1,0.0,0.0,0.0,0.1,0.0,0.0,0.0,0.1
1446036461343665413,103,1446036461340281963,robocape,0.863406451074,15.0035316657,0.863406451074,0.0,10.0,0.0,0.0,0.0,10.0,0.0,0.0,0.0,10.0,0.223172899349,0.0268979270098,-0.118910142672,1.0,0.0,0.0,0.0,1.0,0.0,0.0,0.0,1.0,-0.0239501953125,0.465831298828,10.0291442871,0.1,0.0,0.0,0.0,0.1,0.0,0.0,0.0,0.1
1446036461372276621,104,1446036461369160890,robocape,1.11684354781,15.0276389318,1.11684354781,0.0,10.0,0.0,0.0,0.0,10.0,0.0,0.0,0.0,10.0,0.152998604625,0.0266316109008,-0.0615190211808,1.0,0.0,0.0,0.0,1.0,0.0,0.0,0.0,1.0,0.0227526855469,0.828676757813,10.0459094238,0.1,0.0,0.0,0.0,0.1,0.0,0.0,0.0,0.1
1446036461406273204,105,1446036461402787923,robocape,1.13280136846,15.0458533761,1.13280136846,0.0,10.0,0.0,0.0,0.0,10.0,0.0,0.0,0.0,10.0,0.0121173829599,0.0262321367373,0.00159789665405,1.0,0.0,0.0,0.0,1.0,0.0,0.0,0.0,1.0,0.0514929199219,0.674197998047,10.0351318359,0.1,0.0,0.0,0.0,0.1,0.0,0.0,0.0,0.1
1446036461441781288,106,1446036461436639070,robocape,1.05270769589,15.0670239094,1.05270769589,0.0,10.0,0.0,0.0,0.0,10.0,0.0,0.0,0.0,10.0,-0.0402137324602,0.0282295075548,0.00905474770627,1.0,0.0,0.0,0.0,1.0,0.0,0.0,0.0,1.0,-0.149688720703,0.596359863281,10.0375268555,0.1,0.0,0.0,0.0,0.1,0.0,0.0,0.0,0.1
1446036461474431204,107,1446036461471333026,robocape,0.888524952598,15.0944462955,0.888524952598,0.0,10.0,0.0,0.0,0.0,10.0,0.0,0.0,0.0,10.0,-0.085354312937,0.0318247750264,0.0126500151779,1.0,0.0,0.0,0.0,1.0,0.0,0.0,0.0,1.0,-1.23343505859,0.511336669922,10.3812121582,0.1,0.0,0.0,0.0,0.1,0.0,0.0,0.0,0.1
1446036461508208329,108,1446036461505007028,robocape,0.686287348027,15.1676447065,0.686287348027,0.0,10.0,0.0,0.0,0.0,10.0,0.0,0.0,0.0,10.0,-0.0994690667145,0.0555269087282,-0.0099868540878,1.0,0.0,0.0,0.0,1.0,0.0,0.0,0.0,1.0,-4.02962036133,0.404758300781,10.9153015137,0.1,0.0,0.0,0.0,0.1,0.0,0.0,0.0,0.1
1446036461542435746,109,1446036461538657903,robocape,0.368771261243,15.1988529599,0.368771261243,0.0,10.0,0.0,0.0,0.0,10.0,0.0,0.0,0.0,10.0,-0.157525978478,0.0331563555715,-0.0197073920666,1.0,0.0,0.0,0.0,1.0,0.0,0.0,0.0,1.0,-4.85590209961,0.104183349609,10.9835595703,0.1,0.0,0.0,0.0,0.1,0.0,0.0,0.0,0.1
1446036461574015121,110,1446036461570888042,robocape,0.0474518967004,15.1801664383,0.0474518967004,0.0,10.0,0.0,0.0,0.0,10.0,0.0,0.0,0.0,10.0,-0.146473859954,0.00545948023466,-0.0699079786146,1.0,0.0,0.0,0.0,1.0,0.0,0.0,0.0,1.0,-8.51908447266,0.628692626953,10.366842041,0.1,0.0,0.0,0.0,0.1,0.0,0.0,0.0,0.1
1446036461607266913,111,1446036461604239940,robocape,-0.467277502784,15.1111685019,-0.467277502784,0.0,10.0,0.0,0.0,0.0,10.0,0.0,0.0,0.0,10.0,-0.261522419046,-0.0195742340121,-0.0209058145571,1.0,0.0,0.0,0.0,1.0,0.0,0.0,0.0,1.0,-9.81119750977,-0.0790356445313,11.076965332,0.1,0.0,0.0,0.0,0.1,0.0,0.0,0.0,0.1
1446036461642115079,112,1446036461638431072,robocape,-1.0035069063,15.0888153256,-1.0035069063,0.0,10.0,0.0,0.0,0.0,10.0,0.0,0.0,0.0,10.0,-0.259391890174,0.00519316412565,-0.0729706138682,1.0,0.0,0.0,0.0,1.0,0.0,0.0,0.0,1.0,-9.14777709961,-0.255069580078,9.6219909668,0.1,0.0,0.0,0.0,0.1,0.0,0.0,0.0,0.1
1446036461675169038,113,1446036461671899080,robocape,-1.63627453595,14.7870129575,-1.63627453595,0.0,10.0,0.0,0.0,0.0,10.0,0.0,0.0,0.0,10.0,-0.30866037034,-0.142745434428,-0.085354312937,1.0,0.0,0.0,0.0,1.0,0.0,0.0,0.0,1.0,-4.76010131836,-0.880169677734,9.47828979492,0.1,0.0,0.0,0.0,0.1,0.0,0.0,0.0,0.1
1446036461709436496,114,1446036461705926895,robocape,-2.28186066648,14.6848894685,-2.28186066648,0.0,10.0,0.0,0.0,0.0,10.0,0.0,0.0,0.0,10.0,-0.309592476722,-0.0350205683345,-0.10879013053,1.0,0.0,0.0,0.0,1.0,0.0,0.0,0.0,1.0,-5.17443969727,0.322130126953,12.2385498047,0.1,0.0,0.0,0.0,0.1,0.0,0.0,0.0,0.1
1446036461741263288,115,1446036461737725973,robocape,-2.86626086272,14.4162269587,-2.86626086272,0.0,10.0,0.0,0.0,0.0,10.0,0.0,0.0,0.0,10.0,-0.256728729084,-0.120641197381,-0.196940762611,1.0,0.0,0.0,0.0,1.0,0.0,0.0,0.0,1.0,-10.8242907715,0.107775878906,10.2961889648,0.1,0.0,0.0,0.0,0.1,0.0,0.0,0.0,0.1
1446036461773379371,116,1446036461769850969,robocape,-3.510236433,14.2350800775,-3.510236433,0.0,10.0,0.0,0.0,0.0,10.0,0.0,0.0,0.0,10.0,-0.275370856714,-0.0699079786146,-0.250070826358,1.0,0.0,0.0,0.0,1.0,0.0,0.0,0.0,1.0,-6.61983398438,-0.176033935547,11.4481933594,0.1,0.0,0.0,0.0,0.1,0.0,0.0,0.0,0.1
1446036461807121538,117,1446036461803579092,robocape,-4.2032014305,13.9830580657,-4.2032014305,0.0,10.0,0.0,0.0,0.0,10.0,0.0,0.0,0.0,10.0,-0.30333404816,-0.104529072786,-0.250470300522,1.0,0.0,0.0,0.0,1.0,0.0,0.0,0.0,1.0,-2.65128662109,0.560434570312,10.6973547363,0.1,0.0,0.0,0.0,0.1,0.0,0.0,0.0,0.1
1446036461843070663,118,1446036461839993000,robocape,-4.86401491839,13.5362085351,-4.86401491839,0.0,10.0,0.0,0.0,0.0,10.0,0.0,0.0,0.0,10.0,-0.27909928224,-0.20279971701,-0.297075619598,1.0,0.0,0.0,0.0,1.0,0.0,0.0,0.0,1.0,-5.24030273438,-0.4215234375,10.0878222656,0.1,0.0,0.0,0.0,0.1,0.0,0.0,0.0,0.1
1446036461875252121,119,1446036461872148036,robocape,-5.54061635651,13.3172271837,-5.54061635651,0.0,10.0,0.0,0.0,0.0,10.0,0.0,0.0,0.0,10.0,-0.289485610492,-0.0782969360483,-0.290950349091,1.0,0.0,0.0,0.0,1.0,0.0,0.0,0.0,1.0,-3.59372680664,0.468226318359,9.07592651367,0.1,0.0,0.0,0.0,0.1,0.0,0.0,0.0,0.1
1446036461907304163,120,1446036461904007911,robocape,-6.3977118586,13.658900894,-6.3977118586,0.0,10.0,0.0,0.0,0.0,10.0,0.0,0.0,0.0,10.0,-0.383894671135,0.224238163785,-0.269778218425,1.0,0.0,0.0,0.0,1.0,0.0,0.0,0.0,1.0,-1.8010546875,0.484991455078,12.2241796875,0.1,0.0,0.0,0.0,0.1,0.0,0.0,0.0,0.1
1446036461940974788,121,1446036461937832117,robocape,-7.51500039117,13.8739203732,-7.51500039117,0.0,10.0,0.0,0.0,0.0,10.0,0.0,0.0,0.0,10.0,-0.532365901907,0.159390191241,-0.226235534602,1.0,0.0,0.0,0.0,1.0,0.0,0.0,0.0,1.0,0.608334960938,0.742456054688,9.39566162109,0.1,0.0,0.0,0.0,0.1,0.0,0.0,0.0,0.1
1446036461973883288,122,1446036461970377922,robocape,-8.9928982576,14.0632024205,-8.9928982576,0.0,10.0,0.0,0.0,0.0,10.0,0.0,0.0,0.0,10.0,-0.73676351557,0.147938598554,-0.17323862891,1.0,0.0,0.0,0.0,1.0,0.0,0.0,0.0,1.0,1.71483398438,0.591569824219,9.84233276367,0.1,0.0,0.0,0.0,0.1,0.0,0.0,0.0,0.1
1446036462007374330,123,1446036462004254102,robocape,-10.6846315077,14.1299399922,-10.6846315077,0.0,10.0,0.0,0.0,0.0,10.0,0.0,0.0,0.0,10.0,-0.829175205396,0.105061705004,-0.266049792899,1.0,0.0,0.0,0.0,1.0,0.0,0.0,0.0,1.0,-0.104183349609,0.239501953125,9.8483203125,0.1,0.0,0.0,0.0,0.1,0.0,0.0,0.0,0.1
1446036462039409413,124,1446036462036187887,robocape,-12.4852633023,14.3394270198,-12.4852633023,0.0,10.0,0.0,0.0,0.0,10.0,0.0,0.0,0.0,10.0,-0.876712630854,0.20133497841,-0.301070361233,1.0,0.0,0.0,0.0,1.0,0.0,0.0,0.0,1.0,1.51005981445,0.360450439453,12.5151745605,0.1,0.0,0.0,0.0,0.1,0.0,0.0,0.0,0.1
1446036462072626121,125,1446036462069586038,robocape,-14.4702054952,14.4530687839,-14.4702054952,0.0,10.0,0.0,0.0,0.0,10.0,0.0,0.0,0.0,10.0,-0.963132208227,0.178431793035,-0.36099148576,1.0,0.0,0.0,0.0,1.0,0.0,0.0,0.0,1.0,-0.316142578125,0.403560791016,8.24126220703,0.1,0.0,0.0,0.0,0.1,0.0,0.0,0.0,0.1
1446036462107287330,126,1446036462104228973,robocape,-16.7754556875,14.7384966085,-16.7754556875,0.0,10.0,0.0,0.0,0.0,10.0,0.0,0.0,0.0,10.0,-1.10174974297,0.324239862717,-0.468450035745,1.0,0.0,0.0,0.0,1.0,0.0,0.0,0.0,1.0,0.354462890625,-0.518521728516,11.899654541,0.1,0.0,0.0,0.0,0.1,0.0,0.0,0.0,0.1
1446036462139758080,127,1446036462136259078,robocape,-18.8623280449,14.3108146599,-18.8623280449,0.0,10.0,0.0,0.0,0.0,10.0,0.0,0.0,0.0,10.0,-0.941826919507,0.0276968753368,-0.728108242028,1.0,0.0,0.0,0.0,1.0,0.0,0.0,0.0,1.0,-0.997525634766,-0.943637695313,7.91194702148,0.1,0.0,0.0,0.0,0.1,0.0,0.0,0.0,0.1
1446036462172074121,128,1446036462169058084,robocape,-20.1758531968,13.7596822296,-20.1758531968,0.0,10.0,0.0,0.0,0.0,10.0,0.0,0.0,0.0,10.0,-0.388954677206,0.157525978478,-1.27392310744,1.0,0.0,0.0,0.0,1.0,0.0,0.0,0.0,1.0,-1.16996704102,-3.53744384766,10.5225183105,0.1,0.0,0.0,0.0,0.1,0.0,0.0,0.0,0.1
1446036462207334871,129,1446036462203975915,robocape,-20.2233059575,13.4047532997,-20.2233059575,0.0,10.0,0.0,0.0,0.0,10.0,0.0,0.0,0.0,10.0,0.453136859477,0.489089534193,-1.88724910648,1.0,0.0,0.0,0.0,1.0,0.0,0.0,0.0,1.0,0.374820556641,-2.06211181641,10.3776196289,0.1,0.0,0.0,0.0,0.1,0.0,0.0,0.0,0.1
1446036462242996330,130,1446036462239805936,robocape,-19.0270556398,12.8711879435,-19.0270556398,0.0,10.0,0.0,0.0,0.0,10.0,0.0,0.0,0.0,10.0,1.1367703113,0.425573142195,-2.07074090559,1.0,0.0,0.0,0.0,1.0,0.0,0.0,0.0,1.0,-2.17707275391,-2.07767944336,11.1200756836,0.1,0.0,0.0,0.0,0.1,0.0,0.0,0.0,0.1
1446036462277792788,131,1446036462268089056,robocape,-16.882616326,12.8379842071,-16.882616326,0.0,10.0,0.0,0.0,0.0,10.0,0.0,0.0,0.0,10.0,1.63597985764,0.644884457963,-2.08299144661,1.0,0.0,0.0,0.0,1.0,0.0,0.0,0.0,1.0,-2.55189331055,-1.88368286133,9.88783813477,0.1,0.0,0.0,0.0,0.1,0.0,0.0,0.0,0.1
1446036462305714788,132,1446036462302318096,robocape,-13.6339287782,12.4343828046,-13.6339287782,0.0,10.0,0.0,0.0,0.0,10.0,0.0,0.0,0.0,10.0,2.16168785682,0.310924057267,-1.98298974767,1.0,0.0,0.0,0.0,1.0,0.0,0.0,0.0,1.0,-2.39142700195,-1.17715209961,10.0866247559,0.1,0.0,0.0,0.0,0.1,0.0,0.0,0.0,0.1
1446036462338436038,133,1446036462335057973,robocape,-9.41657040038,12.0520970286,-9.41657040038,0.0,10.0,0.0,0.0,0.0,10.0,0.0,0.0,0.0,10.0,2.61921893209,0.174303893346,-1.87566435574,1.0,0.0,0.0,0.0,1.0,0.0,0.0,0.0,1.0,-4.41641601562,-1.62382324219,7.93829223633,0.1,0.0,0.0,0.0,0.1,0.0,0.0,0.0,0.1
1446036462371011413,134,1446036462367928028,robocape,-3.64377785831,11.5799704299,-3.64377785831,0.0,10.0,0.0,0.0,0.0,10.0,0.0,0.0,0.0,10.0,3.38940511934,-0.0431432096593,-1.76394474801,1.0,0.0,0.0,0.0,1.0,0.0,0.0,0.0,1.0,-3.39733520508,-1.51245483398,7.17787353516,0.1,0.0,0.0,0.0,0.1,0.0,0.0,0.0,0.1
1446036462404278330,135,1446036462401266098,robocape,3.42215232354,11.3126109849,3.42215232354,0.0,10.0,0.0,0.0,0.0,10.0,0.0,0.0,0.0,10.0,4.03562115785,-0.112252239947,-1.61334298837,1.0,0.0,0.0,0.0,1.0,0.0,0.0,0.0,1.0,-1.34839599609,-0.846639404297,5.09899658203,0.1,0.0,0.0,0.0,0.1,0.0,0.0,0.0,0.1
1446036462437710413,136,1446036462434582948,robocape,11.2089675093,11.1990356191,11.2089675093,0.0,10.0,0.0,0.0,0.0,10.0,0.0,0.0,0.0,10.0,4.36318997193,-0.155928081824,-1.18670458174,1.0,0.0,0.0,0.0,1.0,0.0,0.0,0.0,1.0,4.58646240234,0.373623046875,7.36588256836,0.1,0.0,0.0,0.0,0.1,0.0,0.0,0.0,0.1
1446036462470713330,137,1446036462467734098,robocape,19.1133025871,10.9181117915,19.1133025871,0.0,10.0,0.0,0.0,0.0,10.0,0.0,0.0,0.0,10.0,4.36318997193,-0.206394984481,-0.533564324397,1.0,0.0,0.0,0.0,1.0,0.0,0.0,0.0,1.0,2.51716552734,1.25858276367,5.34328857422,0.1,0.0,0.0,0.0,0.1,0.0,0.0,0.0,0.1
1446036462504264455,138,1446036462501234054,robocape,27.1062873134,11.0547171779,27.1062873134,0.0,10.0,0.0,0.0,0.0,10.0,0.0,0.0,0.0,10.0,4.36318997193,0.249937668304,0.0748348266312,1.0,0.0,0.0,0.0,1.0,0.0,0.0,0.0,1.0,1.88847290039,8.67236572266,7.72513549805,0.1,0.0,0.0,0.0,0.1,0.0,0.0,0.0,0.1
1446036462537591663,139,1446036462534457921,robocape,30.1607783541,11.0353043732,30.1607783541,0.0,10.0,0.0,0.0,0.0,10.0,0.0,0.0,0.0,10.0,1.07605023845,1.29988892807,2.39245076527,1.0,0.0,0.0,0.0,1.0,0.0,0.0,0.0,1.0,16.9890710449,19.6194012451,13.9929016113,0.1,0.0,0.0,0.0,0.1,0.0,0.0,0.0,0.1
1446036462570682330,140,1446036462567662000,robocape,27.4029151651,12.8097317095,27.4029151651,0.0,10.0,0.0,0.0,0.0,10.0,0.0,0.0,0.0,10.0,-2.35237019087,2.4169518473,2.68459953685,1.0,0.0,0.0,0.0,1.0,0.0,0.0,0.0,1.0,0.496966552734,6.78509033203,9.61720092773,0.1,0.0,0.0,0.0,0.1,0.0,0.0,0.0,0.1
1446036462604146913,141,1446036462601077079,robocape,24.5300912781,14.2354838516,24.5300912781,0.0,10.0,0.0,0.0,0.0,10.0,0.0,0.0,0.0,10.0,-2.25090375333,1.80535690296,2.14251309697,1.0,0.0,0.0,0.0,1.0,0.0,0.0,0.0,1.0,2.069296875,1.58430541992,10.5081481934,0.1,0.0,0.0,0.0,0.1,0.0,0.0,0.0,0.1
1446036462637555372,142,1446036462634355068,robocape,22.2845621478,15.0970315765,22.2845621478,0.0,10.0,0.0,0.0,0.0,10.0,0.0,0.0,0.0,10.0,-1.76714054132,1.22758410447,1.76820580576,1.0,0.0,0.0,0.0,1.0,0.0,0.0,0.0,1.0,3.57935668945,0.3448828125,8.83762207031,0.1,0.0,0.0,0.0,0.1,0.0,0.0,0.0,0.1
1446036462670851955,143,1446036462667768001,robocape,20.4652640747,15.7934562079,20.4652640747,0.0,10.0,0.0,0.0,0.0,10.0,0.0,0.0,0.0,10.0,-1.43517751144,0.958072202156,1.46527123176,1.0,0.0,0.0,0.0,1.0,0.0,0.0,0.0,1.0,-5.45465698242,0.378413085938,9.57409057617,0.1,0.0,0.0,0.0,0.1,0.0,0.0,0.0,0.1
1446036462704459122,144,1446036462701332092,robocape,19.1220235292,16.6849149605,19.1220235292,0.0,10.0,0.0,0.0,0.0,10.0,0.0,0.0,0.0,10.0,-1.1309113569,0.963398524336,1.2652678339,1.0,0.0,0.0,0.0,1.0,0.0,0.0,0.0,1.0,-2.2189855957,0.961600341797,11.439810791,0.1,0.0,0.0,0.0,0.1,0.0,0.0,0.0,0.1
1446036462737464288,145,1446036462734231948,robocape,18.4960601655,15.9121900391,18.4960601655,0.0,10.0,0.0,0.0,0.0,10.0,0.0,0.0,0.0,10.0,-0.679372394079,0.0268979270098,1.30588104052,1.0,0.0,0.0,0.0,1.0,0.0,0.0,0.0,1.0,5.43310180664,0.258662109375,10.4710253906,0.1,0.0,0.0,0.0,0.1,0.0,0.0,0.0,0.1
1446036462770859997,146,1446036462767801046,robocape,17.6271111851,16.644442584,17.6271111851,0.0,10.0,0.0,0.0,0.0,10.0,0.0,0.0,0.0,10.0,-0.885634220506,0.88456895607,1.38870535042,1.0,0.0,0.0,0.0,1.0,0.0,0.0,0.0,1.0,-4.21283935547,3.36260742188,4.99601074219,0.1,0.0,0.0,0.0,0.1,0.0,0.0,0.0,0.1
1446036462804226788,147,1446036462801177024,robocape,15.8436793737,16.5503935334,15.8436793737,0.0,10.0,0.0,0.0,0.0,10.0,0.0,0.0,0.0,10.0,-1.37565586108,0.416385236434,1.49643021652,1.0,0.0,0.0,0.0,1.0,0.0,0.0,0.0,1.0,-3.41769287109,2.00343383789,10.8230932617,0.1,0.0,0.0,0.0,0.1,0.0,0.0,0.0,0.1
1446036462837589747,148,1446036462834558010,robocape,13.5777915406,16.4836594989,13.5777915406,0.0,10.0,0.0,0.0,0.0,10.0,0.0,0.0,0.0,10.0,-1.65049408558,0.407729962891,1.60002718292,1.0,0.0,0.0,0.0,1.0,0.0,0.0,0.0,1.0,0.376018066406,1.98427368164,8.81127685547,0.1,0.0,0.0,0.0,0.1,0.0,0.0,0.0,0.1
1446036462870704330,149,1446036462867676973,robocape,10.6632749039,16.4017253804,10.6632749039,0.0,10.0,0.0,0.0,0.0,10.0,0.0,0.0,0.0,10.0,-2.00828977803,0.35153726389,1.69483571773,1.0,0.0,0.0,0.0,1.0,0.0,0.0,0.0,1.0,-1.12446166992,1.70525390625,9.84712280273,0.1,0.0,0.0,0.0,0.1,0.0,0.0,0.0,0.1
1446036462904202247,150,1446036462901164054,robocape,7.08209108606,16.4678553938,7.08209108606,0.0,10.0,0.0,0.0,0.0,10.0,0.0,0.0,0.0,10.0,-2.33918754347,0.33409355875,1.64010775733,1.0,0.0,0.0,0.0,1.0,0.0,0.0,0.0,1.0,-1.86811523438,1.66094604492,9.62917602539,0.1,0.0,0.0,0.0,0.1,0.0,0.0,0.0,0.1
1446036462939025997,151,1446036462935851097,robocape,2.52735505784,16.002533268,2.52735505784,0.0,10.0,0.0,0.0,0.0,10.0,0.0,0.0,0.0,10.0,-2.82188549105,-0.0620516533988,1.57632504922,1.0,0.0,0.0,0.0,1.0,0.0,0.0,0.0,1.0,-4.43078613281,1.90044799805,7.80297363281,0.1,0.0,0.0,0.0,0.1,0.0,0.0,0.0,0.1
1446036462970523747,152,1446036462967545986,robocape,-2.92141554401,15.6755278146,-2.92141554401,0.0,10.0,0.0,0.0,0.0,10.0,0.0,0.0,0.0,10.0,-3.27302497971,-0.102531701968,1.48750862686,1.0,0.0,0.0,0.0,1.0,0.0,0.0,0.0,1.0,-2.21419555664,1.76512939453,8.73463623047,0.1,0.0,0.0,0.0,0.1,0.0,0.0,0.0,0.1
1446036463004193497,153,1446036463001147985,robocape,-9.8090118314,15.601464606,-9.8090118314,0.0,10.0,0.0,0.0,0.0,10.0,0.0,0.0,0.0,10.0,-4.01404955302,-0.0696416625056,1.31040841437,1.0,0.0,0.0,0.0,1.0,0.0,0.0,0.0,1.0,0.525706787109,1.59029296875,6.52163818359,0.1,0.0,0.0,0.0,0.1,0.0,0.0,0.0,0.1
1446036463037339622,154,1446036463034251928,robocape,-17.3287953167,15.5844788249,-17.3287953167,0.0,10.0,0.0,0.0,0.0,10.0,0.0,0.0,0.0,10.0,-4.36332312999,-0.0970722217334,1.10973922624,1.0,0.0,0.0,0.0,1.0,0.0,0.0,0.0,1.0,4.01285522461,1.58789794922,5.66182617188,0.1,0.0,0.0,0.0,0.1,0.0,0.0,0.0,0.1
1446036463070552705,155,1446036463067543029,robocape,-24.8206597057,15.0115706584,-24.8206597057,0.0,10.0,0.0,0.0,0.0,10.0,0.0,0.0,0.0,10.0,-4.36332312999,-0.368182020703,0.742622469969,1.0,0.0,0.0,0.0,1.0,0.0,0.0,0.0,1.0,-0.489781494141,-13.0803991699,4.31462768555,0.1,0.0,0.0,0.0,0.1,0.0,0.0,0.0,0.1
1446036463104252122,156,1446036463101090908,robocape,-30.295824604,13.4031019572,-30.295824604,0.0,10.0,0.0,0.0,0.0,10.0,0.0,0.0,0.0,10.0,-2.17833261363,0.466186348818,-2.74851540302,1.0,0.0,0.0,0.0,1.0,0.0,0.0,0.0,1.0,10.8841662598,-19.62,12.5199645996,0.1,0.0,0.0,0.0,0.1,0.0,0.0,0.0,0.1
1446036463137635289,157,1446036463134264945,robocape,-32.0204282465,14.4484264095,-32.0204282465,0.0,10.0,0.0,0.0,0.0,10.0,0.0,0.0,0.0,10.0,0.050733218766,2.16941102398,-2.68926006876,1.0,0.0,0.0,0.0,1.0,0.0,0.0,0.0,1.0,3.52307373047,-6.94316162109,4.65711547852,0.1,0.0,0.0,0.0,0.1,0.0,0.0,0.0,0.1
1446036463170722955,158,1446036463167481899,robocape,-33.5070962389,16.8913121016,-33.5070962389,0.0,10.0,0.0,0.0,0.0,10.0,0.0,0.0,0.0,10.0,0.613325999045,3.44879361165,-3.1650337975,1.0,0.0,0.0,0.0,1.0,0.0,0.0,0.0,1.0,-0.473016357422,-16.8010620117,8.65200805664,0.1,0.0,0.0,0.0,0.1,0.0,0.0,0.0,0.1
1446036463204409955,159,1446036463201025009,robocape,-30.0512735456,16.9512089146,-30.0512735456,0.0,10.0,0.0,0.0,0.0,10.0,0.0,0.0,0.0,10.0,2.58766047318,0.939962706743,-1.70628731041,1.0,0.0,0.0,0.0,1.0,0.0,0.0,0.0,1.0,-10.6650219727,-1.56035522461,13.6396362305,0.1,0.0,0.0,0.0,0.1,0.0,0.0,0.0,0.1
1446036463238040705,160,1446036463234636068,robocape,-26.6404851223,16.66785104,-26.6404851223,0.0,10.0,0.0,0.0,0.0,10.0,0.0,0.0,0.0,10.0,2.26421955879,0.357529376343,-1.15727665169,1.0,0.0,0.0,0.0,1.0,0.0,0.0,0.0,1.0,-5.85103271484,3.01293457031,6.6641418457,0.1,0.0,0.0,0.0,0.1,0.0,0.0,0.0,0.1
1446036463277000080,161,1446036463267777919,robocape,-24.3509495555,16.7423462266,-24.3509495555,0.0,10.0,0.0,0.0,0.0,10.0,0.0,0.0,0.0,10.0,1.55621818299,0.438622631536,-0.920255314677,1.0,0.0,0.0,0.0,1.0,0.0,0.0,0.0,1.0,-0.934057617188,1.43102416992,9.51301757812,0.1,0.0,0.0,0.0,0.1,0.0,0.0,0.0,0.1
1446036463305209247,162,1446036463302174091,robocape,-22.7026623595,16.4362684103,-22.7026623595,0.0,10.0,0.0,0.0,0.0,10.0,0.0,0.0,0.0,10.0,1.13304188577,0.157792294587,-0.817989928818,1.0,0.0,0.0,0.0,1.0,0.0,0.0,0.0,1.0,-1.04063598633,1.29690307617,10.9164990234,0.1,0.0,0.0,0.0,0.1,0.0,0.0,0.0,0.1
1446036463337831539,163,1446036463334784030,robocape,-21.7205338923,16.1797886728,-21.7205338923,0.0,10.0,0.0,0.0,0.0,10.0,0.0,0.0,0.0,10.0,0.741690363587,0.155528607661,-0.750478795184,1.0,0.0,0.0,0.0,1.0,0.0,0.0,0.0,1.0,-2.20461547852,0.777183837891,8.37059326172,0.1,0.0,0.0,0.0,0.1,0.0,0.0,0.0,0.1
1446036463370623872,164,1446036463367516040,robocape,-21.256125884,16.2970152641,-21.256125884,0.0,10.0,0.0,0.0,0.0,10.0,0.0,0.0,0.0,10.0,0.484828476449,0.380565719772,-0.778175670521,1.0,0.0,0.0,0.0,1.0,0.0,0.0,0.0,1.0,-1.0346484375,-0.188009033203,12.4325463867,0.1,0.0,0.0,0.0,0.1,0.0,0.0,0.0,0.1
1446036463404095414,165,1446036463401081085,robocape,-20.8033576022,16.1757322104,-20.8033576022,0.0,10.0,0.0,0.0,0.0,10.0,0.0,0.0,0.0,10.0,0.51798483202,0.302135625669,-0.946087977251,1.0,0.0,0.0,0.0,1.0,0.0,0.0,0.0,1.0,-2.31598388672,-0.383203125,9.56810302734,0.1,0.0,0.0,0.0,0.1,0.0,0.0,0.0,0.1
1446036463437810747,166,1446036463434784889,robocape,-20.049703637,16.0955651736,-20.049703637,0.0,10.0,0.0,0.0,0.0,10.0,0.0,0.0,0.0,10.0,0.730638245063,0.37577202981,-1.11812818367,1.0,0.0,0.0,0.0,1.0,0.0,0.0,0.0,1.0,0.690963134766,-1.01668579102,12.2996228027,0.1,0.0,0.0,0.0,0.1,0.0,0.0,0.0,0.1
1446036463470676455,167,1446036463467668056,robocape,-18.801468082,15.7135644577,-18.801468082,0.0,10.0,0.0,0.0,0.0,10.0,0.0,0.0,0.0,10.0,1.02957807742,0.245942926669,-1.30401682776,1.0,0.0,0.0,0.0,1.0,0.0,0.0,0.0,1.0,-2.79139526367,-1.03345092773,9.02443359375,0.1,0.0,0.0,0.0,0.1,0.0,0.0,0.0,0.1
1446036463504216830,168,1446036463501182079,robocape,-16.9588957723,15.4023840536,-16.9588957723,0.0,10.0,0.0,0.0,0.0,10.0,0.0,0.0,0.0,10.0,1.33477633835,0.247407665268,-1.30521525025,1.0,0.0,0.0,0.0,1.0,0.0,0.0,0.0,1.0,-1.66693359375,-0.547261962891,11.1667785645,0.1,0.0,0.0,0.0,0.1,0.0,0.0,0.0,0.1
1446036463538742039,169,1446036463535665035,robocape,-14.5280865962,15.0422687437,-14.5280865962,0.0,10.0,0.0,0.0,0.0,10.0,0.0,0.0,0.0,10.0,1.61201140782,0.15166702408,-1.24156570019,1.0,0.0,0.0,0.0,1.0,0.0,0.0,0.0,1.0,-1.46814697266,-0.917292480469,8.91665771484,0.1,0.0,0.0,0.0,0.1,0.0,0.0,0.0,0.1
1446036463571980705,170,1446036463568887948,robocape,-11.568618333,14.9284778222,-11.568618333,0.0,10.0,0.0,0.0,0.0,10.0,0.0,0.0,0.0,10.0,1.85901959893,0.206528142536,-1.14529242679,1.0,0.0,0.0,0.0,1.0,0.0,0.0,0.0,1.0,-0.950822753906,0.05748046875,10.7260949707,0.1,0.0,0.0,0.0,0.1,0.0,0.0,0.0,0.1
1446036463605799622,171,1446036463602752923,robocape,-8.20516237941,14.734435109,-8.20516237941,0.0,10.0,0.0,0.0,0.0,10.0,0.0,0.0,0.0,10.0,1.99577292091,0.0585895439817,-0.900414764556,1.0,0.0,0.0,0.0,1.0,0.0,0.0,0.0,1.0,-1.25618774414,0.474213867188,8.78133911133,0.1,0.0,0.0,0.0,0.1,0.0,0.0,0.0,0.1
1446036463638979914,172,1446036463635633945,robocape,-4.59575180747,14.9759676326,-4.59575180747,0.0,10.0,0.0,0.0,0.0,10.0,0.0,0.0,0.0,10.0,2.06608037368,0.215449732187,-0.665124482247,1.0,0.0,0.0,0.0,1.0,0.0,0.0,0.0,1.0,5.30257324219,0.799936523438,13.1247070313,0.1,0.0,0.0,0.0,0.1,0.0,0.0,0.0,0.1
1446036463671874747,173,1446036463668824911,robocape,-0.37872627336,14.7423699495,-0.37872627336,0.0,10.0,0.0,0.0,0.0,10.0,0.0,0.0,0.0,10.0,2.3473101848,-0.0836232582285,-0.534895904942,1.0,0.0,0.0,0.0,1.0,0.0,0.0,0.0,1.0,-1.2226574707,0.863404541016,7.79818359375,0.1,0.0,0.0,0.0,0.1,0.0,0.0,0.0,0.1
1446036463705831789,174,1446036463702701091,robocape,4.11957984971,14.7763178624,4.11957984971,0.0,10.0,0.0,0.0,0.0,10.0,0.0,0.0,0.0,10.0,2.4435834582,0.034621094171,-0.317981434155,1.0,0.0,0.0,0.0,1.0,0.0,0.0,0.0,1.0,-4.23199951172,0.827479248047,9.03521118164,0.1,0.0,0.0,0.0,0.1,0.0,0.0,0.0,0.1
1446036463739143122,175,1446036463735850095,robocape,8.99743238742,15.3536595832,8.99743238742,0.0,10.0,0.0,0.0,0.0,10.0,0.0,0.0,0.0,10.0,2.57181466469,0.345545151438,-0.031957933081,1.0,0.0,0.0,0.0,1.0,0.0,0.0,0.0,1.0,-7.67005004883,1.9962487793,10.0866247559,0.1,0.0,0.0,0.0,0.1,0.0,0.0,0.0,0.1
1446036463774492205,176,1446036463770513057,robocape,14.1724141869,15.1577844084,14.1724141869,0.0,10.0,0.0,0.0,0.0,10.0,0.0,0.0,0.0,10.0,2.69951323896,-0.0118510668509,0.188951279341,1.0,0.0,0.0,0.0,1.0,0.0,0.0,0.0,1.0,-1.20229980469,1.25858276367,8.0855859375,0.1,0.0,0.0,0.0,0.1,0.0,0.0,0.0,0.1
1446036463807985205,177,1446036463803983926,robocape,19.4082205385,15.5852214045,19.4082205385,0.0,10.0,0.0,0.0,0.0,10.0,0.0,0.0,0.0,10.0,2.66342740619,0.449941066169,0.450074224223,1.0,0.0,0.0,0.0,1.0,0.0,0.0,0.0,1.0,0.258662109375,2.00223632812,8.58255249023,0.1,0.0,0.0,0.0,0.1,0.0,0.0,0.0,0.1
1446036463841159539,178,1446036463837883949,robocape,24.5587256871,15.8519050319,24.5587256871,0.0,10.0,0.0,0.0,0.0,10.0,0.0,0.0,0.0,10.0,2.58513047014,0.520514835056,0.665257640302,1.0,0.0,0.0,0.0,1.0,0.0,0.0,0.0,1.0,-3.94818969727,1.57951538086,8.60770019531,0.1,0.0,0.0,0.0,0.1,0.0,0.0,0.0,0.1
1446036463873333581,179,1446036463870259046,robocape,29.2909228096,16.3359603625,29.2909228096,0.0,10.0,0.0,0.0,0.0,10.0,0.0,0.0,0.0,10.0,2.26581745544,0.894688968212,0.96912432068,1.0,0.0,0.0,0.0,1.0,0.0,0.0,0.0,1.0,-0.940045166016,9.23759033203,12.0457507324,0.1,0.0,0.0,0.0,0.1,0.0,0.0,0.0,0.1
1446036463907020581,180,1446036463903857946,robocape,30.5658266017,16.9968430672,30.5658266017,0.0,10.0,0.0,0.0,0.0,10.0,0.0,0.0,0.0,10.0,-0.0760332491218,1.58404821638,2.03172559562,1.0,0.0,0.0,0.0,1.0,0.0,0.0,0.0,1.0,2.13635742188,14.4479553223,15.5819970703,0.1,0.0,0.0,0.0,0.1,0.0,0.0,0.0,0.1
1446036463940099956,181,1446036463935432910,robocape,30.0510018024,18.046873163,30.0510018024,0.0,10.0,0.0,0.0,0.0,10.0,0.0,0.0,0.0,10.0,-1.10734238125,1.77819265985,1.97326920969,1.0,0.0,0.0,0.0,1.0,0.0,0.0,0.0,1.0,-6.11089233398,3.79490844727,9.76569213867,0.1,0.0,0.0,0.0,0.1,0.0,0.0,0.0,0.1
1446036463972689456,182,1446036463969640016,robocape,29.1524813936,18.6933444807,29.1524813936,0.0,10.0,0.0,0.0,0.0,10.0,0.0,0.0,0.0,10.0,-1.16140455138,1.31946316208,1.63877617678,1.0,0.0,0.0,0.0,1.0,0.0,0.0,0.0,1.0,-1.72201904297,2.73511230469,10.4267175293,0.1,0.0,0.0,0.0,0.1,0.0,0.0,0.0,0.1
1446036464008946581,183,1446036464005489110,robocape,27.9490720546,18.4901600451,27.9490720546,0.0,10.0,0.0,0.0,0.0,10.0,0.0,0.0,0.0,10.0,-1.19722406805,0.699079786146,1.51573813442,1.0,0.0,0.0,0.0,1.0,0.0,0.0,0.0,1.0,-4.67028808594,1.67531616211,8.15025146484,0.1,0.0,0.0,0.0,0.1,0.0,0.0,0.0,0.1
1446036464041958247,184,1446036464038463115,robocape,26.7745451274,18.6092018086,26.7745451274,0.0,10.0,0.0,0.0,0.0,10.0,0.0,0.0,0.0,10.0,-1.12145713503,0.778841460794,1.3495568824,1.0,0.0,0.0,0.0,1.0,0.0,0.0,0.0,1.0,-3.70988525391,1.36755615234,9.52259765625,0.1,0.0,0.0,0.0,0.1,0.0,0.0,0.0,0.1
1446036464074690997,185,1446036464071373939,robocape,25.5204658749,18.6118699099,25.5204658749,0.0,10.0,0.0,0.0,0.0,10.0,0.0,0.0,0.0,10.0,-1.10348079767,0.62677496255,1.24462833545,1.0,0.0,0.0,0.0,1.0,0.0,0.0,0.0,1.0,0.141306152344,1.78548706055,11.823013916,0.1,0.0,0.0,0.0,0.1,0.0,0.0,0.0,0.1
1446036464107944331,186,1446036464104290008,robocape,24.2010022192,18.6467787532,24.2010022192,0.0,10.0,0.0,0.0,0.0,10.0,0.0,0.0,0.0,10.0,-1.10987238429,0.593219132815,1.19509353917,1.0,0.0,0.0,0.0,1.0,0.0,0.0,0.0,1.0,-3.50870361328,1.56275024414,9.15136962891,0.1,0.0,0.0,0.0,0.1,0.0,0.0,0.0,0.1
1446036464142189914,187,1446036464138766050,robocape,22.8005755924,18.8551231453,22.8005755924,0.0,10.0,0.0,0.0,0.0,10.0,0.0,0.0,0.0,10.0,-1.1279818797,0.631435494458,1.12025871254,1.0,0.0,0.0,0.0,1.0,0.0,0.0,0.0,1.0,2.28005859375,1.54957763672,8.5107019043,0.1,0.0,0.0,0.0,0.1,0.0,0.0,0.0,0.1
1446036464174578706,188,1446036464171278953,robocape,20.9856735568,18.3458387726,20.9856735568,0.0,10.0,0.0,0.0,0.0,10.0,0.0,0.0,0.0,10.0,-1.27898311351,0.151533866026,1.05873969136,1.0,0.0,0.0,0.0,1.0,0.0,0.0,0.0,1.0,-2.62134887695,1.21307739258,9.96208374023,0.1,0.0,0.0,0.0,0.1,0.0,0.0,0.0,0.1
1446036464207803831,189,1446036464203654050,robocape,18.9827559438,18.0217651732,18.9827559438,0.0,10.0,0.0,0.0,0.0,10.0,0.0,0.0,0.0,10.0,-1.36180742341,0.209590777789,1.02385228108,1.0,0.0,0.0,0.0,1.0,0.0,0.0,0.0,1.0,-5.00319580078,1.41545654297,8.15504150391,0.1,0.0,0.0,0.0,0.1,0.0,0.0,0.0,0.1
1446036464241218289,190,1446036464237827062,robocape,16.7247554366,18.1438629577,16.7247554366,0.0,10.0,0.0,0.0,0.0,10.0,0.0,0.0,0.0,10.0,-1.49030494601,0.405466275965,0.971121691497,1.0,0.0,0.0,0.0,1.0,0.0,0.0,0.0,1.0,0.837059326172,1.02626586914,12.0002453613,0.1,0.0,0.0,0.0,0.1,0.0,0.0,0.0,0.1
1446036464276953664,191,1446036464271696090,robocape,14.1628343893,17.7602783492,14.1628343893,0.0,10.0,0.0,0.0,0.0,10.0,0.0,0.0,0.0,10.0,-1.59616559934,0.0543284862376,0.878576843617,1.0,0.0,0.0,0.0,1.0,0.0,0.0,0.0,1.0,0.452658691406,1.17116455078,9.00048339844,0.1,0.0,0.0,0.0,0.1,0.0,0.0,0.0,0.1
1446036464308209039,192,1446036464304595947,robocape,11.2794873097,17.399163774,11.2794873097,0.0,10.0,0.0,0.0,0.0,10.0,0.0,0.0,0.0,10.0,-1.72239943501,-0.00159789665405,0.758601436509,1.0,0.0,0.0,0.0,1.0,0.0,0.0,0.0,1.0,-2.89557861328,1.21547241211,8.99569335938,0.1,0.0,0.0,0.0,0.1,0.0,0.0,0.0,0.1
1446036464340356372,193,1446036464337308883,robocape,8.03591099089,17.4004003455,8.03591099089,0.0,10.0,0.0,0.0,0.0,10.0,0.0,0.0,0.0,10.0,-1.89230911256,0.1448759633,0.677508181316,1.0,0.0,0.0,0.0,1.0,0.0,0.0,0.0,1.0,0.0934057617188,0.952020263672,11.1907287598,0.1,0.0,0.0,0.0,0.1,0.0,0.0,0.0,0.1
1446036464372650122,194,1446036464369492053,robocape,4.48443013442,17.1104482286,4.48443013442,0.0,10.0,0.0,0.0,0.0,10.0,0.0,0.0,0.0,10.0,-2.01827663212,-0.0593884923088,0.574577005185,1.0,0.0,0.0,0.0,1.0,0.0,0.0,0.0,1.0,1.51005981445,0.980760498047,8.4723815918,0.1,0.0,0.0,0.0,0.1,0.0,0.0,0.0,0.1
1446036464406866706,195,1446036464403397083,robocape,0.480286021752,17.2898902878,0.480286021752,0.0,10.0,0.0,0.0,0.0,10.0,0.0,0.0,0.0,10.0,-2.22147582329,0.15579492377,0.436225786555,1.0,0.0,0.0,0.0,1.0,0.0,0.0,0.0,1.0,1.87170776367,0.536484375,12.3319555664,0.1,0.0,0.0,0.0,0.1,0.0,0.0,0.0,0.1
1446036464439935664,196,1446036464436912059,robocape,-3.73577294962,17.1231808527,-3.73577294962,0.0,10.0,0.0,0.0,0.0,10.0,0.0,0.0,0.0,10.0,-2.30216960432,-0.0471379512944,0.309059844504,1.0,0.0,0.0,0.0,1.0,0.0,0.0,0.0,1.0,1.5328125,0.229921875,6.96591430664,0.1,0.0,0.0,0.0,0.1,0.0,0.0,0.0,0.1
1446036464472592831,197,1446036464469578027,robocape,-8.1464347919,17.0330745529,-8.1464347919,0.0,10.0,0.0,0.0,0.0,10.0,0.0,0.0,0.0,10.0,-2.36315599328,-0.000532632218016,0.134622793104,1.0,0.0,0.0,0.0,1.0,0.0,0.0,0.0,1.0,1.67411865234,-0.428708496094,8.73583374023,0.1,0.0,0.0,0.0,0.1,0.0,0.0,0.0,0.1
1446036464506081831,198,1446036464503004074,robocape,-12.6732790757,16.4877917969,-12.6732790757,0.0,10.0,0.0,0.0,0.0,10.0,0.0,0.0,0.0,10.0,-2.36568599632,-0.20133497841,-0.145009121355,1.0,0.0,0.0,0.0,1.0,0.0,0.0,0.0,1.0,-2.04414916992,-0.376018066406,7.99218017578,0.1,0.0,0.0,0.0,0.1,0.0,0.0,0.0,0.1
1446036464539026789,199,1446036464536017894,robocape,-17.2388296393,16.4082518605,-17.2388296393,0.0,10.0,0.0,0.0,0.0,10.0,0.0,0.0,0.0,10.0,-2.32520594775,0.133424370613,-0.366717282104,1.0,0.0,0.0,0.0,1.0,0.0,0.0,0.0,1.0,1.20828735352,-0.864602050781,9.66869384766,0.1,0.0,0.0,0.0,0.1,0.0,0.0,0.0,0.1
1446036464571939331,200,1446036464568854093,robocape,-21.5290958766,15.721201372,-21.5290958766,0.0,10.0,0.0,0.0,0.0,10.0,0.0,0.0,0.0,10.0,-2.16075575044,-0.0978711700604,-0.584830175381,1.0,0.0,0.0,0.0,1.0,0.0,0.0,0.0,1.0,-5.11815673828,-1.456171875,6.33722167969,0.1,0.0,0.0,0.0,0.1,0.0,0.0,0.0,0.1
1446036464605339623,201,1446036464602334022,robocape,-25.9432075336,16.5804277217,-25.9432075336,0.0,10.0,0.0,0.0,0.0,10.0,0.0,0.0,0.0,10.0,-2.04024771111,0.999084882943,-0.927712165729,1.0,0.0,0.0,0.0,1.0,0.0,0.0,0.0,1.0,0.553249511719,-2.86324584961,14.9640820313,0.1,0.0,0.0,0.0,0.1,0.0,0.0,0.0,0.1
1446036464638633623,202,1446036464635392904,robocape,-30.0451814319,16.6731793243,-30.0451814319,0.0,10.0,0.0,0.0,0.0,10.0,0.0,0.0,0.0,10.0,-1.84810063846,0.758468278455,-1.13477294048,1.0,0.0,0.0,0.0,1.0,0.0,0.0,0.0,1.0,1.63699584961,-5.86779785156,6.05580688477,0.1,0.0,0.0,0.0,0.1,0.0,0.0,0.0,0.1
1446036464671804289,203,1446036464668492078,robocape,-30.7625760851,16.8889263139,-30.7625760851,0.0,10.0,0.0,0.0,0.0,10.0,0.0,0.0,0.0,10.0,0.398808373239,1.26433572752,-2.01947505461,1.0,0.0,0.0,0.0,1.0,0.0,0.0,0.0,1.0,7.06770263672,-9.48427734375,17.9231286621,0.1,0.0,0.0,0.0,0.1,0.0,0.0,0.0,0.1
1446036464704573123,204,1446036464701471090,robocape,-29.5239900893,16.5876830613,-29.5239900893,0.0,10.0,0.0,0.0,0.0,10.0,0.0,0.0,0.0,10.0,1.33104791282,0.769520396978,-1.78897846226,1.0,0.0,0.0,0.0,1.0,0.0,0.0,0.0,1.0,0.532891845703,-1.70285888672,7.61735961914,0.1,0.0,0.0,0.0,0.1,0.0,0.0,0.0,0.1
1446036464737953498,205,1446036464734612941,robocape,-28.0684646922,16.4841467948,-28.0684646922,0.0,10.0,0.0,0.0,0.0,10.0,0.0,0.0,0.0,10.0,1.26074046004,0.612527050718,-1.3261210648,1.0,0.0,0.0,0.0,1.0,0.0,0.0,0.0,1.0,0.243094482422,-0.738863525391,9.39446411133,0.1,0.0,0.0,0.0,0.1,0.0,0.0,0.0,0.1
1446036464770933623,206,1446036464767802000,robocape,-26.6430152099,16.397735609,-26.6430152099,0.0,10.0,0.0,0.0,0.0,10.0,0.0,0.0,0.0,10.0,1.19349564252,0.548078552338,-1.23477463942,1.0,0.0,0.0,0.0,1.0,0.0,0.0,0.0,1.0,-2.21299804688,-1.39988891602,10.7823779297,0.1,0.0,0.0,0.0,0.1,0.0,0.0,0.0,0.1
1446036464804191456,207,1446036464801117897,robocape,-25.2618561905,16.4883892193,-25.2618561905,0.0,10.0,0.0,0.0,0.0,10.0,0.0,0.0,0.0,10.0,1.12012555449,0.563391728606,-1.10174974297,1.0,0.0,0.0,0.0,1.0,0.0,0.0,0.0,1.0,-1.38791381836,-0.538879394531,9.80041992188,0.1,0.0,0.0,0.0,0.1,0.0,0.0,0.0,0.1
1446036464837705373,208,1446036464834464073,robocape,-23.9420558479,16.4699162006,-23.9420558479,0.0,10.0,0.0,0.0,0.0,10.0,0.0,0.0,0.0,10.0,1.04848652116,0.448476327569,-1.04142914428,1.0,0.0,0.0,0.0,1.0,0.0,0.0,0.0,1.0,-1.7663269043,0.859812011719,13.0432763672,0.1,0.0,0.0,0.0,0.1,0.0,0.0,0.0,0.1
1446036464870669831,209,1446036464867635965,robocape,-22.4079393297,16.1807388369,-22.4079393297,0.0,10.0,0.0,0.0,0.0,10.0,0.0,0.0,0.0,10.0,1.14955348453,0.277368227532,-1.07778129316,1.0,0.0,0.0,0.0,1.0,0.0,0.0,0.0,1.0,-2.60458374023,-1.35318603516,9.15735717773,0.1,0.0,0.0,0.0,0.1,0.0,0.0,0.0,0.1
1446036464903894248,210,1446036464900846958,robocape,-20.5461885948,16.1658575777,-20.5461885948,0.0,10.0,0.0,0.0,0.0,10.0,0.0,0.0,0.0,10.0,1.27525468798,0.335957771513,-0.913464253897,1.0,0.0,0.0,0.0,1.0,0.0,0.0,0.0,1.0,0.725690917969,0.0107775878906,9.72138427734,0.1,0.0,0.0,0.0,0.1,0.0,0.0,0.0,0.1
1446036464937576414,211,1446036464934458971,robocape,-18.5892186169,16.1674154153,-18.5892186169,0.0,10.0,0.0,0.0,0.0,10.0,0.0,0.0,0.0,10.0,1.29682629281,0.2912166652,-0.847284700809,1.0,0.0,0.0,0.0,1.0,0.0,0.0,0.0,1.0,-2.24892333984,-0.445473632813,10.4602478027,0.1,0.0,0.0,0.0,0.1,0.0,0.0,0.0,0.1
1446036464970624414,212,1446036464967622995,robocape,-16.493528556,16.0058941032,-16.493528556,0.0,10.0,0.0,0.0,0.0,10.0,0.0,0.0,0.0,10.0,1.32265895539,0.136087531703,-0.740358783042,1.0,0.0,0.0,0.0,1.0,0.0,0.0,0.0,1.0,-2.51836303711,-1.05021606445,10.0842297363,0.1,0.0,0.0,0.0,0.1,0.0,0.0,0.0,0.1
1446036465004224831,213,1446036465001188993,robocape,-14.1757066929,15.825711835,-14.1757066929,0.0,10.0,0.0,0.0,0.0,10.0,0.0,0.0,0.0,10.0,1.42292697043,0.0894822126267,-0.71013190467,1.0,0.0,0.0,0.0,1.0,0.0,0.0,0.0,1.0,0.731678466797,-0.111368408203,9.79443237305,0.1,0.0,0.0,0.0,0.1,0.0,0.0,0.0,0.1
1446036465037644831,214,1446036465034317016,robocape,-11.7122645633,15.9581985535,-11.7122645633,0.0,10.0,0.0,0.0,0.0,10.0,0.0,0.0,0.0,10.0,1.48950599768,0.22290658324,-0.664458691975,1.0,0.0,0.0,0.0,1.0,0.0,0.0,0.0,1.0,-0.17244140625,-0.346080322266,10.2411035156,0.1,0.0,0.0,0.0,0.1,0.0,0.0,0.0,0.1
1446036465070791998,215,1446036465067791938,robocape,-9.0481018062,16.3005923618,-9.0481018062,0.0,10.0,0.0,0.0,0.0,10.0,0.0,0.0,0.0,10.0,1.57299609786,0.293347194072,-0.581368065964,1.0,0.0,0.0,0.0,1.0,0.0,0.0,0.0,1.0,-4.83674194336,-0.507744140625,8.76577148438,0.1,0.0,0.0,0.0,0.1,0.0,0.0,0.0,0.1
1446036465104036164,216,1446036465101013898,robocape,-6.03775410897,16.701285462,-6.03775410897,0.0,10.0,0.0,0.0,0.0,10.0,0.0,0.0,0.0,10.0,1.72932365384,0.286156659129,-0.495614278864,1.0,0.0,0.0,0.0,1.0,0.0,0.0,0.0,1.0,-6.96232177734,0.240699462891,11.8780993652,0.1,0.0,0.0,0.0,0.1,0.0,0.0,0.0,0.1
1446036465137998581,217,1446036465134641885,robocape,-2.67470892594,16.5572650655,-2.67470892594,0.0,10.0,0.0,0.0,0.0,10.0,0.0,0.0,0.0,10.0,1.88272173263,-0.0359526747161,-0.416651552543,1.0,0.0,0.0,0.0,1.0,0.0,0.0,0.0,1.0,-2.59620117188,-0.232316894531,8.93581787109,0.1,0.0,0.0,0.0,0.1,0.0,0.0,0.0,0.1
1446036465171275706,218,1446036465168198108,robocape,1.10272266833,16.6792445572,1.10272266833,0.0,10.0,0.0,0.0,0.0,10.0,0.0,0.0,0.0,10.0,2.06674616396,0.0857537871006,-0.295211406835,1.0,0.0,0.0,0.0,1.0,0.0,0.0,0.0,1.0,0.536484375,0.286204833984,8.65320556641,0.1,0.0,0.0,0.0,0.1,0.0,0.0,0.0,0.1
1446036465205390498,219,1446036465202372074,robocape,5.12074542991,16.5517228014,5.12074542991,0.0,10.0,0.0,0.0,0.0,10.0,0.0,0.0,0.0,10.0,2.16128838265,-0.051532167093,-0.168711255057,1.0,0.0,0.0,0.0,1.0,0.0,0.0,0.0,1.0,-3.3374597168,0.86220703125,7.87961425781,0.1,0.0,0.0,0.0,0.1,0.0,0.0,0.0,0.1
1446036465237605623,220,1446036465234384059,robocape,9.24777436551,16.7626115056,9.24777436551,0.0,10.0,0.0,0.0,0.0,10.0,0.0,0.0,0.0,10.0,2.17234050118,0.15166702408,0.00572579634367,1.0,0.0,0.0,0.0,1.0,0.0,0.0,0.0,1.0,0.781973876953,1.81781982422,10.7883654785,0.1,0.0,0.0,0.0,0.1,0.0,0.0,0.0,0.1
1446036465274663790,221,1446036465267827987,robocape,13.3901403621,17.0152770213,13.3901403621,0.0,10.0,0.0,0.0,0.0,10.0,0.0,0.0,0.0,10.0,2.12813202708,0.22943132791,0.21078920028,1.0,0.0,0.0,0.0,1.0,0.0,0.0,0.0,1.0,0.589174804688,2.21778808594,8.90468261719,0.1,0.0,0.0,0.0,0.1,0.0,0.0,0.0,0.1
1446036465305163373,222,1446036465302145004,robocape,17.3690465761,17.3547167634,17.3690465761,0.0,10.0,0.0,0.0,0.0,10.0,0.0,0.0,0.0,10.0,1.97286973553,0.373375184829,0.45353633364,1.0,0.0,0.0,0.0,1.0,0.0,0.0,0.0,1.0,1.33043334961,2.23215820313,9.61001586914,0.1,0.0,0.0,0.0,0.1,0.0,0.0,0.0,0.1
1446036465337910831,223,1446036465334722042,robocape,21.1263819715,17.9036910501,21.1263819715,0.0,10.0,0.0,0.0,0.0,10.0,0.0,0.0,0.0,10.0,1.78817951393,0.609064941301,0.648479725434,1.0,0.0,0.0,0.0,1.0,0.0,0.0,0.0,1.0,-2.31478637695,2.5255480957,11.4721435547,0.1,0.0,0.0,0.0,0.1,0.0,0.0,0.0,0.1
1446036465370924581,224,1446036465367918014,robocape,24.5202566777,18.3261843343,24.5202566777,0.0,10.0,0.0,0.0,0.0,10.0,0.0,0.0,0.0,10.0,1.54010605839,0.671782384972,0.825846254034,1.0,0.0,0.0,0.0,1.0,0.0,0.0,0.0,1.0,2.00702636719,2.40100708008,10.7428601074,0.1,0.0,0.0,0.0,0.1,0.0,0.0,0.0,0.1
1446036465432243456,225,1446036465401123046,robocape,27.5546738804,18.8561228853,27.5546738804,0.0,10.0,0.0,0.0,0.0,10.0,0.0,0.0,0.0,10.0,1.2980247153,0.858070503224,0.934769542618,1.0,0.0,0.0,0.0,1.0,0.0,0.0,0.0,1.0,1.13763427734,2.90396118164,12.4648791504,0.1,0.0,0.0,0.0,0.1,0.0,0.0,0.0,0.1
1446036465457873873,226,1446036465454725980,robocape,30.2225488695,19.0059594999,30.2225488695,0.0,10.0,0.0,0.0,0.0,10.0,0.0,0.0,0.0,10.0,1.08150971868,0.762596178144,1.05647600443,1.0,0.0,0.0,0.0,1.0,0.0,0.0,0.0,1.0,-2.57344848633,2.73750732422,10.6578369141,0.1,0.0,0.0,0.0,0.1,0.0,0.0,0.0,0.1
1446036465478881956,227,1446036465475929975,robocape,32.6487118747,19.2476356051,32.6487118747,0.0,10.0,0.0,0.0,0.0,10.0,0.0,0.0,0.0,10.0,0.942759025888,0.898683709847,1.06912601961,1.0,0.0,0.0,0.0,1.0,0.0,0.0,0.0,1.0,1.08494384766,3.01053955078,11.8062487793,0.1,0.0,0.0,0.0,0.1,0.0,0.0,0.0,0.1
1446036465503906456,228,1446036465500895977,robocape,34.7653060741,19.9525895547,34.7653060741,0.0,10.0,0.0,0.0,0.0,10.0,0.0,0.0,0.0,10.0,0.723181394011,1.26207204059,1.06486496187,1.0,0.0,0.0,0.0,1.0,0.0,0.0,0.0,1.0,0.3448828125,5.12893432617,12.7127636719,0.1,0.0,0.0,0.0,0.1,0.0,0.0,0.0,0.1
1446036465537850373,229,1446036465534442901,robocape,36.3302260779,20.4435264996,36.3302260779,0.0,10.0,0.0,0.0,0.0,10.0,0.0,0.0,0.0,10.0,0.289086136328,1.39030324708,1.3659353231,1.0,0.0,0.0,0.0,1.0,0.0,0.0,0.0,1.0,4.39246582031,3.32069458008,9.70701416016,0.1,0.0,0.0,0.0,0.1,0.0,0.0,0.0,0.1
1446036465570581540,230,1446036465567562103,robocape,36.856910179,20.4627109955,36.856910179,0.0,10.0,0.0,0.0,0.0,10.0,0.0,0.0,0.0,10.0,-0.263786105972,1.12305503169,1.40561642334,1.0,0.0,0.0,0.0,1.0,0.0,0.0,0.0,1.0,-3.69910766602,2.97940429688,14.2479711914,0.1,0.0,0.0,0.0,0.1,0.0,0.0,0.0,0.1
1446036465603817998,231,1446036465600831985,robocape,37.0448096606,20.0338594679,37.0448096606,0.0,10.0,0.0,0.0,0.0,10.0,0.0,0.0,0.0,10.0,-0.337955142331,0.756071433473,1.30787841134,1.0,0.0,0.0,0.0,1.0,0.0,0.0,0.0,1.0,-3.98411499023,1.62981079102,8.28557006836,0.1,0.0,0.0,0.0,0.1,0.0,0.0,0.0,0.1
1446036465637961165,232,1446036465634830951,robocape,36.9072971332,19.8994649556,36.9072971332,0.0,10.0,0.0,0.0,0.0,10.0,0.0,0.0,0.0,10.0,-0.509862190696,0.906007402845,1.25141939623,1.0,0.0,0.0,0.0,1.0,0.0,0.0,0.0,1.0,4.16134643555,2.37466186523,13.3187036133,0.1,0.0,0.0,0.0,0.1,0.0,0.0,0.0,0.1
1446036465670675706,233,1446036465667516946,robocape,36.7093549018,19.5093917729,36.7093549018,0.0,10.0,0.0,0.0,0.0,10.0,0.0,0.0,0.0,10.0,-0.510661139023,0.766457761725,1.29935629585,1.0,0.0,0.0,0.0,1.0,0.0,0.0,0.0,1.0,3.47397583008,1.74596923828,9.37171142578,0.1,0.0,0.0,0.0,0.1,0.0,0.0,0.0,0.1
1446036465704272790,234,1446036465700982093,robocape,36.2693169112,19.2894321883,36.2693169112,0.0,10.0,0.0,0.0,0.0,10.0,0.0,0.0,0.0,10.0,-0.640623400219,0.866326302603,1.29975577001,1.0,0.0,0.0,0.0,1.0,0.0,0.0,0.0,1.0,3.42368041992,2.56027587891,11.8769018555,0.1,0.0,0.0,0.0,0.1,0.0,0.0,0.0,0.1
1446036465737429456,235,1446036465734309911,robocape,35.5109262996,18.9434449939,35.5109262996,0.0,10.0,0.0,0.0,0.0,10.0,0.0,0.0,0.0,10.0,-0.769653555033,0.727975083973,1.25914256339,1.0,0.0,0.0,0.0,1.0,0.0,0.0,0.0,1.0,-0.983155517578,2.0657043457,8.20653442383,0.1,0.0,0.0,0.0,0.1,0.0,0.0,0.0,0.1
1446036465770990290,236,1446036465767915964,robocape,34.5750119389,18.4908137086,34.5750119389,0.0,10.0,0.0,0.0,0.0,10.0,0.0,0.0,0.0,10.0,-0.81479413551,0.588824917017,1.20241723217,1.0,0.0,0.0,0.0,1.0,0.0,0.0,0.0,1.0,-3.3721875,2.3411315918,11.8062487793,0.1,0.0,0.0,0.0,0.1,0.0,0.0,0.0,0.1
1446036465805618581,237,1446036465802463054,robocape,33.2069981951,18.0671824242,33.2069981951,0.0,10.0,0.0,0.0,0.0,10.0,0.0,0.0,0.0,10.0,-1.04209493455,0.57977016931,1.21586619568,1.0,0.0,0.0,0.0,1.0,0.0,0.0,0.0,1.0,1.28492797852,2.49800537109,10.3033740234,0.1,0.0,0.0,0.0,0.1,0.0,0.0,0.0,0.1
1446036465839930040,238,1446036465836764097,robocape,31.4407109742,17.8741109771,31.4407109742,0.0,10.0,0.0,0.0,0.0,10.0,0.0,0.0,0.0,10.0,-1.24888939319,0.653140257342,1.17578562127,1.0,0.0,0.0,0.0,1.0,0.0,0.0,0.0,1.0,1.61065063477,2.20820800781,10.9572143555,0.1,0.0,0.0,0.0,0.1,0.0,0.0,0.0,0.1
1446036465871522956,239,1446036465867683887,robocape,29.2532211593,17.7602473288,29.2532211593,0.0,10.0,0.0,0.0,0.0,10.0,0.0,0.0,0.0,10.0,-1.46620333814,0.640223926055,1.16393455442,1.0,0.0,0.0,0.0,1.0,0.0,0.0,0.0,1.0,0.465831298828,2.12198730469,9.69024902344,0.1,0.0,0.0,0.0,0.1,0.0,0.0,0.0,0.1
1446036465905499831,240,1446036465902380943,robocape,26.5568394595,17.6346087127,26.5568394595,0.0,10.0,0.0,0.0,0.0,10.0,0.0,0.0,0.0,10.0,-1.72040206419,0.5543369809,1.13690346935,1.0,0.0,0.0,0.0,1.0,0.0,0.0,0.0,1.0,-0.505349121094,1.54478759766,11.2470117188,0.1,0.0,0.0,0.0,0.1,0.0,0.0,0.0,0.1
1446036465939130290,241,1446036465935478925,robocape,23.4849645647,17.7491407875,23.4849645647,0.0,10.0,0.0,0.0,0.0,10.0,0.0,0.0,0.0,10.0,-1.91068492408,0.609064941301,1.09589078857,1.0,0.0,0.0,0.0,1.0,0.0,0.0,0.0,1.0,-3.26560913086,1.54718261719,11.2745544434,0.1,0.0,0.0,0.0,0.1,0.0,0.0,0.0,0.1
1446036465972576123,242,1446036465969557046,robocape,19.7770613136,17.2124409832,19.7770613136,0.0,10.0,0.0,0.0,0.0,10.0,0.0,0.0,0.0,10.0,-2.18592262274,0.122904884307,1.01027015952,1.0,0.0,0.0,0.0,1.0,0.0,0.0,0.0,1.0,-3.63803466797,1.01429077148,7.60897705078,0.1,0.0,0.0,0.0,0.1,0.0,0.0,0.0,0.1
1446036466005803623,243,1446036466002769947,robocape,15.604896899,16.5504855191,15.604896899,0.0,10.0,0.0,0.0,0.0,10.0,0.0,0.0,0.0,10.0,-2.38259706924,-0.0563258570552,0.886033694669,1.0,0.0,0.0,0.0,1.0,0.0,0.0,0.0,1.0,-1.1843371582,1.23463256836,8.26401489258,0.1,0.0,0.0,0.0,0.1,0.0,0.0,0.0,0.1
1446036466039589873,244,1446036466036113023,robocape,11.0493352334,16.3635008733,11.0493352334,0.0,10.0,0.0,0.0,0.0,10.0,0.0,0.0,0.0,10.0,-2.55876517535,0.114382768819,0.759267226782,1.0,0.0,0.0,0.0,1.0,0.0,0.0,0.0,1.0,0.904119873047,0.693358154297,8.78732666016,0.1,0.0,0.0,0.0,0.1,0.0,0.0,0.0,0.1
1446036466075052582,245,1446036466070167064,robocape,6.25360068449,16.3801372262,6.25360068449,0.0,10.0,0.0,0.0,0.0,10.0,0.0,0.0,0.0,10.0,-2.65170949739,0.149536495208,0.616521792353,1.0,0.0,0.0,0.0,1.0,0.0,0.0,0.0,1.0,-2.07049438477,-0.0898132324219,10.0423168945,0.1,0.0,0.0,0.0,0.1,0.0,0.0,0.0,0.1
1446036466105428040,246,1446036466102412939,robocape,1.17019260791,15.9855658398,1.17019260791,0.0,10.0,0.0,0.0,0.0,10.0,0.0,0.0,0.0,10.0,-2.73959381336,-0.134356476994,0.364586753232,1.0,0.0,0.0,0.0,1.0,0.0,0.0,0.0,1.0,1.13763427734,-0.505349121094,7.90835449219,0.1,0.0,0.0,0.0,0.1,0.0,0.0,0.0,0.1
1446036466142149123,247,1446036466138812065,robocape,-3.83147232736,15.733308978,-3.83147232736,0.0,10.0,0.0,0.0,0.0,10.0,0.0,0.0,0.0,10.0,-2.62614315093,-0.0788295682663,0.0539290120741,1.0,0.0,0.0,0.0,1.0,0.0,0.0,0.0,1.0,-1.54598510742,-0.937650146484,7.93829223633,0.1,0.0,0.0,0.0,0.1,0.0,0.0,0.0,0.1
1446036466174123082,248,1446036466169411897,robocape,-8.64637801838,15.5783562165,-8.64637801838,0.0,10.0,0.0,0.0,0.0,10.0,0.0,0.0,0.0,10.0,-2.45942926669,0.0031957933081,-0.24567661056,1.0,0.0,0.0,0.0,1.0,0.0,0.0,0.0,1.0,-3.28836181641,-1.80943725586,9.47948730469,0.1,0.0,0.0,0.0,0.1,0.0,0.0,0.0,0.1
1446036466207281748,249,1446036466204240083,robocape,-12.9028261726,15.3388373128,-12.9028261726,0.0,10.0,0.0,0.0,0.0,10.0,0.0,0.0,0.0,10.0,-2.10243252256,0.0251668723012,-0.523311154201,1.0,0.0,0.0,0.0,1.0,0.0,0.0,0.0,1.0,-1.54119506836,-1.85015258789,10.1967956543,0.1,0.0,0.0,0.0,0.1,0.0,0.0,0.0,0.1
1446036466243452207,250,1446036466238583087,robocape,-16.6664583175,15.6725658977,-16.6664583175,0.0,10.0,0.0,0.0,0.0,10.0,0.0,0.0,0.0,10.0,-1.76740685743,0.427570513012,-0.735165618916,1.0,0.0,0.0,0.0,1.0,0.0,0.0,0.0,1.0,-2.56985595703,-2.30999633789,10.9907446289,0.1,0.0,0.0,0.0,0.1,0.0,0.0,0.0,0.1
1446036466281217790,251,1446036466272062063,robocape,-19.8371641878,16.1988139471,-19.8371641878,0.0,10.0,0.0,0.0,0.0,10.0,0.0,0.0,0.0,10.0,-1.38897166653,0.628905491422,-0.88723211716,1.0,0.0,0.0,0.0,1.0,0.0,0.0,0.0,1.0,2.29083618164,-1.78069702148,10.9416467285,0.1,0.0,0.0,0.0,0.1,0.0,0.0,0.0,0.1
1446036466308022332,252,1446036466304886102,robocape,-22.3657344183,16.4101769831,-22.3657344183,0.0,10.0,0.0,0.0,0.0,10.0,0.0,0.0,0.0,10.0,-0.960069572974,0.580569117637,-1.15115138119,1.0,0.0,0.0,0.0,1.0,0.0,0.0,0.0,1.0,4.68585571289,-3.14705566406,13.2540380859,0.1,0.0,0.0,0.0,0.1,0.0,0.0,0.0,0.1
1446036466340268373,253,1446036466336709022,robocape,-23.8130976296,16.7622358267,-23.8130976296,0.0,10.0,0.0,0.0,0.0,10.0,0.0,0.0,0.0,10.0,-0.242613975306,0.793622004844,-1.46420596733,1.0,0.0,0.0,0.0,1.0,0.0,0.0,0.0,1.0,1.78069702148,-3.53504882813,12.7199487305,0.1,0.0,0.0,0.0,0.1,0.0,0.0,0.0,0.1
1446036466375126082,254,1446036466371829032,robocape,-23.5057461971,17.3585176348,-23.5057461971,0.0,10.0,0.0,0.0,0.0,10.0,0.0,0.0,0.0,10.0,0.821718354344,0.987633290256,-1.68831097306,1.0,0.0,0.0,0.0,1.0,0.0,0.0,0.0,1.0,-1.59029296875,-3.97453491211,11.6864978027,0.1,0.0,0.0,0.0,0.1,0.0,0.0,0.0,0.1
1446036466408251332,255,1446036466404833078,robocape,-21.6072074296,17.6346364649,-21.6072074296,0.0,10.0,0.0,0.0,0.0,10.0,0.0,0.0,0.0,10.0,1.73638103073,0.800945697841,-1.88964595147,1.0,0.0,0.0,0.0,1.0,0.0,0.0,0.0,1.0,-0.950822753906,-3.84161132813,9.58965820313,0.1,0.0,0.0,0.0,0.1,0.0,0.0,0.0,0.1
1446036466441518623,256,1446036466437529087,robocape,-18.3842908146,18.0833520703,-18.3842908146,0.0,10.0,0.0,0.0,0.0,10.0,0.0,0.0,0.0,10.0,2.41348973788,0.771384609741,-1.82759429807,1.0,0.0,0.0,0.0,1.0,0.0,0.0,0.0,1.0,-2.50758544922,-1.61903320313,8.56578735352,0.1,0.0,0.0,0.0,0.1,0.0,0.0,0.0,0.1
1446036466473555290,257,1446036466470223903,robocape,-14.5001813764,18.5045430856,-14.5001813764,0.0,10.0,0.0,0.0,0.0,10.0,0.0,0.0,0.0,10.0,2.56142833644,0.524642734746,-1.34716003742,1.0,0.0,0.0,0.0,1.0,0.0,0.0,0.0,1.0,-0.534089355469,0.719703369141,11.3811328125,0.1,0.0,0.0,0.0,0.1,0.0,0.0,0.0,0.1
1446036466507339998,258,1446036466503853082,robocape,-10.7043485778,18.9183765558,-10.7043485778,0.0,10.0,0.0,0.0,0.0,10.0,0.0,0.0,0.0,10.0,2.27287483233,0.333560926532,-0.731570351445,1.0,0.0,0.0,0.0,1.0,0.0,0.0,0.0,1.0,0.204774169922,1.73758666992,6.33243164063,0.1,0.0,0.0,0.0,0.1,0.0,0.0,0.0,0.1
1446036466541480540,259,1446036466537708997,robocape,-7.42431123471,19.2866968044,-7.42431123471,0.0,10.0,0.0,0.0,0.0,10.0,0.0,0.0,0.0,10.0,1.87633014602,0.241016078652,-0.412789968962,1.0,0.0,0.0,0.0,1.0,0.0,0.0,0.0,1.0,-4.6367578125,0.590372314453,11.9271972656,0.1,0.0,0.0,0.0,0.1,0.0,0.0,0.0,0.1
1446036466573848290,260,1446036466570609092,robocape,-4.58015509998,19.2076093529,-4.58015509998,0.0,10.0,0.0,0.0,0.0,10.0,0.0,0.0,0.0,10.0,1.58697769358,-0.0210389726116,-0.281096653058,1.0,0.0,0.0,0.0,1.0,0.0,0.0,0.0,1.0,-1.39390136719,1.41545654297,8.69152587891,0.1,0.0,0.0,0.0,0.1,0.0,0.0,0.0,0.1
1446036466606577540,261,1446036466603296995,robocape,-2.02692812023,19.129769405,-2.02692812023,0.0,10.0,0.0,0.0,0.0,10.0,0.0,0.0,0.0,10.0,1.38910482459,-0.0291616139364,-0.151001233807,1.0,0.0,0.0,0.0,1.0,0.0,0.0,0.0,1.0,-3.0692175293,0.997525634766,10.4626428223,0.1,0.0,0.0,0.0,0.1,0.0,0.0,0.0,0.1
1446036466640257374,262,1446036466636574983,robocape,0.343822928783,19.295615861,0.343822928783,0.0,10.0,0.0,0.0,0.0,10.0,0.0,0.0,0.0,10.0,1.28710575484,0.101200121423,-0.122505410144,1.0,0.0,0.0,0.0,1.0,0.0,0.0,0.0,1.0,-0.0443078613281,1.2298425293,7.82213378906,0.1,0.0,0.0,0.0,0.1,0.0,0.0,0.0,0.1
1446036466673438332,263,1446036466670052051,robocape,2.38066168794,19.0855424059,2.38066168794,0.0,10.0,0.0,0.0,0.0,10.0,0.0,0.0,0.0,10.0,1.08150971868,-0.0965395895154,-0.0280963495003,1.0,0.0,0.0,0.0,1.0,0.0,0.0,0.0,1.0,5.90372314453,1.64657592773,11.2745544434,0.1,0.0,0.0,0.0,0.1,0.0,0.0,0.0,0.1
1446036466706617832,264,1446036466703511953,robocape,4.20173172969,18.7761843414,4.20173172969,0.0,10.0,0.0,0.0,0.0,10.0,0.0,0.0,0.0,10.0,0.960735363246,-0.145674911627,0.00719053494321,1.0,0.0,0.0,0.0,1.0,0.0,0.0,0.0,1.0,-2.09324707031,0.59396484375,7.91673706055,0.1,0.0,0.0,0.0,0.1,0.0,0.0,0.0,0.1
1446036466740526332,265,1446036466737095117,robocape,5.91620512064,19.1683202565,5.91620512064,0.0,10.0,0.0,0.0,0.0,10.0,0.0,0.0,0.0,10.0,0.897618445411,0.237021337017,0.0227700273202,1.0,0.0,0.0,0.0,1.0,0.0,0.0,0.0,1.0,-0.706530761719,1.24181762695,11.0877429199,0.1,0.0,0.0,0.0,0.1,0.0,0.0,0.0,0.1
1446036466773808165,266,1446036466770487070,robocape,7.63664486018,19.2622188047,7.63664486018,0.0,10.0,0.0,0.0,0.0,10.0,0.0,0.0,0.0,10.0,0.900681080665,0.0814927293564,0.0396811002422,1.0,0.0,0.0,0.0,1.0,0.0,0.0,0.0,1.0,3.79251342773,0.910107421875,9.21723266602,0.1,0.0,0.0,0.0,0.1,0.0,0.0,0.0,0.1
1446036466806569582,267,1446036466803570985,robocape,9.46251313742,19.4637280247,9.46251313742,0.0,10.0,0.0,0.0,0.0,10.0,0.0,0.0,0.0,10.0,0.948884296395,0.148737546881,0.065780078925,1.0,0.0,0.0,0.0,1.0,0.0,0.0,0.0,1.0,1.36037109375,0.86220703125,11.0805578613,0.1,0.0,0.0,0.0,0.1,0.0,0.0,0.0,0.1
1446036466840333290,268,1446036466837044954,robocape,11.4358045619,19.4056750473,11.4358045619,0.0,10.0,0.0,0.0,0.0,10.0,0.0,0.0,0.0,10.0,1.03077649992,0.015845808486,0.082424835738,1.0,0.0,0.0,0.0,1.0,0.0,0.0,0.0,1.0,4.33139282227,1.28013793945,7.6640625,0.1,0.0,0.0,0.0,0.1,0.0,0.0,0.0,0.1
1446036466871901499,269,1446036466868805885,robocape,13.3352329513,19.3712369742,13.3352329513,0.0,10.0,0.0,0.0,0.0,10.0,0.0,0.0,0.0,10.0,0.959803256865,0.0607200728538,0.193212337085,1.0,0.0,0.0,0.0,1.0,0.0,0.0,0.0,1.0,-0.0598754882813,1.51724487305,10.6302941895,0.1,0.0,0.0,0.0,0.1,0.0,0.0,0.0,0.1
1446036466904732749,270,1446036466901653051,robocape,15.0015475453,19.1003522575,15.0015475453,0.0,10.0,0.0,0.0,0.0,10.0,0.0,0.0,0.0,10.0,0.775645667486,-0.00266316109008,0.415053655889,1.0,0.0,0.0,0.0,1.0,0.0,0.0,0.0,1.0,-2.46926513672,2.05971679688,7.48802856445,0.1,0.0,0.0,0.0,0.1,0.0,0.0,0.0,0.1
1446036466938630624,271,1446036466935444116,robocape,15.653746421,18.8101229329,15.653746421,0.0,10.0,0.0,0.0,0.0,10.0,0.0,0.0,0.0,10.0,0.0774979877213,0.137818586412,0.917059521369,1.0,0.0,0.0,0.0,1.0,0.0,0.0,0.0,1.0,-7.07009765625,3.8284387207,16.2382324219,0.1,0.0,0.0,0.0,0.1,0.0,0.0,0.0,0.1
1446036466971317582,272,1446036466968293905,robocape,15.0942322315,18.8897445816,15.0942322315,0.0,10.0,0.0,0.0,0.0,10.0,0.0,0.0,0.0,10.0,-0.610529679901,0.369114127085,1.02265385859,1.0,0.0,0.0,0.0,1.0,0.0,0.0,0.0,1.0,1.33282836914,2.2644909668,5.4798046875,0.1,0.0,0.0,0.0,0.1,0.0,0.0,0.0,0.1
1446036467004855540,273,1446036467001740932,robocape,13.333030092,18.3180430511,13.333030092,0.0,10.0,0.0,0.0,0.0,10.0,0.0,0.0,0.0,10.0,-1.24303043879,-0.00173105470855,1.08976551806,1.0,0.0,0.0,0.0,1.0,0.0,0.0,0.0,1.0,-4.70262084961,3.10514282227,12.492421875,0.1,0.0,0.0,0.0,0.1,0.0,0.0,0.0,0.1
1446036467038852374,274,1446036467035610914,robocape,11.0997009716,17.5181490895,11.0997009716,0.0,10.0,0.0,0.0,0.0,10.0,0.0,0.0,0.0,10.0,-1.39056956318,-0.229031853747,0.82012045769,1.0,0.0,0.0,0.0,1.0,0.0,0.0,0.0,1.0,-2.97461425781,0.753233642578,6.11448486328,0.1,0.0,0.0,0.0,0.1,0.0,0.0,0.0,0.1
1446036467070638790,275,1446036467067626953,robocape,8.61608639711,17.7675014619,8.61608639711,0.0,10.0,0.0,0.0,0.0,10.0,0.0,0.0,0.0,10.0,-1.46899965729,0.265384002626,0.577772798493,1.0,0.0,0.0,0.0,1.0,0.0,0.0,0.0,1.0,-3.67156494141,1.01069824219,11.7547558594,0.1,0.0,0.0,0.0,0.1,0.0,0.0,0.0,0.1
1446036467104106582,276,1446036467101063966,robocape,6.19335520447,17.5455031774,6.19335520447,0.0,10.0,0.0,0.0,0.0,10.0,0.0,0.0,0.0,10.0,-1.37605533524,-0.0380832035881,0.40266995682,1.0,0.0,0.0,0.0,1.0,0.0,0.0,0.0,1.0,0.417930908203,0.0383203125,7.30001953125,0.1,0.0,0.0,0.0,0.1,0.0,0.0,0.0,0.1
1446036467137572749,277,1446036467134474992,robocape,3.81303792676,17.0221357019,3.81303792676,0.0,10.0,0.0,0.0,0.0,10.0,0.0,0.0,0.0,10.0,-1.29576102838,-0.235023966199,0.215449732187,1.0,0.0,0.0,0.0,1.0,0.0,0.0,0.0,1.0,5.86540283203,1.00351318359,11.7906811523,0.1,0.0,0.0,0.0,0.1,0.0,0.0,0.0,0.1
1446036467170813749,278,1446036467167718887,robocape,1.5487790429,16.6831401306,1.5487790429,0.0,10.0,0.0,0.0,0.0,10.0,0.0,0.0,0.0,10.0,-1.21546672151,-0.146873334118,0.135288583376,1.0,0.0,0.0,0.0,1.0,0.0,0.0,0.0,1.0,2.30760131836,0.086220703125,5.46064453125,0.1,0.0,0.0,0.0,0.1,0.0,0.0,0.0,0.1
1446036467204056749,279,1446036467200922012,robocape,-0.632442780188,17.0190782949,-0.632442780188,0.0,10.0,0.0,0.0,0.0,10.0,0.0,0.0,0.0,10.0,-1.15687717753,0.210922358334,0.0725711397047,1.0,0.0,0.0,0.0,1.0,0.0,0.0,0.0,1.0,2.20820800781,0.476608886719,11.2338391113,0.1,0.0,0.0,0.0,0.1,0.0,0.0,0.0,0.1
1446036467237267665,280,1446036467234183073,robocape,-2.85352915385,16.8418516815,-2.85352915385,0.0,10.0,0.0,0.0,0.0,10.0,0.0,0.0,0.0,10.0,-1.15780928391,-0.0625842856169,-0.0105194863058,1.0,0.0,0.0,0.0,1.0,0.0,0.0,0.0,1.0,-2.19982543945,-0.251477050781,9.01006347656,0.1,0.0,0.0,0.0,0.1,0.0,0.0,0.0,0.1
1446036467275108124,281,1446036467267839908,robocape,-4.96660481299,16.8310764103,-4.96660481299,0.0,10.0,0.0,0.0,0.0,10.0,0.0,0.0,0.0,10.0,-1.06979180988,0.0339553038985,-0.123038042362,1.0,0.0,0.0,0.0,1.0,0.0,0.0,0.0,1.0,-0.195194091797,-0.506546630859,10.8374633789,0.1,0.0,0.0,0.0,0.1,0.0,0.0,0.0,0.1
1446036467305052374,282,1446036467302022933,robocape,-6.89426244281,16.5756718247,-6.89426244281,0.0,10.0,0.0,0.0,0.0,10.0,0.0,0.0,0.0,10.0,-0.948617980286,-0.0841558904465,-0.225969218493,1.0,0.0,0.0,0.0,1.0,0.0,0.0,0.0,1.0,1.71722900391,0.531694335938,9.13699951172,0.1,0.0,0.0,0.0,0.1,0.0,0.0,0.0,0.1
1446036467337632124,283,1446036467334475994,robocape,-8.77755587167,16.4239216885,-8.77755587167,0.0,10.0,0.0,0.0,0.0,10.0,0.0,0.0,0.0,10.0,-0.934636384563,-0.0202400242846,-0.206261826427,1.0,0.0,0.0,0.0,1.0,0.0,0.0,0.0,1.0,0.589174804688,0.631087646484,10.8805737305,0.1,0.0,0.0,0.0,0.1,0.0,0.0,0.0,0.1
1446036467370707332,284,1446036467367672920,robocape,-10.8918578272,16.1767106007,-10.8918578272,0.0,10.0,0.0,0.0,0.0,10.0,0.0,0.0,0.0,10.0,-1.07045760016,-0.0621848114534,-0.186421276306,1.0,0.0,0.0,0.0,1.0,0.0,0.0,0.0,1.0,0.180823974609,0.122145996094,8.41609863281,0.1,0.0,0.0,0.0,0.1,0.0,0.0,0.0,0.1
1446036467404183499,285,1446036467401174068,robocape,-13.2588710701,15.7888537438,-13.2588710701,0.0,10.0,0.0,0.0,0.0,10.0,0.0,0.0,0.0,10.0,-1.21453461513,-0.124369622907,-0.192280230704,1.0,0.0,0.0,0.0,1.0,0.0,0.0,0.0,1.0,-3.35302734375,0.3065625,8.353828125,0.1,0.0,0.0,0.0,0.1,0.0,0.0,0.0,0.1
1446036467437549666,286,1446036467434362888,robocape,-15.937180927,15.6989730493,-15.937180927,0.0,10.0,0.0,0.0,0.0,10.0,0.0,0.0,0.0,10.0,-1.36353847812,0.0688427141785,-0.247940297486,1.0,0.0,0.0,0.0,1.0,0.0,0.0,0.0,1.0,-0.122145996094,-0.0742456054688,10.459050293,0.1,0.0,0.0,0.0,0.1,0.0,0.0,0.0,0.1
1446036467470816166,287,1446036467467818021,robocape,-18.9090366584,15.7413617428,-18.9090366584,0.0,10.0,0.0,0.0,0.0,10.0,0.0,0.0,0.0,10.0,-1.52519235629,0.170175993656,-0.253000303558,1.0,0.0,0.0,0.0,1.0,0.0,0.0,0.0,1.0,0.495769042969,0.137713623047,10.3009790039,0.1,0.0,0.0,0.0,0.1,0.0,0.0,0.0,0.1
1446036467504134749,288,1446036467501075029,robocape,-22.0363108252,15.5971134946,-22.0363108252,0.0,10.0,0.0,0.0,0.0,10.0,0.0,0.0,0.0,10.0,-1.60655192759,0.119575932945,-0.331696713769,1.0,0.0,0.0,0.0,1.0,0.0,0.0,0.0,1.0,3.01772460938,-0.0119750976563,10.7835754395,0.1,0.0,0.0,0.0,0.1,0.0,0.0,0.0,0.1
1446036467537578124,289,1446036467534425020,robocape,-25.5522534967,15.7121744398,-25.5522534967,0.0,10.0,0.0,0.0,0.0,10.0,0.0,0.0,0.0,10.0,-1.81094954125,0.327701972134,-0.366450965995,1.0,0.0,0.0,0.0,1.0,0.0,0.0,0.0,1.0,4.04039794922,-0.368833007813,9.90460327148,0.1,0.0,0.0,0.0,0.1,0.0,0.0,0.0,0.1
1446036467571141707,290,1446036467568065881,robocape,-29.6692698097,15.6819201277,-29.6692698097,0.0,10.0,0.0,0.0,0.0,10.0,0.0,0.0,0.0,10.0,-2.18152840694,0.306796157577,-0.360059379379,1.0,0.0,0.0,0.0,1.0,0.0,0.0,0.0,1.0,3.17938842773,1.06338867188,8.17899169922,0.1,0.0,0.0,0.0,0.1,0.0,0.0,0.0,0.1
1446036467603873082,291,1446036467600858926,robocape,-33.6851988037,14.838292075,-33.6851988037,0.0,10.0,0.0,0.0,0.0,10.0,0.0,0.0,0.0,10.0,-2.14131467448,-0.00599211245268,-0.608532309083,1.0,0.0,0.0,0.0,1.0,0.0,0.0,0.0,1.0,-2.49920288086,-5.72888671875,12.1223913574,0.1,0.0,0.0,0.0,0.1,0.0,0.0,0.0,0.1
1446036467637213916,292,1446036467634161949,robocape,-34.1745769926,14.9332722004,-34.1745769926,0.0,10.0,0.0,0.0,0.0,10.0,0.0,0.0,0.0,10.0,0.25779399352,1.05128284031,-1.50388706757,1.0,0.0,0.0,0.0,1.0,0.0,0.0,0.0,1.0,4.33498535156,-14.2216259766,11.2925170898,0.1,0.0,0.0,0.0,0.1,0.0,0.0,0.0,0.1
1446036467670783249,293,1446036467667689085,robocape,-33.6084121375,15.4097480872,-33.6084121375,0.0,10.0,0.0,0.0,0.0,10.0,0.0,0.0,0.0,10.0,0.824115199325,1.16033928695,-1.33704002527,1.0,0.0,0.0,0.0,1.0,0.0,0.0,0.0,1.0,-6.43661499023,-1.06338867188,10.0842297363,0.1,0.0,0.0,0.0,0.1,0.0,0.0,0.0,0.1
1446036467704040457,294,1446036467700947999,robocape,-32.9517171969,15.1780446515,-32.9517171969,0.0,10.0,0.0,0.0,0.0,10.0,0.0,0.0,0.0,10.0,0.709865588561,0.547679078175,-1.09189604693,1.0,0.0,0.0,0.0,1.0,0.0,0.0,0.0,1.0,0.985550537109,-0.232316894531,9.72258178711,0.1,0.0,0.0,0.0,0.1,0.0,0.0,0.0,0.1
1446036467737205041,295,1446036467734122991,robocape,-32.0625962706,14.7777415734,-32.0625962706,0.0,10.0,0.0,0.0,0.0,10.0,0.0,0.0,0.0,10.0,0.855407342133,0.494415856373,-1.21280356042,1.0,0.0,0.0,0.0,1.0,0.0,0.0,0.0,1.0,2.29323120117,-2.56626342773,8.15144897461,0.1,0.0,0.0,0.0,0.1,0.0,0.0,0.0,0.1
1446036467770660832,296,1446036467767595052,robocape,-30.4965821573,14.6355832039,-30.4965821573,0.0,10.0,0.0,0.0,0.0,10.0,0.0,0.0,0.0,10.0,1.36353847812,0.827044676524,-1.58471400665,1.0,0.0,0.0,0.0,1.0,0.0,0.0,0.0,1.0,3.53145629883,-3.20453613281,12.6433081055,0.1,0.0,0.0,0.0,0.1,0.0,0.0,0.0,0.1
1446036467804336332,297,1446036467800978899,robocape,-27.3874038834,14.1955567514,-27.3874038834,0.0,10.0,0.0,0.0,0.0,10.0,0.0,0.0,0.0,10.0,2.21801371387,0.634897603875,-1.75662105502,1.0,0.0,0.0,0.0,1.0,0.0,0.0,0.0,1.0,0.0562829589844,-1.80823974609,8.57536743164,0.1,0.0,0.0,0.0,0.1,0.0,0.0,0.0,0.1
1446036467837634499,298,1446036467834191083,robocape,-23.6803778591,14.1443663899,-23.6803778591,0.0,10.0,0.0,0.0,0.0,10.0,0.0,0.0,0.0,10.0,2.41269078956,0.587360178417,-1.40987748109,1.0,0.0,0.0,0.0,1.0,0.0,0.0,0.0,1.0,-0.347277832031,0.543669433594,9.01964355469,0.1,0.0,0.0,0.0,0.1,0.0,0.0,0.0,0.1
1446036467870899916,299,1446036467867543935,robocape,-20.358903209,14.3754412165,-20.358903209,0.0,10.0,0.0,0.0,0.0,10.0,0.0,0.0,0.0,10.0,2.01508083881,0.431298938538,-0.8174572966,1.0,0.0,0.0,0.0,1.0,0.0,0.0,0.0,1.0,-2.15192504883,2.39022949219,8.47477661133,0.1,0.0,0.0,0.0,0.1,0.0,0.0,0.0,0.1
1446036467904270957,300,1446036467900866031,robocape,-18.4230137028,14.8624562729,-18.4230137028,0.0,10.0,0.0,0.0,0.0,10.0,0.0,0.0,0.0,10.0,1.06206864272,0.296676145435,-0.0808269390839,1.0,0.0,0.0,0.0,1.0,0.0,0.0,0.0,1.0,1.51844238281,4.3649230957,11.4541809082,0.1,0.0,0.0,0.0,0.1,0.0,0.0,0.0,0.1
1446036467937618041,301,1446036467934293985,robocape,-18.2387577648,14.9109588263,-18.2387577648,0.0,10.0,0.0,0.0,0.0,10.0,0.0,0.0,0.0,10.0,-0.0567253312187,-0.121972777926,0.492817959719,1.0,0.0,0.0,0.0,1.0,0.0,0.0,0.0,1.0,1.28492797852,3.51349365234,8.59333007812,0.1,0.0,0.0,0.0,0.1,0.0,0.0,0.0,0.1
1446036467970727374,302,1446036467967596054,robocape,-20.1066719181,14.7674216502,-20.1066719181,0.0,10.0,0.0,0.0,0.0,10.0,0.0,0.0,0.0,10.0,-1.17099193131,-0.215982364405,0.495347962755,1.0,0.0,0.0,0.0,1.0,0.0,0.0,0.0,1.0,-2.16629516602,2.1495300293,9.40164916992,0.1,0.0,0.0,0.0,0.1,0.0,0.0,0.0,0.1
1446036468004235207,303,1446036468001085996,robocape,-22.7590141302,14.2736648842,-22.7590141302,0.0,10.0,0.0,0.0,0.0,10.0,0.0,0.0,0.0,10.0,-1.52971973014,-0.29800772598,0.167246516457,1.0,0.0,0.0,0.0,1.0,0.0,0.0,0.0,1.0,-3.25243652344,0.433498535156,7.39462280273,0.1,0.0,0.0,0.0,0.1,0.0,0.0,0.0,0.1
1446036468037462874,304,1446036468034223079,robocape,-25.544720604,14.0830882194,-25.544720604,0.0,10.0,0.0,0.0,0.0,10.0,0.0,0.0,0.0,10.0,-1.48990547184,0.0627174436714,-0.260057680446,1.0,0.0,0.0,0.0,1.0,0.0,0.0,0.0,1.0,1.04422851562,-1.1915222168,10.0255517578,0.1,0.0,0.0,0.0,0.1,0.0,0.0,0.0,0.1
1446036468070660208,305,1446036468067651987,robocape,-28.0542739137,14.3971986224,-28.0542739137,0.0,10.0,0.0,0.0,0.0,10.0,0.0,0.0,0.0,10.0,-1.22745094642,0.559396986971,-0.618519163171,1.0,0.0,0.0,0.0,1.0,0.0,0.0,0.0,1.0,4.40803344727,-0.989143066406,13.831237793,0.1,0.0,0.0,0.0,0.1,0.0,0.0,0.0,0.1
1446036468103945291,306,1446036468100939035,robocape,-29.7474125921,13.8594928606,-29.7474125921,0.0,10.0,0.0,0.0,0.0,10.0,0.0,0.0,0.0,10.0,-0.756071433473,0.220110264095,-0.900015290392,1.0,0.0,0.0,0.0,1.0,0.0,0.0,0.0,1.0,0.695753173828,-1.94954589844,8.18378173828,0.1,0.0,0.0,0.0,0.1,0.0,0.0,0.0,0.1
1446036468137607041,307,1446036468134336948,robocape,-30.914936365,13.6407454539,-30.914936365,0.0,10.0,0.0,0.0,0.0,10.0,0.0,0.0,0.0,10.0,-0.451672120877,0.453669491695,-0.9327721718,1.0,0.0,0.0,0.0,1.0,0.0,0.0,0.0,1.0,-2.40220458984,-0.4981640625,12.0541333008,0.1,0.0,0.0,0.0,0.1,0.0,0.0,0.0,0.1
1446036468171882374,308,1446036468168867111,robocape,-31.4649894186,13.2442874765,-31.4649894186,0.0,10.0,0.0,0.0,0.0,10.0,0.0,0.0,0.0,10.0,-0.103863282513,0.407863120946,-1.02505070357,1.0,0.0,0.0,0.0,1.0,0.0,0.0,0.0,1.0,-2.04774169922,-1.17595458984,12.4241638184,0.1,0.0,0.0,0.0,0.1,0.0,0.0,0.0,0.1
1446036468205161208,309,1446036468202152967,robocape,-31.4673757458,12.754107094,-31.4673757458,0.0,10.0,0.0,0.0,0.0,10.0,0.0,0.0,0.0,10.0,0.197340236775,0.380832035881,-1.0791128737,1.0,0.0,0.0,0.0,1.0,0.0,0.0,0.0,1.0,-5.56722290039,-2.20102294922,8.0053527832,0.1,0.0,0.0,0.0,0.1,0.0,0.0,0.0,0.1
1446036468238669499,310,1446036468235452890,robocape,-30.2974130135,11.8645509618,-30.2974130135,0.0,10.0,0.0,0.0,0.0,10.0,0.0,0.0,0.0,10.0,0.89136001685,0.299871938743,-1.399890627,1.0,0.0,0.0,0.0,1.0,0.0,0.0,0.0,1.0,-2.02858154297,-3.21052368164,12.8013793945,0.1,0.0,0.0,0.0,0.1,0.0,0.0,0.0,0.1
1446036468276953291,311,1446036468269087076,robocape,-27.779872549,10.8862949728,-27.779872549,0.0,10.0,0.0,0.0,0.0,10.0,0.0,0.0,0.0,10.0,1.64823039865,0.305464577032,-1.6141419367,1.0,0.0,0.0,0.0,1.0,0.0,0.0,0.0,1.0,-0.542471923828,-2.42974731445,9.2699230957,0.1,0.0,0.0,0.0,0.1,0.0,0.0,0.0,0.1
1446036468306080833,312,1446036468302798032,robocape,-23.6520653201,10.2051881613,-23.6520653201,0.0,10.0,0.0,0.0,0.0,10.0,0.0,0.0,0.0,10.0,2.52121460398,0.431964728811,-1.73891103377,1.0,0.0,0.0,0.0,1.0,0.0,0.0,0.0,1.0,0.433498535156,-1.90763305664,10.2015856934,0.1,0.0,0.0,0.0,0.1,0.0,0.0,0.0,0.1
1446036468339144791,313,1446036468335957050,robocape,-18.2559807122,9.62863622611,-18.2559807122,0.0,10.0,0.0,0.0,0.0,10.0,0.0,0.0,0.0,10.0,3.11776268816,0.241681868925,-1.50242232897,1.0,0.0,0.0,0.0,1.0,0.0,0.0,0.0,1.0,-3.9889050293,-0.907712402344,5.82947753906,0.1,0.0,0.0,0.0,0.1,0.0,0.0,0.0,0.1
1446036468372202708,314,1446036468369095087,robocape,-12.0153592287,9.02253484379,-12.0153592287,0.0,10.0,0.0,0.0,0.0,10.0,0.0,0.0,0.0,10.0,3.46583784263,-0.0288952978274,-1.13850136601,1.0,0.0,0.0,0.0,1.0,0.0,0.0,0.0,1.0,-3.23327636719,0.376018066406,10.3991748047,0.1,0.0,0.0,0.0,0.1,0.0,0.0,0.0,0.1
1446036468405579374,315,1446036468402501106,robocape,-5.47633518695,8.80871816922,-5.47633518695,0.0,10.0,0.0,0.0,0.0,10.0,0.0,0.0,0.0,10.0,3.54919478475,0.00719053494321,-0.783235676592,1.0,0.0,0.0,0.0,1.0,0.0,0.0,0.0,1.0,-2.43094482422,0.753233642578,6.4342199707,0.1,0.0,0.0,0.0,0.1,0.0,0.0,0.0,0.1
1446036468438353833,316,1446036468435256958,robocape,0.94408948886,8.66999611195,0.94408948886,0.0,10.0,0.0,0.0,0.0,10.0,0.0,0.0,0.0,10.0,3.41723515274,-0.0503337446025,-0.347009890037,1.0,0.0,0.0,0.0,1.0,0.0,0.0,0.0,1.0,-5.69894897461,2.46088256836,9.43517944336,0.1,0.0,0.0,0.0,0.1,0.0,0.0,0.0,0.1
1446036468476550833,317,1446036468473520994,robocape,6.69966009306,9.19793810857,6.69966009306,0.0,10.0,0.0,0.0,0.0,10.0,0.0,0.0,0.0,10.0,2.97941146953,0.311190373376,0.257394519356,1.0,0.0,0.0,0.0,1.0,0.0,0.0,0.0,1.0,2.97221923828,3.28237426758,8.17300415039,0.1,0.0,0.0,0.0,0.1,0.0,0.0,0.0,0.1
1446036468507442708,318,1446036468502681016,robocape,11.1829219448,9.73046834518,11.1829219448,0.0,10.0,0.0,0.0,0.0,10.0,0.0,0.0,0.0,10.0,2.2337263643,0.413056285071,0.712928223814,1.0,0.0,0.0,0.0,1.0,0.0,0.0,0.0,1.0,1.73878417969,4.56490722656,9.81479003906,0.1,0.0,0.0,0.0,0.1,0.0,0.0,0.0,0.1
1446036468540266791,319,1446036468537043094,robocape,14.2331465857,10.1884616143,14.2331465857,0.0,10.0,0.0,0.0,0.0,10.0,0.0,0.0,0.0,10.0,1.39602904342,0.507598503769,1.11479923231,1.0,0.0,0.0,0.0,1.0,0.0,0.0,0.0,1.0,2.15911010742,4.67388061523,12.3343505859,0.1,0.0,0.0,0.0,0.1,0.0,0.0,0.0,0.1
1446036468572893083,320,1446036468568430900,robocape,15.8103273905,10.8183217989,15.8103273905,0.0,10.0,0.0,0.0,0.0,10.0,0.0,0.0,0.0,10.0,0.56112804168,0.689359248167,1.29509523811,1.0,0.0,0.0,0.0,1.0,0.0,0.0,0.0,1.0,-1.44659179688,4.41282348633,11.4709460449,0.1,0.0,0.0,0.0,0.1,0.0,0.0,0.0,0.1
1446036468607757416,321,1446036468603936910,robocape,15.7063671692,11.3417359849,15.7063671692,0.0,10.0,0.0,0.0,0.0,10.0,0.0,0.0,0.0,10.0,-0.356597269962,0.651276044579,1.34835845991,1.0,0.0,0.0,0.0,1.0,0.0,0.0,0.0,1.0,-2.08725952148,4.50862426758,9.95250366211,0.1,0.0,0.0,0.0,0.1,0.0,0.0,0.0,0.1
1446036468639500749,322,1446036468636229038,robocape,14.3197501082,11.7881118959,14.3197501082,0.0,10.0,0.0,0.0,0.0,10.0,0.0,0.0,0.0,10.0,-1.06752812296,0.605336515775,1.44995805549,1.0,0.0,0.0,0.0,1.0,0.0,0.0,0.0,1.0,-2.75427246094,3.82125366211,13.0875842285,0.1,0.0,0.0,0.0,0.1,0.0,0.0,0.0,0.1
1446036468675516916,323,1446036468672149896,robocape,11.8451744845,11.9875270866,11.8451744845,0.0,10.0,0.0,0.0,0.0,10.0,0.0,0.0,0.0,10.0,-1.60122560541,0.381364668099,1.29749208309,1.0,0.0,0.0,0.0,1.0,0.0,0.0,0.0,1.0,2.16030761719,2.05732177734,7.42695556641,0.1,0.0,0.0,0.0,0.1,0.0,0.0,0.0,0.1
1446036468707606874,324,1446036468704468965,robocape,8.52755076168,12.4877819229,8.52755076168,0.0,10.0,0.0,0.0,0.0,10.0,0.0,0.0,0.0,10.0,-2.00842293608,0.446878430915,1.13011240858,1.0,0.0,0.0,0.0,1.0,0.0,0.0,0.0,1.0,-0.142503662109,2.15432006836,12.1259838867,0.1,0.0,0.0,0.0,0.1,0.0,0.0,0.0,0.1
1446036468741735458,325,1446036468738225936,robocape,4.58624946372,12.3243836505,4.58624946372,0.0,10.0,0.0,0.0,0.0,10.0,0.0,0.0,0.0,10.0,-2.27926641894,0.00585895439817,0.957805886047,1.0,0.0,0.0,0.0,1.0,0.0,0.0,0.0,1.0,0.621507568359,1.13164672852,8.14905395508,0.1,0.0,0.0,0.0,0.1,0.0,0.0,0.0,0.1
1446036468773404416,326,1446036468770298004,robocape,0.33973962725,12.6118732125,0.33973962725,0.0,10.0,0.0,0.0,0.0,10.0,0.0,0.0,0.0,10.0,-2.40097288076,0.17976337358,0.791491475972,1.0,0.0,0.0,0.0,1.0,0.0,0.0,0.0,1.0,0.170046386719,1.36516113281,8.58614501953,0.1,0.0,0.0,0.0,0.1,0.0,0.0,0.0,0.1
1446036468807078875,327,1446036468803577899,robocape,-4.04547117885,12.8072695723,-4.04547117885,0.0,10.0,0.0,0.0,0.0,10.0,0.0,0.0,0.0,10.0,-2.43106660108,0.0897485287357,0.585762281763,1.0,0.0,0.0,0.0,1.0,0.0,0.0,0.0,1.0,-0.09580078125,0.579594726562,9.50104248047,0.1,0.0,0.0,0.0,0.1,0.0,0.0,0.0,0.1
1446036468841878625,328,1446036468838454008,robocape,-8.51255425505,12.619378277,-8.51255425505,0.0,10.0,0.0,0.0,0.0,10.0,0.0,0.0,0.0,10.0,-2.42187869532,-0.116113823527,0.298806674307,1.0,0.0,0.0,0.0,1.0,0.0,0.0,0.0,1.0,0.159268798828,-0.221539306641,9.18729492188,0.1,0.0,0.0,0.0,0.1,0.0,0.0,0.0,0.1
1446036468873955583,329,1446036468870695114,robocape,-12.8716999593,12.6185320503,-12.8716999593,0.0,10.0,0.0,0.0,0.0,10.0,0.0,0.0,0.0,10.0,-2.33545911794,0.00932106381528,0.0970722217334,1.0,0.0,0.0,0.0,1.0,0.0,0.0,0.0,1.0,-0.732875976563,-0.604742431641,8.97174316406,0.1,0.0,0.0,0.0,0.1,0.0,0.0,0.0,0.1
1446036468907226083,330,1446036468903959989,robocape,-16.8626141814,12.5089075672,-16.8626141814,0.0,10.0,0.0,0.0,0.0,10.0,0.0,0.0,0.0,10.0,-2.11388411525,0.0107858024148,-0.128630680651,1.0,0.0,0.0,0.0,1.0,0.0,0.0,0.0,1.0,3.07161254883,-0.383203125,9.43517944336,0.1,0.0,0.0,0.0,0.1,0.0,0.0,0.0,0.1
1446036468939969750,331,1446036468936602115,robocape,-20.408058203,12.2637357287,-20.408058203,0.0,10.0,0.0,0.0,0.0,10.0,0.0,0.0,0.0,10.0,-1.84850011262,0.0307595105904,-0.372975710666,1.0,0.0,0.0,0.0,1.0,0.0,0.0,0.0,1.0,-1.5328125,-1.62621826172,10.1417102051,0.1,0.0,0.0,0.0,0.1,0.0,0.0,0.0,0.1
1446036468973030625,332,1446036468969829082,robocape,-22.9167189989,11.9451220468,-22.9167189989,0.0,10.0,0.0,0.0,0.0,10.0,0.0,0.0,0.0,10.0,-1.2371714844,0.138883850848,-0.708267691907,1.0,0.0,0.0,0.0,1.0,0.0,0.0,0.0,1.0,-0.21076171875,-2.65248413086,12.6720483398,0.1,0.0,0.0,0.0,0.1,0.0,0.0,0.0,0.1
1446036469007120583,333,1446036469004051923,robocape,-24.0284659474,11.6556563993,-24.0284659474,0.0,10.0,0.0,0.0,0.0,10.0,0.0,0.0,0.0,10.0,-0.395745737986,0.355532005526,-1.13663715325,1.0,0.0,0.0,0.0,1.0,0.0,0.0,0.0,1.0,-0.51732421875,-3.5218762207,12.3523132324,0.1,0.0,0.0,0.0,0.1,0.0,0.0,0.0,0.1
1446036469041214375,334,1446036469037998914,robocape,-23.397881622,11.0532225274,-23.397881622,0.0,10.0,0.0,0.0,0.0,10.0,0.0,0.0,0.0,10.0,0.62677496255,0.370712023739,-1.60229086985,1.0,0.0,0.0,0.0,1.0,0.0,0.0,0.0,1.0,2.72672973633,-3.88472167969,9.95250366211,0.1,0.0,0.0,0.0,0.1,0.0,0.0,0.0,0.1
1446036469072553958,335,1446036469069518089,robocape,-20.828719209,10.6631085843,-20.828719209,0.0,10.0,0.0,0.0,0.0,10.0,0.0,0.0,0.0,10.0,1.67592727399,0.457397917221,-1.66926937126,1.0,0.0,0.0,0.0,1.0,0.0,0.0,0.0,1.0,-0.7280859375,-2.99856445313,11.6469799805,0.1,0.0,0.0,0.0,0.1,0.0,0.0,0.0,0.1
1446036469106631708,336,1446036469103518962,robocape,-16.6229955275,10.1556208828,-16.6229955275,0.0,10.0,0.0,0.0,0.0,10.0,0.0,0.0,0.0,10.0,2.51535564958,0.266848741226,-1.63238459016,1.0,0.0,0.0,0.0,1.0,0.0,0.0,0.0,1.0,-1.33402587891,-2.01181640625,9.16693725586,0.1,0.0,0.0,0.0,0.1,0.0,0.0,0.0,0.1
1446036469139917833,337,1446036469136707067,robocape,-10.6882172181,9.82038968904,-10.6882172181,0.0,10.0,0.0,0.0,0.0,10.0,0.0,0.0,0.0,10.0,3.38248090051,0.177632844708,-1.49829442928,1.0,0.0,0.0,0.0,1.0,0.0,0.0,0.0,1.0,-3.21172119141,-1.69687133789,7.59340942383,0.1,0.0,0.0,0.0,0.1,0.0,0.0,0.0,0.1
1446036469172636833,338,1446036469169539928,robocape,-3.6127219338,9.7220553693,-3.6127219338,0.0,10.0,0.0,0.0,0.0,10.0,0.0,0.0,0.0,10.0,3.91471364436,0.101865911696,-1.19855564859,1.0,0.0,0.0,0.0,1.0,0.0,0.0,0.0,1.0,-3.50032104492,-0.605939941406,6.59827880859,0.1,0.0,0.0,0.0,0.1,0.0,0.0,0.0,0.1
1446036469204874916,339,1446036469201781988,robocape,4.10830985987,9.89654962907,4.10830985987,0.0,10.0,0.0,0.0,0.0,10.0,0.0,0.0,0.0,10.0,4.20499820318,0.110920659402,-0.875247892255,1.0,0.0,0.0,0.0,1.0,0.0,0.0,0.0,1.0,1.87170776367,0.59396484375,8.12869628906,0.1,0.0,0.0,0.0,0.1,0.0,0.0,0.0,0.1
1446036469238276250,340,1446036469235255956,robocape,12.173545589,10.1386359296,12.173545589,0.0,10.0,0.0,0.0,0.0,10.0,0.0,0.0,0.0,10.0,4.36318997193,0.105993811385,-0.533697482452,1.0,0.0,0.0,0.0,1.0,0.0,0.0,0.0,1.0,1.31007568359,1.31845825195,6.19711303711,0.1,0.0,0.0,0.0,0.1,0.0,0.0,0.0,0.1
1446036469278169458,341,1446036469270627021,robocape,20.2618179559,11.8070534834,20.2618179559,0.0,10.0,0.0,0.0,0.0,10.0,0.0,0.0,0.0,10.0,4.36318997193,0.949150612504,-0.26991137648,1.0,0.0,0.0,0.0,1.0,0.0,0.0,0.0,1.0,-8.08079589844,2.77942016602,11.097322998,0.1,0.0,0.0,0.0,0.1,0.0,0.0,0.0,0.1
1446036469304373416,342,1446036469301178932,robocape,28.3992868359,12.7278447498,28.3992868359,0.0,10.0,0.0,0.0,0.0,10.0,0.0,0.0,0.0,10.0,4.36318997193,0.824115199325,0.263519789863,1.0,0.0,0.0,0.0,1.0,0.0,0.0,0.0,1.0,3.78413085938,9.83634521484,3.70389770508,0.1,0.0,0.0,0.0,0.1,0.0,0.0,0.0,0.1
1446036469337736875,343,1446036469334501028,robocape,30.7483112567,12.9741829124,30.7483112567,0.0,10.0,0.0,0.0,0.0,10.0,0.0,0.0,0.0,10.0,0.549543290938,1.50774865115,2.43319712995,1.0,0.0,0.0,0.0,1.0,0.0,0.0,0.0,1.0,19.0691455078,19.6194012451,19.6194012451,0.1,0.0,0.0,0.0,0.1,0.0,0.0,0.0,0.1
1446036469371909541,344,1446036469368781089,robocape,27.6051199036,13.5310207379,27.6051199036,0.0,10.0,0.0,0.0,0.0,10.0,0.0,0.0,0.0,10.0,-2.42707185944,1.4130732744,2.17100892063,1.0,0.0,0.0,0.0,1.0,0.0,0.0,0.0,1.0,-3.45721069336,5.20557495117,7.48563354492,0.1,0.0,0.0,0.0,0.1,0.0,0.0,0.0,0.1
1446036469404777833,345,1446036469401128053,robocape,24.4858580418,14.0540682258,24.4858580418,0.0,10.0,0.0,0.0,0.0,10.0,0.0,0.0,0.0,10.0,-2.11854464716,0.886300010778,1.34063529275,1.0,0.0,0.0,0.0,1.0,0.0,0.0,0.0,1.0,-1.56035522461,-0.997525634766,8.46998657227,0.1,0.0,0.0,0.0,0.1,0.0,0.0,0.0,0.1
1446036469439244875,346,1446036469436155080,robocape,22.173758301,14.2810658568,22.173758301,0.0,10.0,0.0,0.0,0.0,10.0,0.0,0.0,0.0,10.0,-1.44756121051,0.396145212149,0.688959774003,1.0,0.0,0.0,0.0,1.0,0.0,0.0,0.0,1.0,-1.26936035156,-0.220341796875,9.25315795898,0.1,0.0,0.0,0.0,0.1,0.0,0.0,0.0,0.1
1446036469472137833,347,1446036469469022989,robocape,21.0253550235,14.5386405417,21.0253550235,0.0,10.0,0.0,0.0,0.0,10.0,0.0,0.0,0.0,10.0,-0.715724542959,0.287754555783,0.361923592142,1.0,0.0,0.0,0.0,1.0,0.0,0.0,0.0,1.0,-3.11352539062,-1.29450805664,9.5836706543,0.1,0.0,0.0,0.0,0.1,0.0,0.0,0.0,0.1
1446036469505703875,348,1446036469502388000,robocape,21.0067699018,14.3892154227,21.0067699018,0.0,10.0,0.0,0.0,0.0,10.0,0.0,0.0,0.0,10.0,-0.0677774497425,0.0464721610219,0.300005096797,1.0,0.0,0.0,0.0,1.0,0.0,0.0,0.0,1.0,4.04758300781,0.106578369141,8.14067138672,0.1,0.0,0.0,0.0,0.1,0.0,0.0,0.0,0.1
1446036469541643500,349,1446036469537659883,robocape,21.7964879521,14.5954969301,21.7964879521,0.0,10.0,0.0,0.0,0.0,10.0,0.0,0.0,0.0,10.0,0.350605157509,0.269645060371,0.314918798902,1.0,0.0,0.0,0.0,1.0,0.0,0.0,0.0,1.0,2.93868896484,0.0395178222656,9.43996948242,0.1,0.0,0.0,0.0,0.1,0.0,0.0,0.0,0.1
1446036469571431583,350,1446036469568306922,robocape,23.2112912013,14.7792425589,23.2112912013,0.0,10.0,0.0,0.0,0.0,10.0,0.0,0.0,0.0,10.0,0.66432553392,0.313853534466,0.409061543436,1.0,0.0,0.0,0.0,1.0,0.0,0.0,0.0,1.0,0.250279541016,1.2645703125,11.4936987305,0.1,0.0,0.0,0.0,0.1,0.0,0.0,0.0,0.1
1446036469607891833,351,1446036469603676080,robocape,24.8822090293,14.782204231,24.8822090293,0.0,10.0,0.0,0.0,0.0,10.0,0.0,0.0,0.0,10.0,0.759267226782,0.313187744193,0.600942299976,1.0,0.0,0.0,0.0,1.0,0.0,0.0,0.0,1.0,0.626297607422,0.725690917969,9.44954956055,0.1,0.0,0.0,0.0,0.1,0.0,0.0,0.0,0.1
1446036469640905500,352,1446036469637231111,robocape,26.5978516324,14.9097788314,26.5978516324,0.0,10.0,0.0,0.0,0.0,10.0,0.0,0.0,0.0,10.0,0.741157731369,0.477637941506,0.738095096115,1.0,0.0,0.0,0.0,1.0,0.0,0.0,0.0,1.0,-2.19743041992,2.36148925781,11.552376709,0.1,0.0,0.0,0.0,0.1,0.0,0.0,0.0,0.1
1446036469670458500,353,1446036469667468070,robocape,28.298866395,15.0130907467,28.298866395,0.0,10.0,0.0,0.0,0.0,10.0,0.0,0.0,0.0,10.0,0.718920336267,0.531433795525,0.807869916676,1.0,0.0,0.0,0.0,1.0,0.0,0.0,0.0,1.0,1.31965576172,1.69208129883,9.87825805664,0.1,0.0,0.0,0.0,0.1,0.0,0.0,0.0,0.1
1446036469704089667,354,1446036469701031923,robocape,29.9274682709,15.3352247002,29.9274682709,0.0,10.0,0.0,0.0,0.0,10.0,0.0,0.0,0.0,10.0,0.656868682868,0.721583497357,0.848083649136,1.0,0.0,0.0,0.0,1.0,0.0,0.0,0.0,1.0,-2.28125610352,1.98427368164,12.4205712891,0.1,0.0,0.0,0.0,0.1,0.0,0.0,0.0,0.1
1446036469738105667,355,1446036469735096931,robocape,31.5532363703,15.8237645914,31.5532363703,0.0,10.0,0.0,0.0,0.0,10.0,0.0,0.0,0.0,10.0,0.622513904806,0.905474770627,0.915461624715,1.0,0.0,0.0,0.0,1.0,0.0,0.0,0.0,1.0,-2.5255480957,1.72561157227,11.6421899414,0.1,0.0,0.0,0.0,0.1,0.0,0.0,0.0,0.1
1446036469771268875,356,1446036469767846107,robocape,33.176427194,15.809693137,33.176427194,0.0,10.0,0.0,0.0,0.0,10.0,0.0,0.0,0.0,10.0,0.658067105359,0.64688182878,0.935701648999,1.0,0.0,0.0,0.0,1.0,0.0,0.0,0.0,1.0,-2.86683837891,2.19383789063,10.1261425781,0.1,0.0,0.0,0.0,0.1,0.0,0.0,0.0,0.1
1446036469804306292,357,1446036469801244020,robocape,34.901517388,16.1262940897,34.901517388,0.0,10.0,0.0,0.0,0.0,10.0,0.0,0.0,0.0,10.0,0.722382445684,0.860999980423,0.870321044238,1.0,0.0,0.0,0.0,1.0,0.0,0.0,0.0,1.0,1.08733886719,2.15791259766,11.536809082,0.1,0.0,0.0,0.0,0.1,0.0,0.0,0.0,0.1
1446036469841679167,358,1446036469838378906,robocape,36.677864299,16.1753827259,36.677864299,0.0,10.0,0.0,0.0,0.0,10.0,0.0,0.0,0.0,10.0,0.810932551929,0.681636081006,0.798282536751,1.0,0.0,0.0,0.0,1.0,0.0,0.0,0.0,1.0,5.00798583984,1.03345092773,9.99561401367,0.1,0.0,0.0,0.0,0.1,0.0,0.0,0.0,0.1
1446036469870440542,359,1446036469867429018,robocape,38.7850577861,16.0798356389,38.7850577861,0.0,10.0,0.0,0.0,0.0,10.0,0.0,0.0,0.0,10.0,1.01639543003,0.681103448788,0.85500786797,1.0,0.0,0.0,0.0,1.0,0.0,0.0,0.0,1.0,3.69431762695,3.65958984375,9.8483203125,0.1,0.0,0.0,0.0,0.1,0.0,0.0,0.0,0.1
1446036469903742750,360,1446036469900734901,robocape,40.1970921051,16.2160598424,40.1970921051,0.0,10.0,0.0,0.0,0.0,10.0,0.0,0.0,0.0,10.0,0.541820123777,1.02478438746,1.04089651206,1.0,0.0,0.0,0.0,1.0,0.0,0.0,0.0,1.0,0.616717529297,10.0099841309,11.572734375,0.1,0.0,0.0,0.0,0.1,0.0,0.0,0.0,0.1
1446036469937708792,361,1446036469934340953,robocape,40.3521512111,16.1384134815,40.3521512111,0.0,10.0,0.0,0.0,0.0,10.0,0.0,0.0,0.0,10.0,-0.256196096866,1.10667659098,1.31187315297,1.0,0.0,0.0,0.0,1.0,0.0,0.0,0.0,1.0,-3.37338500977,5.38400390625,11.0865454102,0.1,0.0,0.0,0.0,0.1,0.0,0.0,0.0,0.1
1446036469970506208,362,1446036469967546939,robocape,40.2110041245,15.9683990016,40.2110041245,0.0,10.0,0.0,0.0,0.0,10.0,0.0,0.0,0.0,10.0,-0.289219294383,0.74768247604,0.977246962005,1.0,0.0,0.0,0.0,1.0,0.0,0.0,0.0,1.0,-0.437091064453,0.604742431641,10.6003564453,0.1,0.0,0.0,0.0,0.1,0.0,0.0,0.0,0.1
1446036470003912833,363,1446036470000941038,robocape,40.7078996605,16.0996207194,40.7078996605,0.0,10.0,0.0,0.0,0.0,10.0,0.0,0.0,0.0,10.0,0.129163312869,0.818788877145,0.800279907569,1.0,0.0,0.0,0.0,1.0,0.0,0.0,0.0,1.0,3.66437988281,0.734073486328,8.68553833008,0.1,0.0,0.0,0.0,0.1,0.0,0.0,0.0,0.1
1446036470037564750,364,1446036470034252882,robocape,41.6155968163,16.260178605,41.6155968163,0.0,10.0,0.0,0.0,0.0,10.0,0.0,0.0,0.0,10.0,0.380965193936,0.859934715987,0.798149378697,1.0,0.0,0.0,0.0,1.0,0.0,0.0,0.0,1.0,3.00335449219,1.42024658203,13.4588122559,0.1,0.0,0.0,0.0,0.1,0.0,0.0,0.0,0.1
1446036470070758250,365,1446036470067745923,robocape,42.4944531298,16.478292421,42.4944531298,0.0,10.0,0.0,0.0,0.0,10.0,0.0,0.0,0.0,10.0,0.311856163648,1.09642342079,0.98776644831,1.0,0.0,0.0,0.0,1.0,0.0,0.0,0.0,1.0,1.83218994141,4.9397277832,10.8614135742,0.1,0.0,0.0,0.0,0.1,0.0,0.0,0.0,0.1
1446036470103761292,366,1446036470100797891,robocape,42.6468002809,17.0493120054,42.6468002809,0.0,10.0,0.0,0.0,0.0,10.0,0.0,0.0,0.0,10.0,-0.145808069682,1.343697928,0.972719588151,1.0,0.0,0.0,0.0,1.0,0.0,0.0,0.0,1.0,-2.47884521484,3.89070922852,13.4827624512,0.1,0.0,0.0,0.0,0.1,0.0,0.0,0.0,0.1
1446036470141150750,367,1446036470137741088,robocape,42.8107113545,16.9756831135,42.8107113545,0.0,10.0,0.0,0.0,0.0,10.0,0.0,0.0,0.0,10.0,-0.0631169178349,0.880574214435,0.974317484805,1.0,0.0,0.0,0.0,1.0,0.0,0.0,0.0,1.0,-3.97094238281,2.01900146484,9.95010864258,0.1,0.0,0.0,0.0,0.1,0.0,0.0,0.0,0.1
1446036470170771125,368,1446036470167717933,robocape,43.2707392362,16.7096491051,43.2707392362,0.0,10.0,0.0,0.0,0.0,10.0,0.0,0.0,0.0,10.0,0.155528607661,0.735964567243,0.964064314609,1.0,0.0,0.0,0.0,1.0,0.0,0.0,0.0,1.0,-1.88607788086,1.42503662109,13.4456396484,0.1,0.0,0.0,0.0,0.1,0.0,0.0,0.0,0.1
1446036470204128334,369,1446036470200794935,robocape,43.9503183836,16.3804905126,43.9503183836,0.0,10.0,0.0,0.0,0.0,10.0,0.0,0.0,0.0,10.0,0.311190373376,0.715724542959,0.982706442239,1.0,0.0,0.0,0.0,1.0,0.0,0.0,0.0,1.0,-2.09444458008,1.82260986328,10.2243383789,0.1,0.0,0.0,0.0,0.1,0.0,0.0,0.0,0.1
1446036470237499500,370,1446036470234420061,robocape,44.4980458982,15.7986803229,44.4980458982,0.0,10.0,0.0,0.0,0.0,10.0,0.0,0.0,0.0,10.0,0.258592941847,0.625177065896,1.07458549985,1.0,0.0,0.0,0.0,1.0,0.0,0.0,0.0,1.0,-2.76385253906,2.37705688477,9.66150878906,0.1,0.0,0.0,0.0,0.1,0.0,0.0,0.0,0.1
1446036470274575375,371,1446036470268767118,robocape,44.7300566287,15.5127269231,44.7300566287,0.0,10.0,0.0,0.0,0.0,10.0,0.0,0.0,0.0,10.0,0.0568584892732,0.90201266121,1.13357451799,1.0,0.0,0.0,0.0,1.0,0.0,0.0,0.0,1.0,2.95545410156,4.03560791016,12.9510681152,0.1,0.0,0.0,0.0,0.1,0.0,0.0,0.0,0.1
1446036470304608875,372,1446036470301485061,robocape,44.7781933161,15.2756550737,44.7781933161,0.0,10.0,0.0,0.0,0.0,10.0,0.0,0.0,0.0,10.0,-0.0575242795457,1.05088336615,1.25528097981,1.0,0.0,0.0,0.0,1.0,0.0,0.0,0.0,1.0,3.34584228516,2.02259399414,10.3129541016,0.1,0.0,0.0,0.0,0.1,0.0,0.0,0.0,0.1
1446036470337563959,373,1446036470334314107,robocape,44.2974007459,14.8286768481,44.2974007459,0.0,10.0,0.0,0.0,0.0,10.0,0.0,0.0,0.0,10.0,-0.379367297282,1.13503925659,1.52133077271,1.0,0.0,0.0,0.0,1.0,0.0,0.0,0.0,1.0,-1.01668579102,2.59260864258,11.7451757813,0.1,0.0,0.0,0.0,0.1,0.0,0.0,0.0,0.1
1446036470370792750,374,1446036470367681980,robocape,43.1584676608,14.5478090489,43.1584676608,0.0,10.0,0.0,0.0,0.0,10.0,0.0,0.0,0.0,10.0,-0.750212479075,1.21559987957,1.52785551738,1.0,0.0,0.0,0.0,1.0,0.0,0.0,0.0,1.0,4.89182739258,2.67044677734,13.1043493652,0.1,0.0,0.0,0.0,0.1,0.0,0.0,0.0,0.1
1446036470403957125,375,1446036470400888919,robocape,41.656877799,13.9895353069,41.656877799,0.0,10.0,0.0,0.0,0.0,10.0,0.0,0.0,0.0,10.0,-0.911200566971,0.942625867834,1.51933340189,1.0,0.0,0.0,0.0,1.0,0.0,0.0,0.0,1.0,0.280217285156,2.04295166016,9.86388793945,0.1,0.0,0.0,0.0,0.1,0.0,0.0,0.0,0.1
1446036470437735542,376,1446036470434505939,robocape,39.6711537109,13.3688613321,39.6711537109,0.0,10.0,0.0,0.0,0.0,10.0,0.0,0.0,0.0,10.0,-1.16140455138,0.845154171937,1.54396764197,1.0,0.0,0.0,0.0,1.0,0.0,0.0,0.0,1.0,-2.11240722656,2.20341796875,10.3692370605,0.1,0.0,0.0,0.0,0.1,0.0,0.0,0.0,0.1
1446036470472239459,377,1446036470469149112,robocape,37.2215089733,12.6693637186,37.2215089733,0.0,10.0,0.0,0.0,0.0,10.0,0.0,0.0,0.0,10.0,-1.39176798568,0.682967661551,1.51440655387,1.0,0.0,0.0,0.0,1.0,0.0,0.0,0.0,1.0,2.21299804688,1.96391601563,11.3907128906,0.1,0.0,0.0,0.0,0.1,0.0,0.0,0.0,0.1
1446036470505228042,378,1446036470502018928,robocape,34.413521376,12.0954868142,34.413521376,0.0,10.0,0.0,0.0,0.0,10.0,0.0,0.0,0.0,10.0,-1.56806924984,0.617720214844,1.43597645977,1.0,0.0,0.0,0.0,1.0,0.0,0.0,0.0,1.0,-0.701740722656,1.35558105469,9.66989135742,0.1,0.0,0.0,0.0,0.1,0.0,0.0,0.0,0.1
1446036470539028709,379,1446036470535906076,robocape,31.1939435983,11.6884484715,31.1939435983,0.0,10.0,0.0,0.0,0.0,10.0,0.0,0.0,0.0,10.0,-1.77992371455,0.576574376002,1.35115477905,1.0,0.0,0.0,0.0,1.0,0.0,0.0,0.0,1.0,2.20461547852,1.85614013672,10.6757995605,0.1,0.0,0.0,0.0,0.1,0.0,0.0,0.0,0.1
1446036470572114000,380,1446036470569091081,robocape,27.47696656,11.2679969296,27.47696656,0.0,10.0,0.0,0.0,0.0,10.0,0.0,0.0,0.0,10.0,-2.03785086613,0.442484215117,1.2918994448,1.0,0.0,0.0,0.0,1.0,0.0,0.0,0.0,1.0,1.4908996582,1.24900268555,9.81479003906,0.1,0.0,0.0,0.0,0.1,0.0,0.0,0.0,0.1
1446036470605653542,381,1446036470602297067,robocape,23.3528231269,10.876614611,23.3528231269,0.0,10.0,0.0,0.0,0.0,10.0,0.0,0.0,0.0,10.0,-2.24464532477,0.32344091439,1.20068617746,1.0,0.0,0.0,0.0,1.0,0.0,0.0,0.0,1.0,0.0646655273438,1.17236206055,10.9224865723,0.1,0.0,0.0,0.0,0.1,0.0,0.0,0.0,0.1
1446036470639135584,382,1446036470635838985,robocape,18.9217567466,10.3164951794,18.9217567466,0.0,10.0,0.0,0.0,0.0,10.0,0.0,0.0,0.0,10.0,-2.39058655251,0.0917458995532,1.07431918374,1.0,0.0,0.0,0.0,1.0,0.0,0.0,0.0,1.0,-3.07041503906,0.467028808594,7.20541625977,0.1,0.0,0.0,0.0,0.1,0.0,0.0,0.0,0.1
1446036470672653167,383,1446036470669547080,robocape,14.3727424458,10.2613098239,14.3727424458,0.0,10.0,0.0,0.0,0.0,10.0,0.0,0.0,0.0,10.0,-2.447977674,0.248206613595,0.915195308606,1.0,0.0,0.0,0.0,1.0,0.0,0.0,0.0,1.0,-1.39390136719,0.599952392578,10.0818347168,0.1,0.0,0.0,0.0,0.1,0.0,0.0,0.0,0.1
1446036470705560000,384,1446036470702450037,robocape,9.57222802602,9.83272370633,9.57222802602,0.0,10.0,0.0,0.0,0.0,10.0,0.0,0.0,0.0,10.0,-2.56515676196,-0.0564590151097,0.738494570279,1.0,0.0,0.0,0.0,1.0,0.0,0.0,0.0,1.0,-0.263452148438,0.239501953125,9.65192871094,0.1,0.0,0.0,0.0,0.1,0.0,0.0,0.0,0.1
1446036470739243375,385,1446036470735934972,robocape,4.55118923253,9.3203701879,4.55118923253,0.0,10.0,0.0,0.0,0.0,10.0,0.0,0.0,0.0,10.0,-2.66595740922,-0.179097583308,0.516919567584,1.0,0.0,0.0,0.0,1.0,0.0,0.0,0.0,1.0,-0.0431103515625,-0.239501953125,6.55995849609,0.1,0.0,0.0,0.0,0.1,0.0,0.0,0.0,0.1
1446036470777666292,386,1446036470773673057,robocape,-0.499981125753,9.75861846396,-0.499981125753,0.0,10.0,0.0,0.0,0.0,10.0,0.0,0.0,0.0,10.0,-2.66569109311,0.28322718193,0.264451896245,1.0,0.0,0.0,0.0,1.0,0.0,0.0,0.0,1.0,-0.184416503906,-0.835861816406,11.5463891602,0.1,0.0,0.0,0.0,0.1,0.0,0.0,0.0,0.1
1446036470808027834,387,1446036470803142070,robocape,-5.3103670534,9.87175965189,-5.3103670534,0.0,10.0,0.0,0.0,0.0,10.0,0.0,0.0,0.0,10.0,-2.51468985931,0.11145329162,0.00466053190764,1.0,0.0,0.0,0.0,1.0,0.0,0.0,0.0,1.0,-1.19511474609,-0.978365478516,7.33833984375,0.1,0.0,0.0,0.0,0.1,0.0,0.0,0.0,0.1
1446036470842366792,388,1446036470838628053,robocape,-9.87451060484,10.140665478,-9.87451060484,0.0,10.0,0.0,0.0,0.0,10.0,0.0,0.0,0.0,10.0,-2.34278281094,0.236621862854,-0.302268783724,1.0,0.0,0.0,0.0,1.0,0.0,0.0,0.0,1.0,2.93030639648,-2.49321533203,11.0506201172,0.1,0.0,0.0,0.0,0.1,0.0,0.0,0.0,0.1
1446036470874487376,389,1446036470871332883,robocape,-13.8655920238,10.0800874924,-13.8655920238,0.0,10.0,0.0,0.0,0.0,10.0,0.0,0.0,0.0,10.0,-2.01228451966,0.12889699676,-0.529969056926,1.0,0.0,0.0,0.0,1.0,0.0,0.0,0.0,1.0,-0.961600341797,-2.51716552734,9.74174194336,0.1,0.0,0.0,0.0,0.1,0.0,0.0,0.0,0.1
1446036470907910584,390,1446036470904334068,robocape,-17.2818959102,10.4230139842,-17.2818959102,0.0,10.0,0.0,0.0,0.0,10.0,0.0,0.0,0.0,10.0,-1.62186510386,0.462591081347,-0.901613187046,1.0,0.0,0.0,0.0,1.0,0.0,0.0,0.0,1.0,0.916094970703,-2.48842529297,11.1404333496,0.1,0.0,0.0,0.0,0.1,0.0,0.0,0.0,0.1
1446036470940321417,391,1446036470937191009,robocape,-19.7673016246,11.0223718354,-19.7673016246,0.0,10.0,0.0,0.0,0.0,10.0,0.0,0.0,0.0,10.0,-1.02331964886,0.734366670589,-1.25288413483,1.0,0.0,0.0,0.0,1.0,0.0,0.0,0.0,1.0,-1.07057373047,-3.31829956055,13.810880127,0.1,0.0,0.0,0.0,0.1,0.0,0.0,0.0,0.1
1446036470974624292,392,1446036470970772981,robocape,-20.6472661901,11.9369051986,-20.6472661901,0.0,10.0,0.0,0.0,0.0,10.0,0.0,0.0,0.0,10.0,-0.0769653555033,0.980975387531,-1.45927911931,1.0,0.0,0.0,0.0,1.0,0.0,0.0,0.0,1.0,2.19862792969,-3.51588867188,11.6577575684,0.1,0.0,0.0,0.0,0.1,0.0,0.0,0.0,0.1
1446036471008299209,393,1446036471004982948,robocape,-20.1786027187,12.8014515014,-20.1786027187,0.0,10.0,0.0,0.0,0.0,10.0,0.0,0.0,0.0,10.0,0.72344771012,0.988698554692,-1.66261146854,1.0,0.0,0.0,0.0,1.0,0.0,0.0,0.0,1.0,-2.64290405273,-3.07400756836,12.2541174316,0.1,0.0,0.0,0.0,0.1,0.0,0.0,0.0,0.1
1446036471041658709,394,1446036471038072109,robocape,-18.3516112072,13.1572392355,-18.3516112072,0.0,10.0,0.0,0.0,0.0,10.0,0.0,0.0,0.0,10.0,1.4590128032,0.671516068863,-1.75235999727,1.0,0.0,0.0,0.0,1.0,0.0,0.0,0.0,1.0,-2.73271728516,-3.62605957031,9.07113647461,0.1,0.0,0.0,0.0,0.1,0.0,0.0,0.0,0.1
1446036471070488959,395,1446036471067495107,robocape,-15.368282984,13.7471377151,-15.368282984,0.0,10.0,0.0,0.0,0.0,10.0,0.0,0.0,0.0,10.0,2.06181931594,0.704139792217,-1.71614100645,1.0,0.0,0.0,0.0,1.0,0.0,0.0,0.0,1.0,-1.53041748047,-2.74469238281,10.3931872559,0.1,0.0,0.0,0.0,0.1,0.0,0.0,0.0,0.1
