%time,field.header.seq,field.header.stamp,field.header.frame_id,field.orientation.x,field.orientation.y,field.orientation.z,field.orientation.w,field.orientation_covariance0,field.orientation_covariance1,field.orientation_covariance2,field.orientation_covariance3,field.orientation_covariance4,field.orientation_covariance5,field.orientation_covariance6,field.orientation_covariance7,field.orientation_covariance8,field.angular_velocity.x,field.angular_velocity.y,field.angular_velocity.z,field.angular_velocity_covariance0,field.angular_velocity_covariance1,field.angular_velocity_covariance2,field.angular_velocity_covariance3,field.angular_velocity_covariance4,field.angular_velocity_covariance5,field.angular_velocity_covariance6,field.angular_velocity_covariance7,field.angular_velocity_covariance8,field.linear_acceleration.x,field.linear_acceleration.y,field.linear_acceleration.z,field.linear_acceleration_covariance0,field.linear_acceleration_covariance1,field.linear_acceleration_covariance2,field.linear_acceleration_covariance3,field.linear_acceleration_covariance4,field.linear_acceleration_covariance5,field.linear_acceleration_covariance6,field.linear_acceleration_covariance7,field.linear_acceleration_covariance8
1452011197177986326,1,1452011197171087026,robocape,0.63987863201,10.5668876582,14.647576572,0.0,10.0,0.0,0.0,0.0,10.0,0.0,0.0,0.0,10.0,0.00266316109008,0.0115847507418,0.00372842552611,1.0,0.0,0.0,0.0,1.0,0.0,0.0,0.0,1.0,0.100590820313,0.0993933105469,10.1608703613,0.1,0.0,0.0,0.0,0.1,0.0,0.0,0.0,0.1
1452011197194679451,2,1452011197191562891,robocape,0.642806554424,10.5697172098,14.6288698225,0.0,10.0,0.0,0.0,0.0,10.0,0.0,0.0,0.0,10.0,0.00266316109008,0.0113184346328,0.00399474163512,1.0,0.0,0.0,0.0,1.0,0.0,0.0,0.0,1.0,0.0993933105469,0.0993933105469,10.1704504395,0.1,0.0,0.0,0.0,0.1,0.0,0.0,0.0,0.1
1452011197218480160,3,1452011197215361118,robocape,0.645780338135,10.572793772,14.6104603874,0.0,10.0,0.0,0.0,0.0,10.0,0.0,0.0,0.0,10.0,0.00266316109008,0.0114515926873,0.00412789968962,1.0,0.0,0.0,0.0,1.0,0.0,0.0,0.0,1.0,0.0993933105469,0.0910107421875,10.1896105957,0.1,0.0,0.0,0.0,0.1,0.0,0.0,0.0,0.1
1452011197252190076,4,1452011197248965978,robocape,0.64896023238,10.576631865,14.5918392834,0.0,10.0,0.0,0.0,0.0,10.0,0.0,0.0,0.0,10.0,0.00279631914458,0.0118510668509,0.00399474163512,1.0,0.0,0.0,0.0,1.0,0.0,0.0,0.0,1.0,0.123343505859,0.113763427734,10.1740429688,0.1,0.0,0.0,0.0,0.1,0.0,0.0,0.0,0.1
1452011197294475535,5,1452011197289094924,robocape,0.652599265123,10.5799715829,14.5730074179,0.0,10.0,0.0,0.0,0.0,10.0,0.0,0.0,0.0,10.0,0.00306263525359,0.0115847507418,0.00386158358061,1.0,0.0,0.0,0.0,1.0,0.0,0.0,0.0,1.0,0.104183349609,0.102985839844,10.1680554199,0.1,0.0,0.0,0.0,0.1,0.0,0.0,0.0,0.1
1452011197318427701,6,1452011197315490961,robocape,0.65618946859,10.5843240665,14.5539646334,0.0,10.0,0.0,0.0,0.0,10.0,0.0,0.0,0.0,10.0,0.00306263525359,0.0121173829599,0.00372842552611,1.0,0.0,0.0,0.0,1.0,0.0,0.0,0.0,1.0,0.0969982910156,0.111368408203,10.1620678711,0.1,0.0,0.0,0.0,0.1,0.0,0.0,0.0,0.1
1452011197351723493,7,1452011197348771095,robocape,0.660378510621,10.58765649,14.5354742952,0.0,10.0,0.0,0.0,0.0,10.0,0.0,0.0,0.0,10.0,0.0033289513626,0.0115847507418,0.00399474163512,1.0,0.0,0.0,0.0,1.0,0.0,0.0,0.0,1.0,0.106578369141,0.100590820313,10.1632653809,0.1,0.0,0.0,0.0,0.1,0.0,0.0,0.0,0.1
1452011197385053285,8,1452011197382136106,robocape,0.66370876704,10.5910000233,14.5165178182,0.0,10.0,0.0,0.0,0.0,10.0,0.0,0.0,0.0,10.0,0.00292947719909,0.0115847507418,0.00372842552611,1.0,0.0,0.0,0.0,1.0,0.0,0.0,0.0,1.0,0.106578369141,0.102985839844,10.1800305176,0.1,0.0,0.0,0.0,0.1,0.0,0.0,0.0,0.1
1452011197418249410,9,1452011197415340900,robocape,0.666275593205,10.5943431021,14.4976043338,0.0,10.0,0.0,0.0,0.0,10.0,0.0,0.0,0.0,10.0,0.00253000303558,0.0115847507418,0.00372842552611,1.0,0.0,0.0,0.0,1.0,0.0,0.0,0.0,1.0,0.107775878906,0.0981958007813,10.1788330078,0.1,0.0,0.0,0.0,0.1,0.0,0.0,0.0,0.1
1452011197451470535,10,1452011197448612928,robocape,0.670158448719,10.5979329217,14.4789893072,0.0,10.0,0.0,0.0,0.0,10.0,0.0,0.0,0.0,10.0,0.0031957933081,0.0117179087963,0.00386158358061,1.0,0.0,0.0,0.0,1.0,0.0,0.0,0.0,1.0,0.100590820313,0.100590820313,10.1548828125,0.1,0.0,0.0,0.0,0.1,0.0,0.0,0.0,0.1
1452011197485098493,11,1452011197482141017,robocape,0.674085437087,10.6015163685,14.4606712522,0.0,10.0,0.0,0.0,0.0,10.0,0.0,0.0,0.0,10.0,0.0031957933081,0.0117179087963,0.00399474163512,1.0,0.0,0.0,0.0,1.0,0.0,0.0,0.0,1.0,0.086220703125,0.102985839844,10.1405126953,0.1,0.0,0.0,0.0,0.1,0.0,0.0,0.0,0.1
1452011197518607576,12,1452011197515568017,robocape,0.678009694731,10.6056026133,14.4423953573,0.0,10.0,0.0,0.0,0.0,10.0,0.0,0.0,0.0,10.0,0.0031957933081,0.0119842249054,0.00399474163512,1.0,0.0,0.0,0.0,1.0,0.0,0.0,0.0,1.0,0.110170898438,0.104183349609,10.1644628906,0.1,0.0,0.0,0.0,0.1,0.0,0.0,0.0,0.1
1452011197551542035,13,1452011197548650979,robocape,0.68239153467,10.609189979,14.4239072714,0.0,10.0,0.0,0.0,0.0,10.0,0.0,0.0,0.0,10.0,0.0034621094171,0.0117179087963,0.00386158358061,1.0,0.0,0.0,0.0,1.0,0.0,0.0,0.0,1.0,0.105380859375,0.104183349609,10.1740429688,0.1,0.0,0.0,0.0,0.1,0.0,0.0,0.0,0.1
1452011197585229326,14,1452011197582186937,robocape,0.686308896576,10.6127705673,14.4057155328,0.0,10.0,0.0,0.0,0.0,10.0,0.0,0.0,0.0,10.0,0.0031957933081,0.0117179087963,0.00399474163512,1.0,0.0,0.0,0.0,1.0,0.0,0.0,0.0,1.0,0.101788330078,0.100590820313,10.1644628906,0.1,0.0,0.0,0.0,0.1,0.0,0.0,0.0,0.1
1452011197618963826,15,1452011197615667104,robocape,0.690176419345,10.6166080883,14.3873113365,0.0,10.0,0.0,0.0,0.0,10.0,0.0,0.0,0.0,10.0,0.0031957933081,0.0118510668509,0.00386158358061,1.0,0.0,0.0,0.0,1.0,0.0,0.0,0.0,1.0,0.107775878906,0.106578369141,10.1740429688,0.1,0.0,0.0,0.0,0.1,0.0,0.0,0.0,0.1
1452011197651586201,16,1452011197648667097,robocape,0.693486165169,10.6201983462,14.3686944027,0.0,10.0,0.0,0.0,0.0,10.0,0.0,0.0,0.0,10.0,0.00292947719909,0.0117179087963,0.00372842552611,1.0,0.0,0.0,0.0,1.0,0.0,0.0,0.0,1.0,0.104183349609,0.104183349609,10.1620678711,0.1,0.0,0.0,0.0,0.1,0.0,0.0,0.0,0.1
1452011197685061410,17,1452011197682101964,robocape,0.697301989056,10.6240400377,14.350120418,0.0,10.0,0.0,0.0,0.0,10.0,0.0,0.0,0.0,10.0,0.0031957933081,0.0118510668509,0.00372842552611,1.0,0.0,0.0,0.0,1.0,0.0,0.0,0.0,1.0,0.09580078125,0.0898132324219,10.1692529297,0.1,0.0,0.0,0.0,0.1,0.0,0.0,0.0,0.1
1452011197718477035,18,1452011197715526103,robocape,0.700654239654,10.627622635,14.3318425094,0.0,10.0,0.0,0.0,0.0,10.0,0.0,0.0,0.0,10.0,0.00292947719909,0.0117179087963,0.00386158358061,1.0,0.0,0.0,0.0,1.0,0.0,0.0,0.0,1.0,0.113763427734,0.0874182128906,10.1465002441,0.1,0.0,0.0,0.0,0.1,0.0,0.0,0.0,0.1
1452011197752106326,19,1452011197748569011,robocape,0.703797972515,10.6317017676,14.3138606715,0.0,10.0,0.0,0.0,0.0,10.0,0.0,0.0,0.0,10.0,0.00279631914458,0.0119842249054,0.00399474163512,1.0,0.0,0.0,0.0,1.0,0.0,0.0,0.0,1.0,0.107775878906,0.102985839844,10.1620678711,0.1,0.0,0.0,0.0,0.1,0.0,0.0,0.0,0.1
1452011197785051076,20,1452011197782113075,robocape,0.706591533759,10.6350356896,14.2954101073,0.0,10.0,0.0,0.0,0.0,10.0,0.0,0.0,0.0,10.0,0.00266316109008,0.0115847507418,0.00372842552611,1.0,0.0,0.0,0.0,1.0,0.0,0.0,0.0,1.0,0.112565917969,0.106578369141,10.1548828125,0.1,0.0,0.0,0.0,0.1,0.0,0.0,0.0,0.1
1452011197818552285,21,1452011197815634965,robocape,0.709289947219,10.638381361,14.276492785,0.0,10.0,0.0,0.0,0.0,10.0,0.0,0.0,0.0,10.0,0.00266316109008,0.0115847507418,0.0034621094171,1.0,0.0,0.0,0.0,1.0,0.0,0.0,0.0,1.0,0.106578369141,0.108973388672,10.1500927734,0.1,0.0,0.0,0.0,0.1,0.0,0.0,0.0,0.1
1452011197851829285,22,1452011197848933935,robocape,0.711827923123,10.6414630995,14.2581266214,0.0,10.0,0.0,0.0,0.0,10.0,0.0,0.0,0.0,10.0,0.00253000303558,0.0114515926873,0.00372842552611,1.0,0.0,0.0,0.0,1.0,0.0,0.0,0.0,1.0,0.0946032714844,0.110170898438,10.1417102051,0.1,0.0,0.0,0.0,0.1,0.0,0.0,0.0,0.1
1452011197884969535,23,1452011197882067918,robocape,0.715221656443,10.6450369441,14.2403118416,0.0,10.0,0.0,0.0,0.0,10.0,0.0,0.0,0.0,10.0,0.00292947719909,0.0117179087963,0.00399474163512,1.0,0.0,0.0,0.0,1.0,0.0,0.0,0.0,1.0,0.102985839844,0.0850231933594,10.177635498,0.1,0.0,0.0,0.0,0.1,0.0,0.0,0.0,0.1
1452011197918255327,24,1452011197915323019,robocape,0.719281034272,10.6493774729,14.2220300413,0.0,10.0,0.0,0.0,0.0,10.0,0.0,0.0,0.0,10.0,0.0033289513626,0.0121173829599,0.00372842552611,1.0,0.0,0.0,0.0,1.0,0.0,0.0,0.0,1.0,0.108973388672,0.0993933105469,10.1860180664,0.1,0.0,0.0,0.0,0.1,0.0,0.0,0.0,0.1
1452011197951505827,25,1452011197948628902,robocape,0.723431224449,10.6532002947,14.2042977345,0.0,10.0,0.0,0.0,0.0,10.0,0.0,0.0,0.0,10.0,0.0033289513626,0.0118510668509,0.00399474163512,1.0,0.0,0.0,0.0,1.0,0.0,0.0,0.0,1.0,0.0910107421875,0.105380859375,10.1680554199,0.1,0.0,0.0,0.0,0.1,0.0,0.0,0.0,0.1
1452011197985131910,26,1452011197982224941,robocape,0.726816430983,10.657272918,14.1866054331,0.0,10.0,0.0,0.0,0.0,10.0,0.0,0.0,0.0,10.0,0.00292947719909,0.0119842249054,0.00399474163512,1.0,0.0,0.0,0.0,1.0,0.0,0.0,0.0,1.0,0.110170898438,0.105380859375,10.1644628906,0.1,0.0,0.0,0.0,0.1,0.0,0.0,0.0,0.1
1452011198018262493,27,1452011198015367031,robocape,0.730151819061,10.6605945265,14.1686976186,0.0,10.0,0.0,0.0,0.0,10.0,0.0,0.0,0.0,10.0,0.00292947719909,0.0115847507418,0.00386158358061,1.0,0.0,0.0,0.0,1.0,0.0,0.0,0.0,1.0,0.119750976563,0.107775878906,10.1692529297,0.1,0.0,0.0,0.0,0.1,0.0,0.0,0.0,0.1
1452011198051658535,28,1452011198048744916,robocape,0.733532344557,10.6636579873,14.1510844479,0.0,10.0,0.0,0.0,0.0,10.0,0.0,0.0,0.0,10.0,0.00292947719909,0.0114515926873,0.00399474163512,1.0,0.0,0.0,0.0,1.0,0.0,0.0,0.0,1.0,0.102985839844,0.0946032714844,10.1872155762,0.1,0.0,0.0,0.0,0.1,0.0,0.0,0.0,0.1
1452011198085143077,29,1452011198082182884,robocape,0.736609691042,10.666727401,14.1332566531,0.0,10.0,0.0,0.0,0.0,10.0,0.0,0.0,0.0,10.0,0.00279631914458,0.0114515926873,0.00386158358061,1.0,0.0,0.0,0.0,1.0,0.0,0.0,0.0,1.0,0.104183349609,0.0969982910156,10.1812280273,0.1,0.0,0.0,0.0,0.1,0.0,0.0,0.0,0.1
1452011198118789868,30,1452011198115715026,robocape,0.740400407641,10.6705584971,14.1152163797,0.0,10.0,0.0,0.0,0.0,10.0,0.0,0.0,0.0,10.0,0.0031957933081,0.0118510668509,0.00372842552611,1.0,0.0,0.0,0.0,1.0,0.0,0.0,0.0,1.0,0.110170898438,0.100590820313,10.1596728516,0.1,0.0,0.0,0.0,0.1,0.0,0.0,0.0,0.1
1452011198151839118,31,1452011198148817062,robocape,0.744489208101,10.6738789152,14.0974706279,0.0,10.0,0.0,0.0,0.0,10.0,0.0,0.0,0.0,10.0,0.0033289513626,0.0115847507418,0.00386158358061,1.0,0.0,0.0,0.0,1.0,0.0,0.0,0.0,1.0,0.0993933105469,0.0993933105469,10.152487793,0.1,0.0,0.0,0.0,0.1,0.0,0.0,0.0,0.1
1452011198185215535,32,1452011198182257890,robocape,0.7485745828,10.6769472492,14.0797647073,0.0,10.0,0.0,0.0,0.0,10.0,0.0,0.0,0.0,10.0,0.0033289513626,0.0114515926873,0.00386158358061,1.0,0.0,0.0,0.0,1.0,0.0,0.0,0.0,1.0,0.110170898438,0.110170898438,10.1872155762,0.1,0.0,0.0,0.0,0.1,0.0,0.0,0.0,0.1
1452011198218548952,33,1452011198215586900,robocape,0.751895207261,10.6802668957,14.062098934,0.0,10.0,0.0,0.0,0.0,10.0,0.0,0.0,0.0,10.0,0.00292947719909,0.0115847507418,0.00386158358061,1.0,0.0,0.0,0.0,1.0,0.0,0.0,0.0,1.0,0.102985839844,0.108973388672,10.1740429688,0.1,0.0,0.0,0.0,0.1,0.0,0.0,0.0,0.1
1452011198252313702,34,1452011198248583078,robocape,0.75521370524,10.6833343518,14.0444725346,0.0,10.0,0.0,0.0,0.0,10.0,0.0,0.0,0.0,10.0,0.00292947719909,0.0114515926873,0.00386158358061,1.0,0.0,0.0,0.0,1.0,0.0,0.0,0.0,1.0,0.0946032714844,0.0993933105469,10.1596728516,0.1,0.0,0.0,0.0,0.1,0.0,0.0,0.0,0.1
1452011198285170410,35,1452011198282237052,robocape,0.758370885838,10.68613764,14.027394308,0.0,10.0,0.0,0.0,0.0,10.0,0.0,0.0,0.0,10.0,0.00279631914458,0.0113184346328,0.00412789968962,1.0,0.0,0.0,0.0,1.0,0.0,0.0,0.0,1.0,0.111368408203,0.105380859375,10.1417102051,0.1,0.0,0.0,0.0,0.1,0.0,0.0,0.0,0.1
1452011198318649868,36,1452011198315726995,robocape,0.761478830126,10.6886957262,14.0100996864,0.0,10.0,0.0,0.0,0.0,10.0,0.0,0.0,0.0,10.0,0.00279631914458,0.0111852765783,0.00399474163512,1.0,0.0,0.0,0.0,1.0,0.0,0.0,0.0,1.0,0.104183349609,0.0850231933594,10.1453027344,0.1,0.0,0.0,0.0,0.1,0.0,0.0,0.0,0.1
1452011198351574243,37,1452011198348526954,robocape,0.765347212695,10.6917584841,13.9928456658,0.0,10.0,0.0,0.0,0.0,10.0,0.0,0.0,0.0,10.0,0.0031957933081,0.0114515926873,0.00399474163512,1.0,0.0,0.0,0.0,1.0,0.0,0.0,0.0,1.0,0.112565917969,0.0946032714844,10.1668579102,0.1,0.0,0.0,0.0,0.1,0.0,0.0,0.0,0.1
1452011198385135243,38,1452011198382246971,robocape,0.768799618176,10.6948084277,13.9761393977,0.0,10.0,0.0,0.0,0.0,10.0,0.0,0.0,0.0,10.0,0.00292947719909,0.0114515926873,0.00426105774413,1.0,0.0,0.0,0.0,1.0,0.0,0.0,0.0,1.0,0.1149609375,0.09580078125,10.1512902832,0.1,0.0,0.0,0.0,0.1,0.0,0.0,0.0,0.1
1452011198418389868,39,1452011198415334939,robocape,0.772108043337,10.6986316791,13.9587087413,0.0,10.0,0.0,0.0,0.0,10.0,0.0,0.0,0.0,10.0,0.00292947719909,0.0118510668509,0.00386158358061,1.0,0.0,0.0,0.0,1.0,0.0,0.0,0.0,1.0,0.0981958007813,0.104183349609,10.1692529297,0.1,0.0,0.0,0.0,0.1,0.0,0.0,0.0,0.1
1452011198451824410,40,1452011198448715925,robocape,0.77520775169,10.7021952203,13.9415708546,0.0,10.0,0.0,0.0,0.0,10.0,0.0,0.0,0.0,10.0,0.00279631914458,0.0117179087963,0.00399474163512,1.0,0.0,0.0,0.0,1.0,0.0,0.0,0.0,1.0,0.106578369141,0.100590820313,10.1632653809,0.1,0.0,0.0,0.0,0.1,0.0,0.0,0.0,0.1
1452011198485069868,41,1452011198482184886,robocape,0.778417537259,10.7060280107,13.9237082531,0.0,10.0,0.0,0.0,0.0,10.0,0.0,0.0,0.0,10.0,0.00292947719909,0.0118510668509,0.00359526747161,1.0,0.0,0.0,0.0,1.0,0.0,0.0,0.0,1.0,0.101788330078,0.0993933105469,10.1596728516,0.1,0.0,0.0,0.0,0.1,0.0,0.0,0.0,0.1
1452011198525760577,42,1452011198522551059,robocape,0.781323816422,10.7093620253,13.9056295345,0.0,10.0,0.0,0.0,0.0,10.0,0.0,0.0,0.0,10.0,0.00279631914458,0.0115847507418,0.0034621094171,1.0,0.0,0.0,0.0,1.0,0.0,0.0,0.0,1.0,0.0969982910156,0.102985839844,10.1740429688,0.1,0.0,0.0,0.0,0.1,0.0,0.0,0.0,0.1
1452011198552020618,43,1452011198548909902,robocape,0.785038214044,10.7129414115,13.8878468252,0.0,10.0,0.0,0.0,0.0,10.0,0.0,0.0,0.0,10.0,0.0031957933081,0.0117179087963,0.00359526747161,1.0,0.0,0.0,0.0,1.0,0.0,0.0,0.0,1.0,0.117355957031,0.0910107421875,10.1608703613,0.1,0.0,0.0,0.0,0.1,0.0,0.0,0.0,0.1
1452011198585016035,44,1452011198582041978,robocape,0.789098788975,10.71650738,13.870613249,0.0,10.0,0.0,0.0,0.0,10.0,0.0,0.0,0.0,10.0,0.0033289513626,0.0117179087963,0.00386158358061,1.0,0.0,0.0,0.0,1.0,0.0,0.0,0.0,1.0,0.0969982910156,0.1149609375,10.1560803223,0.1,0.0,0.0,0.0,0.1,0.0,0.0,0.0,0.1
1452011198618586452,45,1452011198615464925,robocape,0.792902129588,10.7200720281,13.8534181217,0.0,10.0,0.0,0.0,0.0,10.0,0.0,0.0,0.0,10.0,0.0031957933081,0.0117179087963,0.00386158358061,1.0,0.0,0.0,0.0,1.0,0.0,0.0,0.0,1.0,0.117355957031,0.105380859375,10.1704504395,0.1,0.0,0.0,0.0,0.1,0.0,0.0,0.0,0.1
1452011198651764744,46,1452011198648672103,robocape,0.796496175496,10.723629017,13.8365159049,0.0,10.0,0.0,0.0,0.0,10.0,0.0,0.0,0.0,10.0,0.00306263525359,0.0117179087963,0.00399474163512,1.0,0.0,0.0,0.0,1.0,0.0,0.0,0.0,1.0,0.112565917969,0.0981958007813,10.177635498,0.1,0.0,0.0,0.0,0.1,0.0,0.0,0.0,0.1
1452011198685035077,47,1452011198682056903,robocape,0.80019894091,10.7272037525,13.8188875888,0.0,10.0,0.0,0.0,0.0,10.0,0.0,0.0,0.0,10.0,0.0031957933081,0.0117179087963,0.00359526747161,1.0,0.0,0.0,0.0,1.0,0.0,0.0,0.0,1.0,0.113763427734,0.105380859375,10.1608703613,0.1,0.0,0.0,0.0,0.1,0.0,0.0,0.0,0.1
1452011198718731827,48,1452011198715574026,robocape,0.803232645928,10.7310159826,13.8018081572,0.0,10.0,0.0,0.0,0.0,10.0,0.0,0.0,0.0,10.0,0.00279631914458,0.0118510668509,0.00386158358061,1.0,0.0,0.0,0.0,1.0,0.0,0.0,0.0,1.0,0.102985839844,0.122145996094,10.1644628906,0.1,0.0,0.0,0.0,0.1,0.0,0.0,0.0,0.1
1452011198752402994,49,1452011198748694896,robocape,0.806772084473,10.7343233302,13.7847653831,0.0,10.0,0.0,0.0,0.0,10.0,0.0,0.0,0.0,10.0,0.00306263525359,0.0115847507418,0.00386158358061,1.0,0.0,0.0,0.0,1.0,0.0,0.0,0.0,1.0,0.0934057617188,0.105380859375,10.1632653809,0.1,0.0,0.0,0.0,0.1,0.0,0.0,0.0,0.1
1452011198785081160,50,1452011198782166004,robocape,0.809499832576,10.7376358285,13.7675055071,0.0,10.0,0.0,0.0,0.0,10.0,0.0,0.0,0.0,10.0,0.00266316109008,0.0115847507418,0.00372842552611,1.0,0.0,0.0,0.0,1.0,0.0,0.0,0.0,1.0,0.105380859375,0.112565917969,10.1429077148,0.1,0.0,0.0,0.0,0.1,0.0,0.0,0.0,0.1
1452011198818434869,51,1452011198815335035,robocape,0.813083800573,10.7414385249,13.7507951989,0.0,10.0,0.0,0.0,0.0,10.0,0.0,0.0,0.0,10.0,0.00306263525359,0.0118510668509,0.00399474163512,1.0,0.0,0.0,0.0,1.0,0.0,0.0,0.0,1.0,0.105380859375,0.108973388672,10.1740429688,0.1,0.0,0.0,0.0,0.1,0.0,0.0,0.0,0.1
1452011198853559785,52,1452011198850069999,robocape,0.816664911096,10.7449876318,13.734121158,0.0,10.0,0.0,0.0,0.0,10.0,0.0,0.0,0.0,10.0,0.00306263525359,0.0117179087963,0.00399474163512,1.0,0.0,0.0,0.0,1.0,0.0,0.0,0.0,1.0,0.0969982910156,0.110170898438,10.1884130859,0.1,0.0,0.0,0.0,0.1,0.0,0.0,0.0,0.1
1452011198887153702,53,1452011198884088039,robocape,0.819941684127,10.7482899069,13.7172284966,0.0,10.0,0.0,0.0,0.0,10.0,0.0,0.0,0.0,10.0,0.00292947719909,0.0115847507418,0.00386158358061,1.0,0.0,0.0,0.0,1.0,0.0,0.0,0.0,1.0,0.0993933105469,0.108973388672,10.1632653809,0.1,0.0,0.0,0.0,0.1,0.0,0.0,0.0,0.1
1452011198919970535,54,1452011198916867971,robocape,0.823819477912,10.7515787697,13.7008830599,0.0,10.0,0.0,0.0,0.0,10.0,0.0,0.0,0.0,10.0,0.0031957933081,0.0115847507418,0.00412789968962,1.0,0.0,0.0,0.0,1.0,0.0,0.0,0.0,1.0,0.101788330078,0.110170898438,10.1644628906,0.1,0.0,0.0,0.0,0.1,0.0,0.0,0.0,0.1
1452011198953250785,55,1452011198949862957,robocape,0.826535612732,10.7548853303,13.6838092679,0.0,10.0,0.0,0.0,0.0,10.0,0.0,0.0,0.0,10.0,0.00266316109008,0.0115847507418,0.00372842552611,1.0,0.0,0.0,0.0,1.0,0.0,0.0,0.0,1.0,0.111368408203,0.106578369141,10.1357226563,0.1,0.0,0.0,0.0,0.1,0.0,0.0,0.0,0.1
1452011198986182785,56,1452011198983057022,robocape,0.828441799391,10.7587003301,13.6665197071,0.0,10.0,0.0,0.0,0.0,10.0,0.0,0.0,0.0,10.0,0.00226368692657,0.0118510668509,0.00359526747161,1.0,0.0,0.0,0.0,1.0,0.0,0.0,0.0,1.0,0.117355957031,0.0898132324219,10.1788330078,0.1,0.0,0.0,0.0,0.1,0.0,0.0,0.0,0.1
1452011199019771785,57,1452011199016551017,robocape,0.831411098507,10.7620042283,13.6495215162,0.0,10.0,0.0,0.0,0.0,10.0,0.0,0.0,0.0,10.0,0.00279631914458,0.0115847507418,0.00372842552611,1.0,0.0,0.0,0.0,1.0,0.0,0.0,0.0,1.0,0.104183349609,0.104183349609,10.1644628906,0.1,0.0,0.0,0.0,0.1,0.0,0.0,0.0,0.1
1452011199052251035,58,1452011199049200057,robocape,0.835188496389,10.7655528314,13.6328169027,0.0,10.0,0.0,0.0,0.0,10.0,0.0,0.0,0.0,10.0,0.0031957933081,0.0117179087963,0.00386158358061,1.0,0.0,0.0,0.0,1.0,0.0,0.0,0.0,1.0,0.100590820313,0.107775878906,10.1548828125,0.1,0.0,0.0,0.0,0.1,0.0,0.0,0.0,0.1
1452011199086198952,59,1452011199083060026,robocape,0.839518661526,10.7693454365,13.6164051879,0.0,10.0,0.0,0.0,0.0,10.0,0.0,0.0,0.0,10.0,0.0034621094171,0.0118510668509,0.00399474163512,1.0,0.0,0.0,0.0,1.0,0.0,0.0,0.0,1.0,0.106578369141,0.09580078125,10.1668579102,0.1,0.0,0.0,0.0,0.1,0.0,0.0,0.0,0.1
1452011199123991744,60,1452011199120701074,robocape,0.844050783846,10.7728909892,13.5997742276,0.0,10.0,0.0,0.0,0.0,10.0,0.0,0.0,0.0,10.0,0.00359526747161,0.0117179087963,0.00386158358061,1.0,0.0,0.0,0.0,1.0,0.0,0.0,0.0,1.0,0.102985839844,0.108973388672,10.1800305176,0.1,0.0,0.0,0.0,0.1,0.0,0.0,0.0,0.1
1452011199153037869,61,1452011199149939060,robocape,0.847404486118,10.7761698878,13.5836882613,0.0,10.0,0.0,0.0,0.0,10.0,0.0,0.0,0.0,10.0,0.00292947719909,0.0115847507418,0.00412789968962,1.0,0.0,0.0,0.0,1.0,0.0,0.0,0.0,1.0,0.105380859375,0.112565917969,10.1860180664,0.1,0.0,0.0,0.0,0.1,0.0,0.0,0.0,0.1
1452011199186399244,62,1452011199183429002,robocape,0.850914017121,10.7792091133,13.5671273516,0.0,10.0,0.0,0.0,0.0,10.0,0.0,0.0,0.0,10.0,0.00306263525359,0.0114515926873,0.00386158358061,1.0,0.0,0.0,0.0,1.0,0.0,0.0,0.0,1.0,0.0946032714844,0.110170898438,10.1800305176,0.1,0.0,0.0,0.0,0.1,0.0,0.0,0.0,0.1
1452011199218962244,63,1452011199215995073,robocape,0.853961099549,10.7822410895,13.5508577001,0.0,10.0,0.0,0.0,0.0,10.0,0.0,0.0,0.0,10.0,0.00279631914458,0.0114515926873,0.00399474163512,1.0,0.0,0.0,0.0,1.0,0.0,0.0,0.0,1.0,0.101788330078,0.0946032714844,10.177635498,0.1,0.0,0.0,0.0,0.1,0.0,0.0,0.0,0.1
1452011199252587036,64,1452011199249278068,robocape,0.8574666886,10.7855308453,13.5343703245,0.0,10.0,0.0,0.0,0.0,10.0,0.0,0.0,0.0,10.0,0.00306263525359,0.0115847507418,0.00386158358061,1.0,0.0,0.0,0.0,1.0,0.0,0.0,0.0,1.0,0.09580078125,0.101788330078,10.1584753418,0.1,0.0,0.0,0.0,0.1,0.0,0.0,0.0,0.1
1452011199285864161,65,1452011199282708883,robocape,0.860811275736,10.7885547354,13.5184279042,0.0,10.0,0.0,0.0,0.0,10.0,0.0,0.0,0.0,10.0,0.00292947719909,0.0114515926873,0.00412789968962,1.0,0.0,0.0,0.0,1.0,0.0,0.0,0.0,1.0,0.100590820313,0.0981958007813,10.1465002441,0.1,0.0,0.0,0.0,0.1,0.0,0.0,0.0,0.1
1452011199319102036,66,1452011199315907001,robocape,0.864661601422,10.7918297779,13.5025219346,0.0,10.0,0.0,0.0,0.0,10.0,0.0,0.0,0.0,10.0,0.0031957933081,0.0115847507418,0.00412789968962,1.0,0.0,0.0,0.0,1.0,0.0,0.0,0.0,1.0,0.102985839844,0.104183349609,10.1979931641,0.1,0.0,0.0,0.0,0.1,0.0,0.0,0.0,0.1
1452011199352231744,67,1452011199349222898,robocape,0.868666478325,10.7946136022,13.4861393667,0.0,10.0,0.0,0.0,0.0,10.0,0.0,0.0,0.0,10.0,0.0033289513626,0.0113184346328,0.00386158358061,1.0,0.0,0.0,0.0,1.0,0.0,0.0,0.0,1.0,0.102985839844,0.104183349609,10.1620678711,0.1,0.0,0.0,0.0,0.1,0.0,0.0,0.0,0.1
1452011199386105827,68,1452011199383023023,robocape,0.872304824376,10.7983839286,13.4705618084,0.0,10.0,0.0,0.0,0.0,10.0,0.0,0.0,0.0,10.0,0.00306263525359,0.0118510668509,0.00426105774413,1.0,0.0,0.0,0.0,1.0,0.0,0.0,0.0,1.0,0.107775878906,0.09580078125,10.136920166,0.1,0.0,0.0,0.0,0.1,0.0,0.0,0.0,0.1
1452011199419370661,69,1452011199416006088,robocape,0.875844002037,10.8016618183,13.4545064197,0.0,10.0,0.0,0.0,0.0,10.0,0.0,0.0,0.0,10.0,0.00306263525359,0.0115847507418,0.00399474163512,1.0,0.0,0.0,0.0,1.0,0.0,0.0,0.0,1.0,0.118553466797,0.102985839844,10.1512902832,0.1,0.0,0.0,0.0,0.1,0.0,0.0,0.0,0.1
1452011199453368244,70,1452011199450086116,robocape,0.879428692567,10.805183524,13.4387423339,0.0,10.0,0.0,0.0,0.0,10.0,0.0,0.0,0.0,10.0,0.00306263525359,0.0117179087963,0.00412789968962,1.0,0.0,0.0,0.0,1.0,0.0,0.0,0.0,1.0,0.107775878906,0.0981958007813,10.1476977539,0.1,0.0,0.0,0.0,0.1,0.0,0.0,0.0,0.1
1452011199487997161,71,1452011199484857082,robocape,0.882613527068,10.8092264046,13.4222501497,0.0,10.0,0.0,0.0,0.0,10.0,0.0,0.0,0.0,10.0,0.00292947719909,0.0119842249054,0.00372842552611,1.0,0.0,0.0,0.0,1.0,0.0,0.0,0.0,1.0,0.110170898438,0.100590820313,10.1632653809,0.1,0.0,0.0,0.0,0.1,0.0,0.0,0.0,0.1
1452011199520001286,72,1452011199516499996,robocape,0.885891638037,10.8127501491,13.4063014216,0.0,10.0,0.0,0.0,0.0,10.0,0.0,0.0,0.0,10.0,0.00292947719909,0.0117179087963,0.00399474163512,1.0,0.0,0.0,0.0,1.0,0.0,0.0,0.0,1.0,0.0922082519531,0.104183349609,10.1488952637,0.1,0.0,0.0,0.0,0.1,0.0,0.0,0.0,0.1
1452011199552629369,73,1452011199549500942,robocape,0.888865441061,10.816027033,13.3901313372,0.0,10.0,0.0,0.0,0.0,10.0,0.0,0.0,0.0,10.0,0.00279631914458,0.0115847507418,0.00386158358061,1.0,0.0,0.0,0.0,1.0,0.0,0.0,0.0,1.0,0.0886157226563,0.105380859375,10.1608703613,0.1,0.0,0.0,0.0,0.1,0.0,0.0,0.0,0.1
1452011199585999202,74,1452011199582937955,robocape,0.892091492203,10.8193028182,13.3739966834,0.0,10.0,0.0,0.0,0.0,10.0,0.0,0.0,0.0,10.0,0.00292947719909,0.0115847507418,0.00386158358061,1.0,0.0,0.0,0.0,1.0,0.0,0.0,0.0,1.0,0.104183349609,0.102985839844,10.1417102051,0.1,0.0,0.0,0.0,0.1,0.0,0.0,0.0,0.1
1452011199620886369,75,1452011199617314100,robocape,0.894505841856,10.8225837214,13.3576420213,0.0,10.0,0.0,0.0,0.0,10.0,0.0,0.0,0.0,10.0,0.00253000303558,0.0115847507418,0.00372842552611,1.0,0.0,0.0,0.0,1.0,0.0,0.0,0.0,1.0,0.108973388672,0.111368408203,10.1488952637,0.1,0.0,0.0,0.0,0.1,0.0,0.0,0.0,0.1
1452011199653847869,76,1452011199650473117,robocape,0.898093543996,10.8263805544,13.3408158585,0.0,10.0,0.0,0.0,0.0,10.0,0.0,0.0,0.0,10.0,0.0031957933081,0.0118510668509,0.0034621094171,1.0,0.0,0.0,0.0,1.0,0.0,0.0,0.0,1.0,0.0981958007813,0.104183349609,10.1632653809,0.1,0.0,0.0,0.0,0.1,0.0,0.0,0.0,0.1
1452011199686951786,77,1452011199683697938,robocape,0.902219935329,10.8296321463,13.3255539483,0.0,10.0,0.0,0.0,0.0,10.0,0.0,0.0,0.0,10.0,0.0033289513626,0.0115847507418,0.00426105774413,1.0,0.0,0.0,0.0,1.0,0.0,0.0,0.0,1.0,0.0934057617188,0.0946032714844,10.1500927734,0.1,0.0,0.0,0.0,0.1,0.0,0.0,0.0,0.1
1452011199720918202,78,1452011199716840982,robocape,0.905944108053,10.8323990805,13.3095579811,0.0,10.0,0.0,0.0,0.0,10.0,0.0,0.0,0.0,10.0,0.0031957933081,0.0113184346328,0.00386158358061,1.0,0.0,0.0,0.0,1.0,0.0,0.0,0.0,1.0,0.113763427734,0.101788330078,10.1381176758,0.1,0.0,0.0,0.0,0.1,0.0,0.0,0.0,0.1
1452011199753556077,79,1452011199749921083,robocape,0.908650674471,10.8359202001,13.2936005286,0.0,10.0,0.0,0.0,0.0,10.0,0.0,0.0,0.0,10.0,0.00266316109008,0.0117179087963,0.00386158358061,1.0,0.0,0.0,0.0,1.0,0.0,0.0,0.0,1.0,0.0969982910156,0.0993933105469,10.1584753418,0.1,0.0,0.0,0.0,0.1,0.0,0.0,0.0,0.1
1452011199786800411,80,1452011199783415079,robocape,0.911355153917,10.8386846663,13.2776738475,0.0,10.0,0.0,0.0,0.0,10.0,0.0,0.0,0.0,10.0,0.00266316109008,0.0113184346328,0.00386158358061,1.0,0.0,0.0,0.0,1.0,0.0,0.0,0.0,1.0,0.104183349609,0.0993933105469,10.1764379883,0.1,0.0,0.0,0.0,0.1,0.0,0.0,0.0,0.1
1452011199820120952,81,1452011199816724061,robocape,0.914614298542,10.8414423057,13.2620371447,0.0,10.0,0.0,0.0,0.0,10.0,0.0,0.0,0.0,10.0,0.00292947719909,0.0113184346328,0.00399474163512,1.0,0.0,0.0,0.0,1.0,0.0,0.0,0.0,1.0,0.118553466797,0.106578369141,10.1632653809,0.1,0.0,0.0,0.0,0.1,0.0,0.0,0.0,0.1
1452011199852520911,82,1452011199849446058,robocape,0.918427408052,10.8444446466,13.2466911924,0.0,10.0,0.0,0.0,0.0,10.0,0.0,0.0,0.0,10.0,0.0031957933081,0.0114515926873,0.00412789968962,1.0,0.0,0.0,0.0,1.0,0.0,0.0,0.0,1.0,0.101788330078,0.0898132324219,10.1692529297,0.1,0.0,0.0,0.0,0.1,0.0,0.0,0.0,0.1
1452011199885521952,83,1452011199882385969,robocape,0.921935656662,10.8477043064,13.2311250029,0.0,10.0,0.0,0.0,0.0,10.0,0.0,0.0,0.0,10.0,0.00306263525359,0.0115847507418,0.00399474163512,1.0,0.0,0.0,0.0,1.0,0.0,0.0,0.0,1.0,0.111368408203,0.0969982910156,10.1441052246,0.1,0.0,0.0,0.0,0.1,0.0,0.0,0.0,0.1
1452011199918516494,84,1452011199915512084,robocape,0.925043937186,10.8517375808,13.2148314191,0.0,10.0,0.0,0.0,0.0,10.0,0.0,0.0,0.0,10.0,0.00292947719909,0.0119842249054,0.00359526747161,1.0,0.0,0.0,0.0,1.0,0.0,0.0,0.0,1.0,0.110170898438,0.09580078125,10.1417102051,0.1,0.0,0.0,0.0,0.1,0.0,0.0,0.0,0.1
1452011199952461286,85,1452011199949430942,robocape,0.928197803395,10.8552581178,13.1988252873,0.0,10.0,0.0,0.0,0.0,10.0,0.0,0.0,0.0,10.0,0.00292947719909,0.0117179087963,0.00372842552611,1.0,0.0,0.0,0.0,1.0,0.0,0.0,0.0,1.0,0.110170898438,0.102985839844,10.1824255371,0.1,0.0,0.0,0.0,0.1,0.0,0.0,0.0,0.1
1452011199985872369,86,1452011199982543945,robocape,0.931396916835,10.8580152543,13.183104769,0.0,10.0,0.0,0.0,0.0,10.0,0.0,0.0,0.0,10.0,0.00292947719909,0.0113184346328,0.00386158358061,1.0,0.0,0.0,0.0,1.0,0.0,0.0,0.0,1.0,0.108973388672,0.0981958007813,10.1740429688,0.1,0.0,0.0,0.0,0.1,0.0,0.0,0.0,0.1
1452011200019416078,87,1452011200016185998,robocape,0.934642721731,10.8612684141,13.1676763842,0.0,10.0,0.0,0.0,0.0,10.0,0.0,0.0,0.0,10.0,0.00292947719909,0.0115847507418,0.00399474163512,1.0,0.0,0.0,0.0,1.0,0.0,0.0,0.0,1.0,0.0981958007813,0.0969982910156,10.1752404785,0.1,0.0,0.0,0.0,0.1,0.0,0.0,0.0,0.1
1452011200053231078,88,1452011200050185918,robocape,0.937838136283,10.8645269161,13.1520263374,0.0,10.0,0.0,0.0,0.0,10.0,0.0,0.0,0.0,10.0,0.00292947719909,0.0115847507418,0.00386158358061,1.0,0.0,0.0,0.0,1.0,0.0,0.0,0.0,1.0,0.104183349609,0.104183349609,10.1632653809,0.1,0.0,0.0,0.0,0.1,0.0,0.0,0.0,0.1
1452011200087197286,89,1452011200083602905,robocape,0.941792505738,10.867281113,13.1364076089,0.0,10.0,0.0,0.0,0.0,10.0,0.0,0.0,0.0,10.0,0.0033289513626,0.0113184346328,0.00386158358061,1.0,0.0,0.0,0.0,1.0,0.0,0.0,0.0,1.0,0.09580078125,0.108973388672,10.1560803223,0.1,0.0,0.0,0.0,0.1,0.0,0.0,0.0,0.1
1452011200119894744,90,1452011200116733074,robocape,0.945236068372,10.8702863509,13.1208242873,0.0,10.0,0.0,0.0,0.0,10.0,0.0,0.0,0.0,10.0,0.00306263525359,0.0114515926873,0.00386158358061,1.0,0.0,0.0,0.0,1.0,0.0,0.0,0.0,1.0,0.116158447266,0.107775878906,10.1812280273,0.1,0.0,0.0,0.0,0.1,0.0,0.0,0.0,0.1
1452011200153302994,91,1452011200150238990,robocape,0.948375341257,10.8735490251,13.1050210409,0.0,10.0,0.0,0.0,0.0,10.0,0.0,0.0,0.0,10.0,0.00292947719909,0.0115847507418,0.00372842552611,1.0,0.0,0.0,0.0,1.0,0.0,0.0,0.0,1.0,0.111368408203,0.102985839844,10.152487793,0.1,0.0,0.0,0.0,0.1,0.0,0.0,0.0,0.1
1452011200186713078,92,1452011200183496952,robocape,0.95197218694,10.876817378,13.088996952,0.0,10.0,0.0,0.0,0.0,10.0,0.0,0.0,0.0,10.0,0.0031957933081,0.0115847507418,0.00359526747161,1.0,0.0,0.0,0.0,1.0,0.0,0.0,0.0,1.0,0.119750976563,0.0969982910156,10.177635498,0.1,0.0,0.0,0.0,0.1,0.0,0.0,0.0,0.1
1452011200218833869,93,1452011200215754032,robocape,0.956170850836,10.8803224434,13.0735195325,0.0,10.0,0.0,0.0,0.0,10.0,0.0,0.0,0.0,10.0,0.0034621094171,0.0117179087963,0.00386158358061,1.0,0.0,0.0,0.0,1.0,0.0,0.0,0.0,1.0,0.116158447266,0.0910107421875,10.152487793,0.1,0.0,0.0,0.0,0.1,0.0,0.0,0.0,0.1
1452011200253142786,94,1452011200249629974,robocape,0.960824864789,10.8835810732,13.0578191321,0.0,10.0,0.0,0.0,0.0,10.0,0.0,0.0,0.0,10.0,0.00372842552611,0.0115847507418,0.00372842552611,1.0,0.0,0.0,0.0,1.0,0.0,0.0,0.0,1.0,0.108973388672,0.105380859375,10.1692529297,0.1,0.0,0.0,0.0,0.1,0.0,0.0,0.0,0.1
1452011200285887369,95,1452011200282694101,robocape,0.965015432305,10.8873344302,13.0424110065,0.0,10.0,0.0,0.0,0.0,10.0,0.0,0.0,0.0,10.0,0.0034621094171,0.0118510668509,0.00386158358061,1.0,0.0,0.0,0.0,1.0,0.0,0.0,0.0,1.0,0.117355957031,0.0969982910156,10.1704504395,0.1,0.0,0.0,0.0,0.1,0.0,0.0,0.0,0.1
1452011200318455953,96,1452011200315181970,robocape,0.967630508688,10.8910916873,13.0267804645,0.0,10.0,0.0,0.0,0.0,10.0,0.0,0.0,0.0,10.0,0.00266316109008,0.0118510668509,0.00372842552611,1.0,0.0,0.0,0.0,1.0,0.0,0.0,0.0,1.0,0.111368408203,0.107775878906,10.1465002441,0.1,0.0,0.0,0.0,0.1,0.0,0.0,0.0,0.1
1452011200351817328,97,1452011200348782062,robocape,0.970498273211,10.894846518,13.0111833533,0.0,10.0,0.0,0.0,0.0,10.0,0.0,0.0,0.0,10.0,0.00279631914458,0.0118510668509,0.00372842552611,1.0,0.0,0.0,0.0,1.0,0.0,0.0,0.0,1.0,0.110170898438,0.102985839844,10.1417102051,0.1,0.0,0.0,0.0,0.1,0.0,0.0,0.0,0.1
1452011200386121619,98,1452011200382857084,robocape,0.973364084952,10.8983472591,12.9956179744,0.0,10.0,0.0,0.0,0.0,10.0,0.0,0.0,0.0,10.0,0.00279631914458,0.0117179087963,0.00372842552611,1.0,0.0,0.0,0.0,1.0,0.0,0.0,0.0,1.0,0.09580078125,0.110170898438,10.1500927734,0.1,0.0,0.0,0.0,0.1,0.0,0.0,0.0,0.1
1452011200418852703,99,1452011200415635108,robocape,0.9768449711,10.9018671597,12.9793204686,0.0,10.0,0.0,0.0,0.0,10.0,0.0,0.0,0.0,10.0,0.0031957933081,0.0117179087963,0.0033289513626,1.0,0.0,0.0,0.0,1.0,0.0,0.0,0.0,1.0,0.110170898438,0.110170898438,10.1536853027,0.1,0.0,0.0,0.0,0.1,0.0,0.0,0.0,0.1
1452011200451930744,100,1452011200448944091,robocape,0.97996126134,10.905867349,12.9638267559,0.0,10.0,0.0,0.0,0.0,10.0,0.0,0.0,0.0,10.0,0.00292947719909,0.0119842249054,0.00372842552611,1.0,0.0,0.0,0.0,1.0,0.0,0.0,0.0,1.0,0.0969982910156,0.104183349609,10.1848205566,0.1,0.0,0.0,0.0,0.1,0.0,0.0,0.0,0.1
1452011200485887911,101,1452011200482361078,robocape,0.983678958936,10.9090959663,12.9488717771,0.0,10.0,0.0,0.0,0.0,10.0,0.0,0.0,0.0,10.0,0.0031957933081,0.0115847507418,0.00399474163512,1.0,0.0,0.0,0.0,1.0,0.0,0.0,0.0,1.0,0.108973388672,0.108973388672,10.1608703613,0.1,0.0,0.0,0.0,0.1,0.0,0.0,0.0,0.1
1452011200519973703,102,1452011200516527891,robocape,0.986631553952,10.9120711203,12.9339471561,0.0,10.0,0.0,0.0,0.0,10.0,0.0,0.0,0.0,10.0,0.00279631914458,0.0114515926873,0.00399474163512,1.0,0.0,0.0,0.0,1.0,0.0,0.0,0.0,1.0,0.0969982910156,0.108973388672,10.1644628906,0.1,0.0,0.0,0.0,0.1,0.0,0.0,0.0,0.1
1452011200553371119,103,1452011200549822092,robocape,0.989788184013,10.9153037669,12.9188010734,0.0,10.0,0.0,0.0,0.0,10.0,0.0,0.0,0.0,10.0,0.00292947719909,0.0115847507418,0.00386158358061,1.0,0.0,0.0,0.0,1.0,0.0,0.0,0.0,1.0,0.108973388672,0.102985839844,10.152487793,0.1,0.0,0.0,0.0,0.1,0.0,0.0,0.0,0.1
1452011200586213036,104,1452011200582752943,robocape,0.992434911418,10.9185346303,12.9036873223,0.0,10.0,0.0,0.0,0.0,10.0,0.0,0.0,0.0,10.0,0.00266316109008,0.0115847507418,0.00386158358061,1.0,0.0,0.0,0.0,1.0,0.0,0.0,0.0,1.0,0.108973388672,0.110170898438,10.1656604004,0.1,0.0,0.0,0.0,0.1,0.0,0.0,0.0,0.1
1452011200619276328,105,1452011200616024971,robocape,0.995842358305,10.9220156529,12.8886077488,0.0,10.0,0.0,0.0,0.0,10.0,0.0,0.0,0.0,10.0,0.00306263525359,0.0117179087963,0.00386158358061,1.0,0.0,0.0,0.0,1.0,0.0,0.0,0.0,1.0,0.0969982910156,0.1149609375,10.1680554199,0.1,0.0,0.0,0.0,0.1,0.0,0.0,0.0,0.1
1452011200653215120,106,1452011200649969100,robocape,0.999597625099,10.9252289537,12.8740693752,0.0,10.0,0.0,0.0,0.0,10.0,0.0,0.0,0.0,10.0,0.0031957933081,0.0115847507418,0.00412789968962,1.0,0.0,0.0,0.0,1.0,0.0,0.0,0.0,1.0,0.0946032714844,0.105380859375,10.1405126953,0.1,0.0,0.0,0.0,0.1,0.0,0.0,0.0,0.1
1452011200686684911,107,1452011200683351039,robocape,1.00274531463,10.9287060074,12.8590532369,0.0,10.0,0.0,0.0,0.0,10.0,0.0,0.0,0.0,10.0,0.00292947719909,0.0117179087963,0.00386158358061,1.0,0.0,0.0,0.0,1.0,0.0,0.0,0.0,1.0,0.118553466797,0.0993933105469,10.1405126953,0.1,0.0,0.0,0.0,0.1,0.0,0.0,0.0,0.1
1452011200718734703,108,1452011200715679883,robocape,1.00589048631,10.9319293225,12.844067368,0.0,10.0,0.0,0.0,0.0,10.0,0.0,0.0,0.0,10.0,0.00292947719909,0.0115847507418,0.00386158358061,1.0,0.0,0.0,0.0,1.0,0.0,0.0,0.0,1.0,0.108973388672,0.113763427734,10.1620678711,0.1,0.0,0.0,0.0,0.1,0.0,0.0,0.0,0.1
1452011200752027411,109,1452011200749032974,robocape,1.00827151221,10.9348991646,12.8291115652,0.0,10.0,0.0,0.0,0.0,10.0,0.0,0.0,0.0,10.0,0.00253000303558,0.0114515926873,0.00386158358061,1.0,0.0,0.0,0.0,1.0,0.0,0.0,0.0,1.0,0.110170898438,0.0981958007813,10.1560803223,0.1,0.0,0.0,0.0,0.1,0.0,0.0,0.0,0.1
1452011200791317828,110,1452011200787969112,robocape,1.01166760409,10.9381196632,12.8141896643,0.0,10.0,0.0,0.0,0.0,10.0,0.0,0.0,0.0,10.0,0.00306263525359,0.0115847507418,0.00386158358061,1.0,0.0,0.0,0.0,1.0,0.0,0.0,0.0,1.0,0.105380859375,0.0922082519531,10.1848205566,0.1,0.0,0.0,0.0,0.1,0.0,0.0,0.0,0.1
1452011200819990828,111,1452011200816735029,robocape,1.01582277735,10.9413387091,12.7992998557,0.0,10.0,0.0,0.0,0.0,10.0,0.0,0.0,0.0,10.0,0.0034621094171,0.0115847507418,0.00386158358061,1.0,0.0,0.0,0.0,1.0,0.0,0.0,0.0,1.0,0.0910107421875,0.0993933105469,10.157277832,0.1,0.0,0.0,0.0,0.1,0.0,0.0,0.0,0.1
1452011200853333995,112,1452011200850070953,robocape,1.01941743955,10.9443115134,12.7841847285,0.0,10.0,0.0,0.0,0.0,10.0,0.0,0.0,0.0,10.0,0.0031957933081,0.0114515926873,0.00372842552611,1.0,0.0,0.0,0.0,1.0,0.0,0.0,0.0,1.0,0.0993933105469,0.101788330078,10.1656604004,0.1,0.0,0.0,0.0,0.1,0.0,0.0,0.0,0.1
1452011200885950828,113,1452011200882792949,robocape,1.02300997966,10.9477863172,12.7691056883,0.0,10.0,0.0,0.0,0.0,10.0,0.0,0.0,0.0,10.0,0.0031957933081,0.0117179087963,0.00372842552611,1.0,0.0,0.0,0.0,1.0,0.0,0.0,0.0,1.0,0.120948486328,0.101788330078,10.1596728516,0.1,0.0,0.0,0.0,0.1,0.0,0.0,0.0,0.1
1452011200919457745,114,1452011200916393995,robocape,1.02598399027,10.9514888498,12.7548265964,0.0,10.0,0.0,0.0,0.0,10.0,0.0,0.0,0.0,10.0,0.00279631914458,0.0118510668509,0.00412789968962,1.0,0.0,0.0,0.0,1.0,0.0,0.0,0.0,1.0,0.101788330078,0.0993933105469,10.1656604004,0.1,0.0,0.0,0.0,0.1,0.0,0.0,0.0,0.1
1452011200953159661,115,1452011200949966907,robocape,1.0293654912,10.9544482638,12.7400614142,0.0,10.0,0.0,0.0,0.0,10.0,0.0,0.0,0.0,10.0,0.00306263525359,0.0114515926873,0.00386158358061,1.0,0.0,0.0,0.0,1.0,0.0,0.0,0.0,1.0,0.108973388672,0.102985839844,10.1476977539,0.1,0.0,0.0,0.0,0.1,0.0,0.0,0.0,0.1
1452011200985766870,116,1452011200982515096,robocape,1.03295048,10.9579167912,12.7250762336,0.0,10.0,0.0,0.0,0.0,10.0,0.0,0.0,0.0,10.0,0.0031957933081,0.0117179087963,0.00372842552611,1.0,0.0,0.0,0.0,1.0,0.0,0.0,0.0,1.0,0.104183349609,0.0981958007813,10.1357226563,0.1,0.0,0.0,0.0,0.1,0.0,0.0,0.0,0.1
1452011201020869495,117,1452011201017543077,robocape,1.0358191363,10.9611241853,12.7103762608,0.0,10.0,0.0,0.0,0.0,10.0,0.0,0.0,0.0,10.0,0.00279631914458,0.0115847507418,0.00386158358061,1.0,0.0,0.0,0.0,1.0,0.0,0.0,0.0,1.0,0.101788330078,0.101788330078,10.1476977539,0.1,0.0,0.0,0.0,0.1,0.0,0.0,0.0,0.1
1452011201053054995,118,1452011201050005912,robocape,1.03914521878,10.9643371229,12.6954521611,0.0,10.0,0.0,0.0,0.0,10.0,0.0,0.0,0.0,10.0,0.00306263525359,0.0115847507418,0.00372842552611,1.0,0.0,0.0,0.0,1.0,0.0,0.0,0.0,1.0,0.101788330078,0.105380859375,10.1632653809,0.1,0.0,0.0,0.0,0.1,0.0,0.0,0.0,0.1
1452011201087399911,119,1452011201083870887,robocape,1.04277136337,10.9675412129,12.6808152794,0.0,10.0,0.0,0.0,0.0,10.0,0.0,0.0,0.0,10.0,0.0031957933081,0.0115847507418,0.00386158358061,1.0,0.0,0.0,0.0,1.0,0.0,0.0,0.0,1.0,0.101788330078,0.102985839844,10.1680554199,0.1,0.0,0.0,0.0,0.1,0.0,0.0,0.0,0.1
1452011201120174245,120,1452011201116996049,robocape,1.0462873143,10.971224865,12.6669797556,0.0,10.0,0.0,0.0,0.0,10.0,0.0,0.0,0.0,10.0,0.00306263525359,0.0118510668509,0.00426105774413,1.0,0.0,0.0,0.0,1.0,0.0,0.0,0.0,1.0,0.106578369141,0.107775878906,10.1548828125,0.1,0.0,0.0,0.0,0.1,0.0,0.0,0.0,0.1
1452011201153047828,121,1452011201149996042,robocape,1.04990699051,10.9741726211,12.6524012701,0.0,10.0,0.0,0.0,0.0,10.0,0.0,0.0,0.0,10.0,0.0031957933081,0.0114515926873,0.00386158358061,1.0,0.0,0.0,0.0,1.0,0.0,0.0,0.0,1.0,0.101788330078,0.102985839844,10.1596728516,0.1,0.0,0.0,0.0,0.1,0.0,0.0,0.0,0.1
1452011201187220203,122,1452011201184108972,robocape,1.0527628032,10.9776219679,12.6378577319,0.0,10.0,0.0,0.0,0.0,10.0,0.0,0.0,0.0,10.0,0.00279631914458,0.0117179087963,0.00386158358061,1.0,0.0,0.0,0.0,1.0,0.0,0.0,0.0,1.0,0.0981958007813,0.0993933105469,10.1740429688,0.1,0.0,0.0,0.0,0.1,0.0,0.0,0.0,0.1
1452011201219733578,123,1452011201216660022,robocape,1.0571405441,10.981320883,12.6233471678,0.0,10.0,0.0,0.0,0.0,10.0,0.0,0.0,0.0,10.0,0.00359526747161,0.0118510668509,0.00386158358061,1.0,0.0,0.0,0.0,1.0,0.0,0.0,0.0,1.0,0.0934057617188,0.112565917969,10.1632653809,0.1,0.0,0.0,0.0,0.1,0.0,0.0,0.0,0.1
1452011201252838078,124,1452011201249849081,robocape,1.0615634227,10.9855127753,12.6091269857,0.0,10.0,0.0,0.0,0.0,10.0,0.0,0.0,0.0,10.0,0.00359526747161,0.0121173829599,0.00399474163512,1.0,0.0,0.0,0.0,1.0,0.0,0.0,0.0,1.0,0.0993933105469,0.100590820313,10.1668579102,0.1,0.0,0.0,0.0,0.1,0.0,0.0,0.0,0.1
1452011201286514120,125,1452011201283282995,robocape,1.06603010432,10.9894419071,12.5951902794,0.0,10.0,0.0,0.0,0.0,10.0,0.0,0.0,0.0,10.0,0.00359526747161,0.0119842249054,0.00412789968962,1.0,0.0,0.0,0.0,1.0,0.0,0.0,0.0,1.0,0.107775878906,0.0981958007813,10.1500927734,0.1,0.0,0.0,0.0,0.1,0.0,0.0,0.0,0.1
1452011201319723578,126,1452011201316437005,robocape,1.06932958978,10.9928861729,12.5805122691,0.0,10.0,0.0,0.0,0.0,10.0,0.0,0.0,0.0,10.0,0.00306263525359,0.0117179087963,0.00372842552611,1.0,0.0,0.0,0.0,1.0,0.0,0.0,0.0,1.0,0.104183349609,0.100590820313,10.1441052246,0.1,0.0,0.0,0.0,0.1,0.0,0.0,0.0,0.1
1452011201352881120,127,1452011201349771976,robocape,1.07231348082,10.9960471822,12.5668850822,0.0,10.0,0.0,0.0,0.0,10.0,0.0,0.0,0.0,10.0,0.00279631914458,0.0115847507418,0.00426105774413,1.0,0.0,0.0,0.0,1.0,0.0,0.0,0.0,1.0,0.108973388672,0.0922082519531,10.1441052246,0.1,0.0,0.0,0.0,0.1,0.0,0.0,0.0,0.1
1452011201386376578,128,1452011201383197069,robocape,1.07514933154,10.9994796183,12.5525222232,0.0,10.0,0.0,0.0,0.0,10.0,0.0,0.0,0.0,10.0,0.00279631914458,0.0117179087963,0.00386158358061,1.0,0.0,0.0,0.0,1.0,0.0,0.0,0.0,1.0,0.110170898438,0.102985839844,10.1812280273,0.1,0.0,0.0,0.0,0.1,0.0,0.0,0.0,0.1
1452011201419858620,129,1452011201416569948,robocape,1.07833449135,11.0026434741,12.5386985095,0.0,10.0,0.0,0.0,0.0,10.0,0.0,0.0,0.0,10.0,0.00292947719909,0.0115847507418,0.00412789968962,1.0,0.0,0.0,0.0,1.0,0.0,0.0,0.0,1.0,0.0993933105469,0.111368408203,10.1692529297,0.1,0.0,0.0,0.0,0.1,0.0,0.0,0.0,0.1
1452011201452892537,130,1452011201449836015,robocape,1.08126376367,11.0060567495,12.5249060873,0.0,10.0,0.0,0.0,0.0,10.0,0.0,0.0,0.0,10.0,0.00279631914458,0.0117179087963,0.00412789968962,1.0,0.0,0.0,0.0,1.0,0.0,0.0,0.0,1.0,0.112565917969,0.0969982910156,10.1584753418,0.1,0.0,0.0,0.0,0.1,0.0,0.0,0.0,0.1
1452011201486334995,131,1452011201483077049,robocape,1.08480457031,11.0084836339,12.5103674851,0.0,10.0,0.0,0.0,0.0,10.0,0.0,0.0,0.0,10.0,0.0031957933081,0.0111852765783,0.00372842552611,1.0,0.0,0.0,0.0,1.0,0.0,0.0,0.0,1.0,0.0993933105469,0.105380859375,10.157277832,0.1,0.0,0.0,0.0,0.1,0.0,0.0,0.0,0.1
1452011201518546203,132,1452011201515552997,robocape,1.08778762723,11.011923589,12.4956129498,0.0,10.0,0.0,0.0,0.0,10.0,0.0,0.0,0.0,10.0,0.00292947719909,0.0117179087963,0.00359526747161,1.0,0.0,0.0,0.0,1.0,0.0,0.0,0.0,1.0,0.105380859375,0.108973388672,10.1476977539,0.1,0.0,0.0,0.0,0.1,0.0,0.0,0.0,0.1
1452011201551474537,133,1452011201548610925,robocape,1.09066100518,11.0150874802,12.4816538398,0.0,10.0,0.0,0.0,0.0,10.0,0.0,0.0,0.0,10.0,0.00279631914458,0.0115847507418,0.00399474163512,1.0,0.0,0.0,0.0,1.0,0.0,0.0,0.0,1.0,0.122145996094,0.110170898438,10.1800305176,0.1,0.0,0.0,0.0,0.1,0.0,0.0,0.0,0.1
1452011201591519703,134,1452011201588134050,robocape,1.09449959997,11.0185084867,12.467470847,0.0,10.0,0.0,0.0,0.0,10.0,0.0,0.0,0.0,10.0,0.0033289513626,0.0117179087963,0.00386158358061,1.0,0.0,0.0,0.0,1.0,0.0,0.0,0.0,1.0,0.108973388672,0.0922082519531,10.152487793,0.1,0.0,0.0,0.0,0.1,0.0,0.0,0.0,0.1
1452011201625446203,135,1452011201622323989,robocape,1.09863748822,11.0219196918,12.4535733877,0.0,10.0,0.0,0.0,0.0,10.0,0.0,0.0,0.0,10.0,0.0034621094171,0.0117179087963,0.00399474163512,1.0,0.0,0.0,0.0,1.0,0.0,0.0,0.0,1.0,0.118553466797,0.105380859375,10.1393151855,0.1,0.0,0.0,0.0,0.1,0.0,0.0,0.0,0.1
1452011201657102620,136,1452011201653284072,robocape,1.10241967734,11.0253432103,12.4391940766,0.0,10.0,0.0,0.0,0.0,10.0,0.0,0.0,0.0,10.0,0.0033289513626,0.0117179087963,0.00372842552611,1.0,0.0,0.0,0.0,1.0,0.0,0.0,0.0,1.0,0.111368408203,0.110170898438,10.1644628906,0.1,0.0,0.0,0.0,0.1,0.0,0.0,0.0,0.1
1452011201686876578,137,1452011201683667898,robocape,1.10609095701,11.02849043,12.4256095518,0.0,10.0,0.0,0.0,0.0,10.0,0.0,0.0,0.0,10.0,0.0031957933081,0.0115847507418,0.00412789968962,1.0,0.0,0.0,0.0,1.0,0.0,0.0,0.0,1.0,0.104183349609,0.106578369141,10.1704504395,0.1,0.0,0.0,0.0,0.1,0.0,0.0,0.0,0.1
1452011201723113995,138,1452011201718528985,robocape,1.10940723397,11.0316504191,12.4115424348,0.0,10.0,0.0,0.0,0.0,10.0,0.0,0.0,0.0,10.0,0.00306263525359,0.0115847507418,0.00386158358061,1.0,0.0,0.0,0.0,1.0,0.0,0.0,0.0,1.0,0.104183349609,0.09580078125,10.1764379883,0.1,0.0,0.0,0.0,0.1,0.0,0.0,0.0,0.1
1452011201756657620,139,1452011201753283977,robocape,1.1127209258,11.0348084249,12.397504896,0.0,10.0,0.0,0.0,0.0,10.0,0.0,0.0,0.0,10.0,0.00306263525359,0.0115847507418,0.00386158358061,1.0,0.0,0.0,0.0,1.0,0.0,0.0,0.0,1.0,0.105380859375,0.100590820313,10.1453027344,0.1,0.0,0.0,0.0,0.1,0.0,0.0,0.0,0.1
1452011201790652328,140,1452011201787277936,robocape,1.11603203168,11.037964437,12.3834968561,0.0,10.0,0.0,0.0,0.0,10.0,0.0,0.0,0.0,10.0,0.00306263525359,0.0115847507418,0.00386158358061,1.0,0.0,0.0,0.0,1.0,0.0,0.0,0.0,1.0,0.105380859375,0.108973388672,10.1465002441,0.1,0.0,0.0,0.0,0.1,0.0,0.0,0.0,0.1
1452011201828785078,141,1452011201820986986,robocape,1.12005409322,11.0416291077,12.3692673543,0.0,10.0,0.0,0.0,0.0,10.0,0.0,0.0,0.0,10.0,0.0034621094171,0.0118510668509,0.00372842552611,1.0,0.0,0.0,0.0,1.0,0.0,0.0,0.0,1.0,0.105380859375,0.0874182128906,10.152487793,0.1,0.0,0.0,0.0,0.1,0.0,0.0,0.0,0.1
1452011201853271078,142,1452011201850198030,robocape,1.12310625424,11.0455346456,12.3553255968,0.0,10.0,0.0,0.0,0.0,10.0,0.0,0.0,0.0,10.0,0.00292947719909,0.0119842249054,0.00386158358061,1.0,0.0,0.0,0.0,1.0,0.0,0.0,0.0,1.0,0.0969982910156,0.0981958007813,10.157277832,0.1,0.0,0.0,0.0,0.1,0.0,0.0,0.0,0.1
1452011201895953287,143,1452011201892640113,robocape,1.12620296954,11.0481715656,12.3416565746,0.0,10.0,0.0,0.0,0.0,10.0,0.0,0.0,0.0,10.0,0.00292947719909,0.0113184346328,0.00399474163512,1.0,0.0,0.0,0.0,1.0,0.0,0.0,0.0,1.0,0.117355957031,0.107775878906,10.1680554199,0.1,0.0,0.0,0.0,0.1,0.0,0.0,0.0,0.1
1452011201921579995,144,1452011201918521881,robocape,1.12879013331,11.0510588117,12.3280186819,0.0,10.0,0.0,0.0,0.0,10.0,0.0,0.0,0.0,10.0,0.00266316109008,0.0114515926873,0.00399474163512,1.0,0.0,0.0,0.0,1.0,0.0,0.0,0.0,1.0,0.09580078125,0.108973388672,10.152487793,0.1,0.0,0.0,0.0,0.1,0.0,0.0,0.0,0.1
1452011201965163120,145,1452011201953736066,robocape,1.13107474679,11.0549579348,12.3141632021,0.0,10.0,0.0,0.0,0.0,10.0,0.0,0.0,0.0,10.0,0.00253000303558,0.0119842249054,0.00386158358061,1.0,0.0,0.0,0.0,1.0,0.0,0.0,0.0,1.0,0.105380859375,0.1149609375,10.1788330078,0.1,0.0,0.0,0.0,0.1,0.0,0.0,0.0,0.1
1452011201989233287,146,1452011201986139059,robocape,1.13411912728,11.0583505594,12.300331498,0.0,10.0,0.0,0.0,0.0,10.0,0.0,0.0,0.0,10.0,0.00292947719909,0.0117179087963,0.00386158358061,1.0,0.0,0.0,0.0,1.0,0.0,0.0,0.0,1.0,0.102985839844,0.0981958007813,10.1632653809,0.1,0.0,0.0,0.0,0.1,0.0,0.0,0.0,0.1
1452011202025011828,147,1452011202021621942,robocape,1.13766817368,11.0612376947,12.2865237903,0.0,10.0,0.0,0.0,0.0,10.0,0.0,0.0,0.0,10.0,0.0031957933081,0.0114515926873,0.00386158358061,1.0,0.0,0.0,0.0,1.0,0.0,0.0,0.0,1.0,0.105380859375,0.0981958007813,10.1752404785,0.1,0.0,0.0,0.0,0.1,0.0,0.0,0.0,0.1
1452011202055633495,148,1452011202051167964,robocape,1.14096215151,11.0651292285,12.272754877,0.0,10.0,0.0,0.0,0.0,10.0,0.0,0.0,0.0,10.0,0.00306263525359,0.0119842249054,0.00386158358061,1.0,0.0,0.0,0.0,1.0,0.0,0.0,0.0,1.0,0.101788330078,0.101788330078,10.1620678711,0.1,0.0,0.0,0.0,0.1,0.0,0.0,0.0,0.1
1452011202091448370,149,1452011202088279008,robocape,1.14440777053,11.0682778984,12.2584956954,0.0,10.0,0.0,0.0,0.0,10.0,0.0,0.0,0.0,10.0,0.0031957933081,0.0115847507418,0.00359526747161,1.0,0.0,0.0,0.0,1.0,0.0,0.0,0.0,1.0,0.117355957031,0.101788330078,10.1584753418,0.1,0.0,0.0,0.0,0.1,0.0,0.0,0.0,0.1
1452011202121400537,150,1452011202118330001,robocape,1.0765606598,11.0600503522,12.2802214098,0.0,10.0,0.0,0.0,0.0,10.0,0.0,0.0,0.0,10.0,-0.0378168874791,0.00612527050718,0.0223705531567,1.0,0.0,0.0,0.0,1.0,0.0,0.0,0.0,1.0,-0.138911132813,1.18194213867,9.93214599609,0.1,0.0,0.0,0.0,0.1,0.0,0.0,0.0,0.1
1452011202162414079,151,1452011202152128934,robocape,0.646021151247,11.0155939189,12.6892518443,0.0,10.0,0.0,0.0,0.0,10.0,0.0,0.0,0.0,10.0,-0.267115057335,-0.00798948327024,0.224238163785,1.0,0.0,0.0,0.0,1.0,0.0,0.0,0.0,1.0,0.0562829589844,-0.195194091797,10.0902172852,0.1,0.0,0.0,0.0,0.1,0.0,0.0,0.0,0.1
1452011202203299912,152,1452011202192555904,robocape,0.630034730336,11.0592786698,12.8676366447,0.0,10.0,0.0,0.0,0.0,10.0,0.0,0.0,0.0,10.0,-0.0268979270098,0.0352868844435,0.104529072786,1.0,0.0,0.0,0.0,1.0,0.0,0.0,0.0,1.0,0.546064453125,-1.73758666992,10.5285058594,0.1,0.0,0.0,0.0,0.1,0.0,0.0,0.0,0.1
1452011202240228287,153,1452011202230333089,robocape,0.857355542718,11.1365215739,12.9927596351,0.0,10.0,0.0,0.0,0.0,10.0,0.0,0.0,0.0,10.0,0.105993811385,0.0525974315291,0.0768321974488,1.0,0.0,0.0,0.0,1.0,0.0,0.0,0.0,1.0,0.427510986328,-0.754431152344,10.4159399414,0.1,0.0,0.0,0.0,0.1,0.0,0.0,0.0,0.1
1452011202268484662,154,1452011202265367984,robocape,1.22658156222,11.256852656,13.0836264929,0.0,10.0,0.0,0.0,0.0,10.0,0.0,0.0,0.0,10.0,0.184024431324,0.0753674588492,0.0587227020362,1.0,0.0,0.0,0.0,1.0,0.0,0.0,0.0,1.0,0.447868652344,-1.34719848633,10.4291125488,0.1,0.0,0.0,0.0,0.1,0.0,0.0,0.0,0.1
1452011202300134287,155,1452011202297070026,robocape,1.796585104,11.3997119824,13.1109160371,0.0,10.0,0.0,0.0,0.0,10.0,0.0,0.0,0.0,10.0,0.296143513217,0.0866858934821,0.0250337142467,1.0,0.0,0.0,0.0,1.0,0.0,0.0,0.0,1.0,-0.292192382813,0.519719238281,9.9980090332,0.1,0.0,0.0,0.0,0.1,0.0,0.0,0.0,0.1
1452011202343447162,156,1452011202340277910,robocape,2.24661224932,11.4459101835,13.1537469476,0.0,10.0,0.0,0.0,0.0,10.0,0.0,0.0,0.0,10.0,0.232094489,0.0363521488796,0.033822145844,1.0,0.0,0.0,0.0,1.0,0.0,0.0,0.0,1.0,-0.1916015625,1.09572143555,9.98483642578,0.1,0.0,0.0,0.0,0.1,0.0,0.0,0.0,0.1
1452011202372876120,157,1452011202369551897,robocape,2.61203738059,11.5421084445,13.1812027362,0.0,10.0,0.0,0.0,0.0,10.0,0.0,0.0,0.0,10.0,0.189750227668,0.0627174436714,0.0249005561922,1.0,0.0,0.0,0.0,1.0,0.0,0.0,0.0,1.0,0.0502954101563,1.70166137695,9.81718505859,0.1,0.0,0.0,0.0,0.1,0.0,0.0,0.0,0.1
1452011202395029787,158,1452011202391429901,robocape,2.86304345514,11.5988801686,13.1698128653,0.0,10.0,0.0,0.0,0.0,10.0,0.0,0.0,0.0,10.0,0.134090160885,0.0408795227327,0.00519316412565,1.0,0.0,0.0,0.0,1.0,0.0,0.0,0.0,1.0,-0.583187255859,2.15911010742,9.60163330078,0.1,0.0,0.0,0.0,0.1,0.0,0.0,0.0,0.1
1452011202426370287,159,1452011202420680046,robocape,2.97147734008,11.5910417478,13.12879013,0.0,10.0,0.0,0.0,0.0,10.0,0.0,0.0,0.0,10.0,0.0625842856169,0.00572579634367,-0.00905474770627,1.0,0.0,0.0,0.0,1.0,0.0,0.0,0.0,1.0,-0.0634680175781,2.50878295898,9.43637695313,0.1,0.0,0.0,0.0,0.1,0.0,0.0,0.0,0.1
1452011202456312329,160,1452011202453171014,robocape,2.73472896302,11.542545796,13.0642981127,0.0,10.0,0.0,0.0,0.0,10.0,0.0,0.0,0.0,10.0,-0.115980665473,-0.0167779148675,-0.0207726565026,1.0,0.0,0.0,0.0,1.0,0.0,0.0,0.0,1.0,-0.289797363281,2.00223632812,9.70701416016,0.1,0.0,0.0,0.0,0.1,0.0,0.0,0.0,0.1
1452011202490862662,161,1452011202487873077,robocape,2.23931608733,11.4369597186,13.0665780668,0.0,10.0,0.0,0.0,0.0,10.0,0.0,0.0,0.0,10.0,-0.258859257956,-0.0451405804768,0.0145142279409,1.0,0.0,0.0,0.0,1.0,0.0,0.0,0.0,1.0,0.0395178222656,0.258662109375,9.98004638672,0.1,0.0,0.0,0.0,0.1,0.0,0.0,0.0,0.1
1452011202525629537,162,1452011202522258996,robocape,1.88603376563,11.350004493,13.0093207741,0.0,10.0,0.0,0.0,0.0,10.0,0.0,0.0,0.0,10.0,-0.17856495109,-0.0367516230431,-0.016911072922,1.0,0.0,0.0,0.0,1.0,0.0,0.0,0.0,1.0,0.251477050781,-0.167651367188,10.2183508301,0.1,0.0,0.0,0.0,0.1,0.0,0.0,0.0,0.1
1452011202554873620,163,1452011202551629066,robocape,1.62938793345,11.2883593108,12.9808587761,0.0,10.0,0.0,0.0,0.0,10.0,0.0,0.0,0.0,10.0,-0.131160683686,-0.0226368692657,-0.00239684498107,1.0,0.0,0.0,0.0,1.0,0.0,0.0,0.0,1.0,0.356857910156,-0.450263671875,10.3596569824,0.1,0.0,0.0,0.0,0.1,0.0,0.0,0.0,0.1
1452011202590510662,164,1452011202587276935,robocape,1.50081792987,11.2548947451,12.9455987406,0.0,10.0,0.0,0.0,0.0,10.0,0.0,0.0,0.0,10.0,-0.0635163919984,-0.00785632521573,-0.00625842856169,1.0,0.0,0.0,0.0,1.0,0.0,0.0,0.0,1.0,-0.122145996094,-0.714913330078,10.1644628906,0.1,0.0,0.0,0.0,0.1,0.0,0.0,0.0,0.1
1452011202624832079,165,1452011202621545076,robocape,1.52672533287,11.2661442329,12.9333325673,0.0,10.0,0.0,0.0,0.0,10.0,0.0,0.0,0.0,10.0,0.0150468601589,0.0162452826495,0.00532632218016,1.0,0.0,0.0,0.0,1.0,0.0,0.0,0.0,1.0,0.387993164063,-0.961600341797,10.3321142578,0.1,0.0,0.0,0.0,0.1,0.0,0.0,0.0,0.1
1452011202655108537,166,1452011202651669025,robocape,1.6781316856,11.3088285781,12.9400305504,0.0,10.0,0.0,0.0,0.0,10.0,0.0,0.0,0.0,10.0,0.0789627263208,0.033289513626,0.0149137021044,1.0,0.0,0.0,0.0,1.0,0.0,0.0,0.0,1.0,0.342487792969,-0.548459472656,10.3476818848,0.1,0.0,0.0,0.0,0.1,0.0,0.0,0.0,0.1
1452011202693982037,167,1452011202690840959,robocape,1.87481895824,11.3627757299,12.9498578281,0.0,10.0,0.0,0.0,0.0,10.0,0.0,0.0,0.0,10.0,0.102531701968,0.0394147841332,0.016378440704,1.0,0.0,0.0,0.0,1.0,0.0,0.0,0.0,1.0,-0.116158447266,0.102985839844,10.136920166,0.1,0.0,0.0,0.0,0.1,0.0,0.0,0.0,0.1
1452011202731290620,168,1452011202727732896,robocape,2.06303548894,11.4070075869,12.9583195068,0.0,10.0,0.0,0.0,0.0,10.0,0.0,0.0,0.0,10.0,0.0984038022784,0.034354778062,0.0157126504315,1.0,0.0,0.0,0.0,1.0,0.0,0.0,0.0,1.0,0.183218994141,0.292192382813,10.1261425781,0.1,0.0,0.0,0.0,0.1,0.0,0.0,0.0,0.1
1452011202759766079,169,1452011202756105899,robocape,2.2681582365,11.4634901724,12.9692640845,0.0,10.0,0.0,0.0,0.0,10.0,0.0,0.0,0.0,10.0,0.107192233876,0.0410126807872,0.0167779148675,1.0,0.0,0.0,0.0,1.0,0.0,0.0,0.0,1.0,0.332907714844,0.586779785156,9.99920654297,0.1,0.0,0.0,0.0,0.1,0.0,0.0,0.0,0.1
1452011202790843954,170,1452011202787574052,robocape,2.40564126429,11.4985083812,12.9684821275,0.0,10.0,0.0,0.0,0.0,10.0,0.0,0.0,0.0,10.0,0.0731037719227,0.0294279300454,0.0109189604693,1.0,0.0,0.0,0.0,1.0,0.0,0.0,0.0,1.0,-0.279019775391,1.05021606445,9.886640625,0.1,0.0,0.0,0.0,0.1,0.0,0.0,0.0,0.1
1452011202824548162,171,1452011202821572065,robocape,2.42402398022,11.5057248459,12.9557267315,0.0,10.0,0.0,0.0,0.0,10.0,0.0,0.0,0.0,10.0,0.0119842249054,0.0143810698864,0.00506000607115,1.0,0.0,0.0,0.0,1.0,0.0,0.0,0.0,1.0,0.148491210938,1.08254882812,9.91897338867,0.1,0.0,0.0,0.0,0.1,0.0,0.0,0.0,0.1
1452011202855685121,172,1452011202852431058,robocape,2.34484000715,11.4871039709,12.92847608,0.0,10.0,0.0,0.0,0.0,10.0,0.0,0.0,0.0,10.0,-0.0376837294246,0.000266316109008,-0.00213052887206,1.0,0.0,0.0,0.0,1.0,0.0,0.0,0.0,1.0,-0.152083740234,0.995130615234,9.9285534668,0.1,0.0,0.0,0.0,0.1,0.0,0.0,0.0,0.1
1452011202890276287,173,1452011202886854887,robocape,2.21256344479,11.4579686381,12.8964520212,0.0,10.0,0.0,0.0,0.0,10.0,0.0,0.0,0.0,10.0,-0.0651142886524,-0.00545948023466,-0.00452737385313,1.0,0.0,0.0,0.0,1.0,0.0,0.0,0.0,1.0,0.137713623047,0.484991455078,10.0303417969,0.1,0.0,0.0,0.0,0.1,0.0,0.0,0.0,0.1
1452011202923103579,174,1452011202920032024,robocape,2.07509535261,11.4258571296,12.8639597958,0.0,10.0,0.0,0.0,0.0,10.0,0.0,0.0,0.0,10.0,-0.067910607797,-0.00705737688871,-0.00479368996214,1.0,0.0,0.0,0.0,1.0,0.0,0.0,0.0,1.0,0.113763427734,0.162861328125,10.1069824219,0.1,0.0,0.0,0.0,0.1,0.0,0.0,0.0,0.1
1452011202956351787,175,1452011202953105926,robocape,1.97752002678,11.4041977956,12.8394887308,0.0,10.0,0.0,0.0,0.0,10.0,0.0,0.0,0.0,10.0,-0.0479368996214,-0.00133158054504,-0.000798948327024,1.0,0.0,0.0,0.0,1.0,0.0,0.0,0.0,1.0,0.217946777344,-0.122145996094,10.1991906738,0.1,0.0,0.0,0.0,0.1,0.0,0.0,0.0,0.1
1452011202989478162,176,1452011202986408948,robocape,1.94298780926,11.4013286407,12.8223923635,0.0,10.0,0.0,0.0,0.0,10.0,0.0,0.0,0.0,10.0,-0.0157126504315,0.00878843159726,0.00279631914458,1.0,0.0,0.0,0.0,1.0,0.0,0.0,0.0,1.0,0.180823974609,-0.174836425781,10.2183508301,0.1,0.0,0.0,0.0,0.1,0.0,0.0,0.0,0.1
1452011203021627412,177,1452011203018434047,robocape,1.96049567045,11.4108052455,12.8101911613,0.0,10.0,0.0,0.0,0.0,10.0,0.0,0.0,0.0,10.0,0.0110521185238,0.0154463343225,0.00519316412565,1.0,0.0,0.0,0.0,1.0,0.0,0.0,0.0,1.0,0.05748046875,-0.0550854492188,10.1716479492,0.1,0.0,0.0,0.0,0.1,0.0,0.0,0.0,0.1
1452011203054871621,178,1452011203051597118,robocape,2.02278261336,11.4290939792,12.8025563496,0.0,10.0,0.0,0.0,0.0,10.0,0.0,0.0,0.0,10.0,0.034088461953,0.0202400242846,0.00745685105222,1.0,0.0,0.0,0.0,1.0,0.0,0.0,0.0,1.0,0.0969982910156,0.0143701171875,10.1788330078,0.1,0.0,0.0,0.0,0.1,0.0,0.0,0.0,0.1
1452011203091772287,179,1452011203088423013,robocape,2.12414451434,11.4573667558,12.800566709,0.0,10.0,0.0,0.0,0.0,10.0,0.0,0.0,0.0,10.0,0.0540621701286,0.0256995045193,0.0102531701968,1.0,0.0,0.0,0.0,1.0,0.0,0.0,0.0,1.0,0.261057128906,0.257464599609,10.0854272461,0.1,0.0,0.0,0.0,0.1,0.0,0.0,0.0,0.1
1452011203125759204,180,1452011203122591972,robocape,2.21308179449,11.4804202023,12.7956757772,0.0,10.0,0.0,0.0,0.0,10.0,0.0,0.0,0.0,10.0,0.0479368996214,0.0229031853747,0.00878843159726,1.0,0.0,0.0,0.0,1.0,0.0,0.0,0.0,1.0,0.00119750976563,0.531694335938,10.0267492676,0.1,0.0,0.0,0.0,0.1,0.0,0.0,0.0,0.1
1452011203158643954,181,1452011203154272079,robocape,2.25842456151,11.4940826067,12.7867508673,0.0,10.0,0.0,0.0,0.0,10.0,0.0,0.0,0.0,10.0,0.0255663464648,0.0178431793035,0.0067910607797,1.0,0.0,0.0,0.0,1.0,0.0,0.0,0.0,1.0,0.102985839844,0.656235351563,10.0183666992,0.1,0.0,0.0,0.0,0.1,0.0,0.0,0.0,0.1
1452011203191717454,182,1452011203188267946,robocape,2.26174267138,11.492991587,12.7710619314,0.0,10.0,0.0,0.0,0.0,10.0,0.0,0.0,0.0,10.0,0.00426105774413,0.00985369603329,0.0034621094171,1.0,0.0,0.0,0.0,1.0,0.0,0.0,0.0,1.0,-0.00359252929688,0.707728271484,9.98723144531,0.1,0.0,0.0,0.0,0.1,0.0,0.0,0.0,0.1
1452011203229082412,183,1452011203226109981,robocape,2.21202398591,11.4832029511,12.7490644936,0.0,10.0,0.0,0.0,0.0,10.0,0.0,0.0,0.0,10.0,-0.0229031853747,0.00506000607115,0.000266316109008,1.0,0.0,0.0,0.0,1.0,0.0,0.0,0.0,1.0,0.0311352539063,0.523311767578,10.0207617188,0.1,0.0,0.0,0.0,0.1,0.0,0.0,0.0,0.1
1452011203253469204,184,1452011203250431060,robocape,2.14324055287,11.4685050173,12.7252100017,0.0,10.0,0.0,0.0,0.0,10.0,0.0,0.0,0.0,10.0,-0.032756881408,0.00239684498107,-0.00066579027252,1.0,0.0,0.0,0.0,1.0,0.0,0.0,0.0,1.0,0.0814306640625,0.385598144531,10.096204834,0.1,0.0,0.0,0.0,0.1,0.0,0.0,0.0,0.1
1452011203288087996,185,1452011203284714937,robocape,2.08668167293,11.4569909587,12.703538231,0.0,10.0,0.0,0.0,0.0,10.0,0.0,0.0,0.0,10.0,-0.0266316109008,0.00412789968962,0.000399474163512,1.0,0.0,0.0,0.0,1.0,0.0,0.0,0.0,1.0,0.147293701172,0.166453857422,10.1309326172,0.1,0.0,0.0,0.0,0.1,0.0,0.0,0.0,0.1
1452011203323972662,186,1452011203320079088,robocape,2.05990489684,11.4528522492,12.6856665885,0.0,10.0,0.0,0.0,0.0,10.0,0.0,0.0,0.0,10.0,-0.0114515926873,0.00812264132474,0.00226368692657,1.0,0.0,0.0,0.0,1.0,0.0,0.0,0.0,1.0,0.135318603516,0.0359252929688,10.157277832,0.1,0.0,0.0,0.0,0.1,0.0,0.0,0.0,0.1
1452011203356187621,187,1452011203352842092,robocape,2.06916491097,11.4597401008,12.6739751574,0.0,10.0,0.0,0.0,0.0,10.0,0.0,0.0,0.0,10.0,0.0067910607797,0.0141147537774,0.00532632218016,1.0,0.0,0.0,0.0,1.0,0.0,0.0,0.0,1.0,0.132923583984,0.0359252929688,10.1476977539,0.1,0.0,0.0,0.0,0.1,0.0,0.0,0.0,0.1
1452011203389335454,188,1452011203385277986,robocape,2.10873599319,11.4709787273,12.6654736075,0.0,10.0,0.0,0.0,0.0,10.0,0.0,0.0,0.0,10.0,0.0223705531567,0.0165115987585,0.00692421883421,1.0,0.0,0.0,0.0,1.0,0.0,0.0,0.0,1.0,0.106578369141,0.147293701172,10.1297351074,0.1,0.0,0.0,0.0,0.1,0.0,0.0,0.0,0.1
1452011203423440246,189,1452011203419972896,robocape,2.15998031571,11.4849356273,12.6573192502,0.0,10.0,0.0,0.0,0.0,10.0,0.0,0.0,0.0,10.0,0.0284958236638,0.017976337358,0.00705737688871,1.0,0.0,0.0,0.0,1.0,0.0,0.0,0.0,1.0,0.107775878906,0.313747558594,10.0854272461,0.1,0.0,0.0,0.0,0.1,0.0,0.0,0.0,0.1
1452011203455519246,190,1452011203452363967,robocape,2.1983831201,11.495676095,12.6475790068,0.0,10.0,0.0,0.0,0.0,10.0,0.0,0.0,0.0,10.0,0.0219710789932,0.0162452826495,0.00625842856169,1.0,0.0,0.0,0.0,1.0,0.0,0.0,0.0,1.0,0.0706530761719,0.470621337891,10.0650695801,0.1,0.0,0.0,0.0,0.1,0.0,0.0,0.0,0.1
1452011203488991663,191,1452011203485704898,robocape,2.21116342719,11.5010465685,12.6344071368,0.0,10.0,0.0,0.0,0.0,10.0,0.0,0.0,0.0,10.0,0.00892158965177,0.0133158054504,0.00452737385313,1.0,0.0,0.0,0.0,1.0,0.0,0.0,0.0,1.0,0.0646655273438,0.532891845703,10.039921875,0.1,0.0,0.0,0.0,0.1,0.0,0.0,0.0,0.1
1452011203526024829,192,1452011203522316932,robocape,2.19734353296,11.4995558739,12.6177649629,0.0,10.0,0.0,0.0,0.0,10.0,0.0,0.0,0.0,10.0,-0.00466053190764,0.00958737992429,0.00279631914458,1.0,0.0,0.0,0.0,1.0,0.0,0.0,0.0,1.0,0.0586779785156,0.490979003906,10.0495019531,0.1,0.0,0.0,0.0,0.1,0.0,0.0,0.0,0.1
1452011203556099829,193,1452011203552905082,robocape,2.16556397577,11.4941753626,12.5987609091,0.0,10.0,0.0,0.0,0.0,10.0,0.0,0.0,0.0,10.0,-0.0138484376684,0.00745685105222,0.00159789665405,1.0,0.0,0.0,0.0,1.0,0.0,0.0,0.0,1.0,0.0922082519531,0.393980712891,10.0710571289,0.1,0.0,0.0,0.0,0.1,0.0,0.0,0.0,0.1
1452011203589552913,194,1452011203584883928,robocape,2.13211611315,11.4880428377,12.5800351958,0.0,10.0,0.0,0.0,0.0,10.0,0.0,0.0,0.0,10.0,-0.0147805440499,0.00705737688871,0.00173105470855,1.0,0.0,0.0,0.0,1.0,0.0,0.0,0.0,1.0,0.104183349609,0.255069580078,10.1093774414,0.1,0.0,0.0,0.0,0.1,0.0,0.0,0.0,0.1
1452011203624803621,195,1452011203621520042,robocape,2.11585910432,11.4863518797,12.5632466616,0.0,10.0,0.0,0.0,0.0,10.0,0.0,0.0,0.0,10.0,-0.00599211245268,0.00945422186978,0.00266316109008,1.0,0.0,0.0,0.0,1.0,0.0,0.0,0.0,1.0,0.119750976563,0.180823974609,9.99082397461,0.1,0.0,0.0,0.0,0.1,0.0,0.0,0.0,0.1
1452011203654424913,196,1452011203651269912,robocape,2.11991139926,11.4895724508,12.5489121768,0.0,10.0,0.0,0.0,0.0,10.0,0.0,0.0,0.0,10.0,0.00439421579863,0.0121173829599,0.00386158358061,1.0,0.0,0.0,0.0,1.0,0.0,0.0,0.0,1.0,0.124541015625,0.166453857422,10.1357226563,0.1,0.0,0.0,0.0,0.1,0.0,0.0,0.0,0.1
1452011203693786454,197,1452011203686722040,robocape,2.14200145741,11.4971807919,12.5372734616,0.0,10.0,0.0,0.0,0.0,10.0,0.0,0.0,0.0,10.0,0.0135821215594,0.0145142279409,0.00519316412565,1.0,0.0,0.0,0.0,1.0,0.0,0.0,0.0,1.0,0.126936035156,0.205971679688,10.1045874023,0.1,0.0,0.0,0.0,0.1,0.0,0.0,0.0,0.1
1452011203726817079,198,1452011203723371028,robocape,2.17137332343,11.506229575,12.5267212504,0.0,10.0,0.0,0.0,0.0,10.0,0.0,0.0,0.0,10.0,0.0173105470855,0.015313176268,0.00572579634367,1.0,0.0,0.0,0.0,1.0,0.0,0.0,0.0,1.0,0.0981958007813,0.328117675781,10.0842297363,0.1,0.0,0.0,0.0,0.1,0.0,0.0,0.0,0.1
1452011203753701913,199,1452011203750674962,robocape,2.19571791059,11.5142961521,12.5154046385,0.0,10.0,0.0,0.0,0.0,10.0,0.0,0.0,0.0,10.0,0.0147805440499,0.0147805440499,0.00532632218016,1.0,0.0,0.0,0.0,1.0,0.0,0.0,0.0,1.0,0.0802331542969,0.403560791016,10.0423168945,0.1,0.0,0.0,0.0,0.1,0.0,0.0,0.0,0.1
1452011203794816288,200,1452011203788909912,robocape,2.20609153535,11.5176967034,12.5016902346,0.0,10.0,0.0,0.0,0.0,10.0,0.0,0.0,0.0,10.0,0.00772316716123,0.0122505410144,0.00412789968962,1.0,0.0,0.0,0.0,1.0,0.0,0.0,0.0,1.0,0.067060546875,0.431103515625,10.0530944824,0.1,0.0,0.0,0.0,0.1,0.0,0.0,0.0,0.1
1452011203824214038,201,1452011203821180105,robocape,2.19566950448,11.5172008538,12.4856085474,0.0,10.0,0.0,0.0,0.0,10.0,0.0,0.0,0.0,10.0,-0.00292947719909,0.0101200121423,0.00292947719909,1.0,0.0,0.0,0.0,1.0,0.0,0.0,0.0,1.0,0.0682580566406,0.393980712891,10.0842297363,0.1,0.0,0.0,0.0,0.1,0.0,0.0,0.0,0.1
1452011203854497621,202,1452011203851336956,robocape,2.17663103451,11.5147064195,12.4695124186,0.0,10.0,0.0,0.0,0.0,10.0,0.0,0.0,0.0,10.0,-0.00745685105222,0.00905474770627,0.00292947719909,1.0,0.0,0.0,0.0,1.0,0.0,0.0,0.0,1.0,0.0838256835938,0.32572265625,10.0866247559,0.1,0.0,0.0,0.0,0.1,0.0,0.0,0.0,0.1
1452011203900828288,203,1452011203892141103,robocape,2.15921063873,11.5137144017,12.4537459217,0.0,10.0,0.0,0.0,0.0,10.0,0.0,0.0,0.0,10.0,-0.0066579027252,0.00985369603329,0.00306263525359,1.0,0.0,0.0,0.0,1.0,0.0,0.0,0.0,1.0,0.09580078125,0.253872070313,10.0950073242,0.1,0.0,0.0,0.0,0.1,0.0,0.0,0.0,0.1
1452011203928777121,204,1452011203925317049,robocape,2.15376224485,11.5144180614,12.4393286936,0.0,10.0,0.0,0.0,0.0,10.0,0.0,0.0,0.0,10.0,-0.000532632218016,0.0107858024148,0.00372842552611,1.0,0.0,0.0,0.0,1.0,0.0,0.0,0.0,1.0,0.112565917969,0.240699462891,10.1069824219,0.1,0.0,0.0,0.0,0.1,0.0,0.0,0.0,0.1
1452011203954175413,205,1452011203951003074,robocape,2.15788332929,11.5178448009,12.4257764941,0.0,10.0,0.0,0.0,0.0,10.0,0.0,0.0,0.0,10.0,0.00439421579863,0.0122505410144,0.00412789968962,1.0,0.0,0.0,0.0,1.0,0.0,0.0,0.0,1.0,0.105380859375,0.225131835938,10.1249450684,0.1,0.0,0.0,0.0,0.1,0.0,0.0,0.0,0.1
1452011203996051579,206,1452011203990925073,robocape,2.17389120735,11.5237237676,12.4133357912,0.0,10.0,0.0,0.0,0.0,10.0,0.0,0.0,0.0,10.0,0.0105194863058,0.0135821215594,0.00466053190764,1.0,0.0,0.0,0.0,1.0,0.0,0.0,0.0,1.0,0.101788330078,0.2682421875,10.1225500488,0.1,0.0,0.0,0.0,0.1,0.0,0.0,0.0,0.1
1452011204025987996,207,1452011204023005008,robocape,2.19129650779,11.5295561299,12.4016898431,0.0,10.0,0.0,0.0,0.0,10.0,0.0,0.0,0.0,10.0,0.0111852765783,0.0135821215594,0.00506000607115,1.0,0.0,0.0,0.0,1.0,0.0,0.0,0.0,1.0,0.0826281738281,0.328117675781,10.0890197754,0.1,0.0,0.0,0.0,0.1,0.0,0.0,0.0,0.1
1452011204052870913,208,1452011204049875974,robocape,2.20293350117,11.5344154368,12.3892793322,0.0,10.0,0.0,0.0,0.0,10.0,0.0,0.0,0.0,10.0,0.00825579937925,0.0130494893414,0.00466053190764,1.0,0.0,0.0,0.0,1.0,0.0,0.0,0.0,1.0,0.0802331542969,0.390388183594,10.0830322266,0.1,0.0,0.0,0.0,0.1,0.0,0.0,0.0,0.1
1452011204093471538,209,1452011204089675903,robocape,2.20392824286,11.5360598208,12.3757893875,0.0,10.0,0.0,0.0,0.0,10.0,0.0,0.0,0.0,10.0,0.00279631914458,0.0113184346328,0.00412789968962,1.0,0.0,0.0,0.0,1.0,0.0,0.0,0.0,1.0,0.0778381347656,0.391585693359,10.0626745605,0.1,0.0,0.0,0.0,0.1,0.0,0.0,0.0,0.1
1452011204124782079,210,1452011204121769905,robocape,2.19603341254,11.5362655589,12.3610136743,0.0,10.0,0.0,0.0,0.0,10.0,0.0,0.0,0.0,10.0,-0.00173105470855,0.0105194863058,0.0034621094171,1.0,0.0,0.0,0.0,1.0,0.0,0.0,0.0,1.0,0.0922082519531,0.368833007813,10.075847168,0.1,0.0,0.0,0.0,0.1,0.0,0.0,0.0,0.1
1452011204157512413,211,1452011204154272079,robocape,2.18464802965,11.5355217373,12.3452196047,0.0,10.0,0.0,0.0,0.0,10.0,0.0,0.0,0.0,10.0,-0.0034621094171,0.0099868540878,0.00292947719909,1.0,0.0,0.0,0.0,1.0,0.0,0.0,0.0,1.0,0.09580078125,0.317340087891,10.1105749512,0.1,0.0,0.0,0.0,0.1,0.0,0.0,0.0,0.1
1452011204195090413,212,1452011204188354969,robocape,2.1752706173,11.5354866774,12.3305014495,0.0,10.0,0.0,0.0,0.0,10.0,0.0,0.0,0.0,10.0,-0.00253000303558,0.0103863282513,0.0034621094171,1.0,0.0,0.0,0.0,1.0,0.0,0.0,0.0,1.0,0.102985839844,0.263452148438,10.1249450684,0.1,0.0,0.0,0.0,0.1,0.0,0.0,0.0,0.1
1452011204229180996,213,1452011204225049018,robocape,2.17490675142,11.5371834473,12.3163663722,0.0,10.0,0.0,0.0,0.0,10.0,0.0,0.0,0.0,10.0,0.00213052887206,0.0113184346328,0.00372842552611,1.0,0.0,0.0,0.0,1.0,0.0,0.0,0.0,1.0,0.104183349609,0.247884521484,10.0830322266,0.1,0.0,0.0,0.0,0.1,0.0,0.0,0.0,0.1
1452011204254883955,214,1452011204251744985,robocape,2.18212097888,11.5408362187,12.3033342309,0.0,10.0,0.0,0.0,0.0,10.0,0.0,0.0,0.0,10.0,0.00599211245268,0.0123836990689,0.00426105774413,1.0,0.0,0.0,0.0,1.0,0.0,0.0,0.0,1.0,0.119750976563,0.276624755859,10.1141674805,0.1,0.0,0.0,0.0,0.1,0.0,0.0,0.0,0.1
1452011204293614080,215,1452011204287719964,robocape,2.19359689828,11.5460014897,12.290112433,0.0,10.0,0.0,0.0,0.0,10.0,0.0,0.0,0.0,10.0,0.00825579937925,0.0131826473959,0.00412789968962,1.0,0.0,0.0,0.0,1.0,0.0,0.0,0.0,1.0,0.102985839844,0.310155029297,10.0866247559,0.1,0.0,0.0,0.0,0.1,0.0,0.0,0.0,0.1
1452011204326448288,216,1452011204323431968,robocape,2.20434123959,11.5501434589,12.2771477339,0.0,10.0,0.0,0.0,0.0,10.0,0.0,0.0,0.0,10.0,0.00785632521573,0.0126500151779,0.00426105774413,1.0,0.0,0.0,0.0,1.0,0.0,0.0,0.0,1.0,0.0778381347656,0.350870361328,10.0626745605,0.1,0.0,0.0,0.0,0.1,0.0,0.0,0.0,0.1
1452011204353931330,217,1452011204350944995,robocape,2.20993843226,11.5532918845,12.2639313113,0.0,10.0,0.0,0.0,0.0,10.0,0.0,0.0,0.0,10.0,0.00519316412565,0.0121173829599,0.00412789968962,1.0,0.0,0.0,0.0,1.0,0.0,0.0,0.0,1.0,0.0694555664063,0.353265380859,10.0770446777,0.1,0.0,0.0,0.0,0.1,0.0,0.0,0.0,0.1
1452011204393920871,218,1452011204390330076,robocape,2.20699454657,11.5552249457,12.2499468175,0.0,10.0,0.0,0.0,0.0,10.0,0.0,0.0,0.0,10.0,0.000798948327024,0.0114515926873,0.00372842552611,1.0,0.0,0.0,0.0,1.0,0.0,0.0,0.0,1.0,0.0826281738281,0.350870361328,10.096204834,0.1,0.0,0.0,0.0,0.1,0.0,0.0,0.0,0.1
1452011204425017830,219,1452011204421698093,robocape,2.20003957901,11.5554520563,12.2349206129,0.0,10.0,0.0,0.0,0.0,10.0,0.0,0.0,0.0,10.0,-0.00119842249054,0.0105194863058,0.0031957933081,1.0,0.0,0.0,0.0,1.0,0.0,0.0,0.0,1.0,0.0790356445313,0.3448828125,10.0950073242,0.1,0.0,0.0,0.0,0.1,0.0,0.0,0.0,0.1
1452011204452197371,220,1452011204449224948,robocape,2.19304833164,11.5554439308,12.2196623618,0.0,10.0,0.0,0.0,0.0,10.0,0.0,0.0,0.0,10.0,-0.00119842249054,0.0103863282513,0.00306263525359,1.0,0.0,0.0,0.0,1.0,0.0,0.0,0.0,1.0,0.0981958007813,0.310155029297,10.0866247559,0.1,0.0,0.0,0.0,0.1,0.0,0.0,0.0,0.1
1452011204493890913,221,1452011204486759901,robocape,2.19085313287,11.5568945418,12.2054981164,0.0,10.0,0.0,0.0,0.0,10.0,0.0,0.0,0.0,10.0,0.00119842249054,0.0111852765783,0.00359526747161,1.0,0.0,0.0,0.0,1.0,0.0,0.0,0.0,1.0,0.106578369141,0.282612304688,10.0854272461,0.1,0.0,0.0,0.0,0.1,0.0,0.0,0.0,0.1
1452011204523611538,222,1452011204520483016,robocape,2.19400641047,11.5602904428,12.1926954188,0.0,10.0,0.0,0.0,0.0,10.0,0.0,0.0,0.0,10.0,0.00386158358061,0.0122505410144,0.00426105774413,1.0,0.0,0.0,0.0,1.0,0.0,0.0,0.0,1.0,0.104183349609,0.276624755859,10.0938098145,0.1,0.0,0.0,0.0,0.1,0.0,0.0,0.0,0.1
1452011204551953746,223,1452011204548804044,robocape,2.20234177755,11.5649105582,12.1804624454,0.0,10.0,0.0,0.0,0.0,10.0,0.0,0.0,0.0,10.0,0.00652474467069,0.0129163312869,0.00452737385313,1.0,0.0,0.0,0.0,1.0,0.0,0.0,0.0,1.0,0.086220703125,0.298179931641,10.0890197754,0.1,0.0,0.0,0.0,0.1,0.0,0.0,0.0,0.1
1452011204594341121,224,1452011204586661100,robocape,2.21137498265,11.5692851882,12.1679916477,0.0,10.0,0.0,0.0,0.0,10.0,0.0,0.0,0.0,10.0,0.00692421883421,0.0127831732324,0.00439421579863,1.0,0.0,0.0,0.0,1.0,0.0,0.0,0.0,1.0,0.0850231933594,0.304167480469,10.1153649902,0.1,0.0,0.0,0.0,0.1,0.0,0.0,0.0,0.1
1452011204622537871,225,1452011204619450092,robocape,2.21754797991,11.5726641019,12.1552653053,0.0,10.0,0.0,0.0,0.0,10.0,0.0,0.0,0.0,10.0,0.00545948023466,0.0122505410144,0.00426105774413,1.0,0.0,0.0,0.0,1.0,0.0,0.0,0.0,1.0,0.0814306640625,0.353265380859,10.080637207,0.1,0.0,0.0,0.0,0.1,0.0,0.0,0.0,0.1
1452011204652199705,226,1452011204648943901,robocape,2.21776651384,11.5745618786,12.1420159311,0.0,10.0,0.0,0.0,0.0,10.0,0.0,0.0,0.0,10.0,0.00239684498107,0.0114515926873,0.00399474163512,1.0,0.0,0.0,0.0,1.0,0.0,0.0,0.0,1.0,0.0934057617188,0.365240478516,10.0650695801,0.1,0.0,0.0,0.0,0.1,0.0,0.0,0.0,0.1
1452011204693753830,227,1452011204688390016,robocape,2.21508909344,11.5754818174,12.1282557563,0.0,10.0,0.0,0.0,0.0,10.0,0.0,0.0,0.0,10.0,0.000932106381528,0.0109189604693,0.00372842552611,1.0,0.0,0.0,0.0,1.0,0.0,0.0,0.0,1.0,0.0910107421875,0.340092773437,10.0686621094,0.1,0.0,0.0,0.0,0.1,0.0,0.0,0.0,0.1
1452011204723312705,228,1452011204720318078,robocape,2.2107435368,11.5764419736,12.113757258,0.0,10.0,0.0,0.0,0.0,10.0,0.0,0.0,0.0,10.0,0.000133158054504,0.0109189604693,0.0033289513626,1.0,0.0,0.0,0.0,1.0,0.0,0.0,0.0,1.0,0.120948486328,0.316142578125,10.0890197754,0.1,0.0,0.0,0.0,0.1,0.0,0.0,0.0,0.1
1452011204752772246,229,1452011204749490976,robocape,2.20732773456,11.5781199965,12.100077653,0.0,10.0,0.0,0.0,0.0,10.0,0.0,0.0,0.0,10.0,0.000532632218016,0.0113184346328,0.00372842552611,1.0,0.0,0.0,0.0,1.0,0.0,0.0,0.0,1.0,0.0946032714844,0.279019775391,10.1141674805,0.1,0.0,0.0,0.0,0.1,0.0,0.0,0.0,0.1
1452011204794184080,230,1452011204788753986,robocape,2.20803934914,11.5810388731,12.0867141181,0.0,10.0,0.0,0.0,0.0,10.0,0.0,0.0,0.0,10.0,0.00266316109008,0.0119842249054,0.00386158358061,1.0,0.0,0.0,0.0,1.0,0.0,0.0,0.0,1.0,0.0934057617188,0.275427246094,10.1141674805,0.1,0.0,0.0,0.0,0.1,0.0,0.0,0.0,0.1
1452011204824086746,231,1452011204821064949,robocape,2.21342522476,11.5841787292,12.0738933071,0.0,10.0,0.0,0.0,0.0,10.0,0.0,0.0,0.0,10.0,0.00506000607115,0.0121173829599,0.00412789968962,1.0,0.0,0.0,0.0,1.0,0.0,0.0,0.0,1.0,0.0910107421875,0.304167480469,10.0854272461,0.1,0.0,0.0,0.0,0.1,0.0,0.0,0.0,0.1
1452011204851950038,232,1452011204848927974,robocape,2.21956654347,11.5873152118,12.0610988467,0.0,10.0,0.0,0.0,0.0,10.0,0.0,0.0,0.0,10.0,0.00545948023466,0.0121173829599,0.00412789968962,1.0,0.0,0.0,0.0,1.0,0.0,0.0,0.0,1.0,0.0969982910156,0.324525146484,10.0985998535,0.1,0.0,0.0,0.0,0.1,0.0,0.0,0.0,0.1
1452011204896272747,233,1452011204887382030,robocape,2.22493796273,11.5901982898,12.0483249545,0.0,10.0,0.0,0.0,0.0,10.0,0.0,0.0,0.0,10.0,0.00506000607115,0.0119842249054,0.00412789968962,1.0,0.0,0.0,0.0,1.0,0.0,0.0,0.0,1.0,0.104183349609,0.341290283203,10.0794396973,0.1,0.0,0.0,0.0,0.1,0.0,0.0,0.0,0.1
1452011204922874080,234,1452011204919905900,robocape,2.22720648615,11.593093717,12.035324672,0.0,10.0,0.0,0.0,0.0,10.0,0.0,0.0,0.0,10.0,0.0034621094171,0.0119842249054,0.00399474163512,1.0,0.0,0.0,0.0,1.0,0.0,0.0,0.0,1.0,0.0814306640625,0.348475341797,10.1045874023,0.1,0.0,0.0,0.0,0.1,0.0,0.0,0.0,0.1
1452011204953047830,235,1452011204949278116,robocape,2.22677408343,11.5942681549,12.0215343822,0.0,10.0,0.0,0.0,0.0,10.0,0.0,0.0,0.0,10.0,0.00213052887206,0.0110521185238,0.00359526747161,1.0,0.0,0.0,0.0,1.0,0.0,0.0,0.0,1.0,0.067060546875,0.340092773437,10.0638720703,0.1,0.0,0.0,0.0,0.1,0.0,0.0,0.0,0.1
1452011204988173997,236,1452011204985116004,robocape,2.22436685016,11.5954331851,12.0080308859,0.0,10.0,0.0,0.0,0.0,10.0,0.0,0.0,0.0,10.0,0.00106526443603,0.0110521185238,0.00372842552611,1.0,0.0,0.0,0.0,1.0,0.0,0.0,0.0,1.0,0.0694555664063,0.319735107422,10.1141674805,0.1,0.0,0.0,0.0,0.1,0.0,0.0,0.0,0.1
1452011205023389413,237,1452011205020307064,robocape,2.22272989197,11.596850199,11.9945617425,0.0,10.0,0.0,0.0,0.0,10.0,0.0,0.0,0.0,10.0,0.00146473859954,0.0111852765783,0.00372842552611,1.0,0.0,0.0,0.0,1.0,0.0,0.0,0.0,1.0,0.0886157226563,0.319735107422,10.0866247559,0.1,0.0,0.0,0.0,0.1,0.0,0.0,0.0,0.1
1452011205060035997,238,1452011205056969881,robocape,2.22374348167,11.5989948316,11.9816520779,0.0,10.0,0.0,0.0,0.0,10.0,0.0,0.0,0.0,10.0,0.00279631914458,0.0115847507418,0.00399474163512,1.0,0.0,0.0,0.0,1.0,0.0,0.0,0.0,1.0,0.09580078125,0.288599853516,10.1069824219,0.1,0.0,0.0,0.0,0.1,0.0,0.0,0.0,0.1
1452011205091750330,239,1452011205088725090,robocape,2.22796183004,11.6018526267,11.9695566397,0.0,10.0,0.0,0.0,0.0,10.0,0.0,0.0,0.0,10.0,0.00439421579863,0.0119842249054,0.00439421579863,1.0,0.0,0.0,0.0,1.0,0.0,0.0,0.0,1.0,0.100590820313,0.281414794922,10.0890197754,0.1,0.0,0.0,0.0,0.1,0.0,0.0,0.0,0.1
1452011205124363538,240,1452011205121284961,robocape,2.23237974774,11.6049712644,11.9572373372,0.0,10.0,0.0,0.0,0.0,10.0,0.0,0.0,0.0,10.0,0.00452737385313,0.0121173829599,0.00426105774413,1.0,0.0,0.0,0.0,1.0,0.0,0.0,0.0,1.0,0.0981958007813,0.326920166016,10.0985998535,0.1,0.0,0.0,0.0,0.1,0.0,0.0,0.0,0.1
1452011205157661872,241,1452011205154567003,robocape,2.2367418815,11.6080993665,11.9446875213,0.0,10.0,0.0,0.0,0.0,10.0,0.0,0.0,0.0,10.0,0.00452737385313,0.0121173829599,0.00412789968962,1.0,0.0,0.0,0.0,1.0,0.0,0.0,0.0,1.0,0.0790356445313,0.323327636719,10.0542919922,0.1,0.0,0.0,0.0,0.1,0.0,0.0,0.0,0.1
1452011205186518997,242,1452011205183376073,robocape,2.24023560138,11.6112500361,11.9316521288,0.0,10.0,0.0,0.0,0.0,10.0,0.0,0.0,0.0,10.0,0.00412789968962,0.0121173829599,0.00386158358061,1.0,0.0,0.0,0.0,1.0,0.0,0.0,0.0,1.0,0.0778381347656,0.329315185547,10.096204834,0.1,0.0,0.0,0.0,0.1,0.0,0.0,0.0,0.1
1452011205220554372,243,1452011205217390060,robocape,2.24027108098,11.6133712469,11.9191301099,0.0,10.0,0.0,0.0,0.0,10.0,0.0,0.0,0.0,10.0,0.00226368692657,0.0115847507418,0.00412789968962,1.0,0.0,0.0,0.0,1.0,0.0,0.0,0.0,1.0,0.0742456054688,0.331710205078,10.0985998535,0.1,0.0,0.0,0.0,0.1,0.0,0.0,0.0,0.1
1452011205252039538,244,1452011205248851060,robocape,2.23914158673,11.6157808886,11.9058733453,0.0,10.0,0.0,0.0,0.0,10.0,0.0,0.0,0.0,10.0,0.00173105470855,0.0117179087963,0.00372842552611,1.0,0.0,0.0,0.0,1.0,0.0,0.0,0.0,1.0,0.0946032714844,0.336500244141,10.0830322266,0.1,0.0,0.0,0.0,0.1,0.0,0.0,0.0,0.1
1452011205285018205,245,1452011205282051086,robocape,2.23832004645,11.6176744467,11.8928847764,0.0,10.0,0.0,0.0,0.0,10.0,0.0,0.0,0.0,10.0,0.00186421276306,0.0114515926873,0.00386158358061,1.0,0.0,0.0,0.0,1.0,0.0,0.0,0.0,1.0,0.104183349609,0.318537597656,10.0782421875,0.1,0.0,0.0,0.0,0.1,0.0,0.0,0.0,0.1
1452011205318453872,246,1452011205315459012,robocape,2.23943522708,11.6197802036,11.8806971609,0.0,10.0,0.0,0.0,0.0,10.0,0.0,0.0,0.0,10.0,0.00279631914458,0.0115847507418,0.00426105774413,1.0,0.0,0.0,0.0,1.0,0.0,0.0,0.0,1.0,0.101788330078,0.299377441406,10.0997973633,0.1,0.0,0.0,0.0,0.1,0.0,0.0,0.0,0.1
1452011205351922580,247,1452011205348933935,robocape,2.24228054549,11.622649475,11.8682987806,0.0,10.0,0.0,0.0,0.0,10.0,0.0,0.0,0.0,10.0,0.00372842552611,0.0119842249054,0.00412789968962,1.0,0.0,0.0,0.0,1.0,0.0,0.0,0.0,1.0,0.0981958007813,0.310155029297,10.075847168,0.1,0.0,0.0,0.0,0.1,0.0,0.0,0.0,0.1
1452011205385066705,248,1452011205382158994,robocape,2.24685057234,11.625778518,11.8556754184,0.0,10.0,0.0,0.0,0.0,10.0,0.0,0.0,0.0,10.0,0.00466053190764,0.0121173829599,0.00399474163512,1.0,0.0,0.0,0.0,1.0,0.0,0.0,0.0,1.0,0.086220703125,0.300574951172,10.1045874023,0.1,0.0,0.0,0.0,0.1,0.0,0.0,0.0,0.1
1452011205418439913,249,1452011205415484905,robocape,2.25090342063,11.6279006216,11.8430492513,0.0,10.0,0.0,0.0,0.0,10.0,0.0,0.0,0.0,10.0,0.00439421579863,0.0115847507418,0.00399474163512,1.0,0.0,0.0,0.0,1.0,0.0,0.0,0.0,1.0,0.0946032714844,0.335302734375,10.1069824219,0.1,0.0,0.0,0.0,0.1,0.0,0.0,0.0,0.1
1452011205451953538,250,1452011205448885917,robocape,2.25287318945,11.6305381799,11.8302100031,0.0,10.0,0.0,0.0,0.0,10.0,0.0,0.0,0.0,10.0,0.0033289513626,0.0118510668509,0.00386158358061,1.0,0.0,0.0,0.0,1.0,0.0,0.0,0.0,1.0,0.0946032714844,0.355660400391,10.075847168,0.1,0.0,0.0,0.0,0.1,0.0,0.0,0.0,0.1
1452011205484905122,251,1452011205482038021,robocape,2.25275721181,11.6324346918,11.8171205374,0.0,10.0,0.0,0.0,0.0,10.0,0.0,0.0,0.0,10.0,0.00226368692657,0.0114515926873,0.00372842552611,1.0,0.0,0.0,0.0,1.0,0.0,0.0,0.0,1.0,0.101788330078,0.340092773437,10.0734521484,0.1,0.0,0.0,0.0,0.1,0.0,0.0,0.0,0.1
1452011205519553622,252,1452011205516443014,robocape,2.25213591892,11.6340802707,11.8040509517,0.0,10.0,0.0,0.0,0.0,10.0,0.0,0.0,0.0,10.0,0.00199737081756,0.0113184346328,0.00372842552611,1.0,0.0,0.0,0.0,1.0,0.0,0.0,0.0,1.0,0.0874182128906,0.320932617188,10.1021923828,0.1,0.0,0.0,0.0,0.1,0.0,0.0,0.0,0.1
1452011205552133664,253,1452011205548970937,robocape,2.2513179205,11.6359649433,11.791272074,0.0,10.0,0.0,0.0,0.0,10.0,0.0,0.0,0.0,10.0,0.00186421276306,0.0114515926873,0.00386158358061,1.0,0.0,0.0,0.0,1.0,0.0,0.0,0.0,1.0,0.0981958007813,0.310155029297,10.1177600098,0.1,0.0,0.0,0.0,0.1,0.0,0.0,0.0,0.1
1452011205584919164,254,1452011205582052946,robocape,2.2517221239,11.6378608093,11.7782617107,0.0,10.0,0.0,0.0,0.0,10.0,0.0,0.0,0.0,10.0,0.00253000303558,0.0114515926873,0.00372842552611,1.0,0.0,0.0,0.0,1.0,0.0,0.0,0.0,1.0,0.0874182128906,0.304167480469,10.1117724609,0.1,0.0,0.0,0.0,0.1,0.0,0.0,0.0,0.1
1452011205619033539,255,1452011205615962982,robocape,2.25421335415,11.6402445456,11.7655472583,0.0,10.0,0.0,0.0,0.0,10.0,0.0,0.0,0.0,10.0,0.00359526747161,0.0117179087963,0.00386158358061,1.0,0.0,0.0,0.0,1.0,0.0,0.0,0.0,1.0,0.0850231933594,0.310155029297,10.1129699707,0.1,0.0,0.0,0.0,0.1,0.0,0.0,0.0,0.1
1452011205657922497,256,1452011205654797077,robocape,2.25777273672,11.6431158315,11.753129259,0.0,10.0,0.0,0.0,0.0,10.0,0.0,0.0,0.0,10.0,0.00412789968962,0.0119842249054,0.00399474163512,1.0,0.0,0.0,0.0,1.0,0.0,0.0,0.0,1.0,0.0934057617188,0.322130126953,10.0698596191,0.1,0.0,0.0,0.0,0.1,0.0,0.0,0.0,0.1
1452011205686523955,257,1452011205683428049,robocape,2.26097109001,11.6457587822,11.7402170141,0.0,10.0,0.0,0.0,0.0,10.0,0.0,0.0,0.0,10.0,0.00399474163512,0.0118510668509,0.00372842552611,1.0,0.0,0.0,0.0,1.0,0.0,0.0,0.0,1.0,0.0946032714844,0.332907714844,10.0878222656,0.1,0.0,0.0,0.0,0.1,0.0,0.0,0.0,0.1
1452011205721311289,258,1452011205717457056,robocape,2.26376388346,11.6486263603,11.7278520255,0.0,10.0,0.0,0.0,0.0,10.0,0.0,0.0,0.0,10.0,0.00372842552611,0.0119842249054,0.00399474163512,1.0,0.0,0.0,0.0,1.0,0.0,0.0,0.0,1.0,0.0969982910156,0.342487792969,10.0985998535,0.1,0.0,0.0,0.0,0.1,0.0,0.0,0.0,0.1
1452011205752938539,259,1452011205749820947,robocape,2.2654857393,11.6510026273,11.7152420456,0.0,10.0,0.0,0.0,0.0,10.0,0.0,0.0,0.0,10.0,0.0031957933081,0.0117179087963,0.00386158358061,1.0,0.0,0.0,0.0,1.0,0.0,0.0,0.0,1.0,0.0946032714844,0.335302734375,10.0662670898,0.1,0.0,0.0,0.0,0.1,0.0,0.0,0.0,0.1
1452011205789721205,260,1452011205786098957,robocape,2.2652703476,11.6521610742,11.7018531281,0.0,10.0,0.0,0.0,0.0,10.0,0.0,0.0,0.0,10.0,0.00226368692657,0.0110521185238,0.0034621094171,1.0,0.0,0.0,0.0,1.0,0.0,0.0,0.0,1.0,0.0850231933594,0.322130126953,10.0794396973,0.1,0.0,0.0,0.0,0.1,0.0,0.0,0.0,0.1
1452011205821355539,261,1452011205817922115,robocape,2.26430113322,11.6540747418,11.6885149815,0.0,10.0,0.0,0.0,0.0,10.0,0.0,0.0,0.0,10.0,0.00186421276306,0.0114515926873,0.0034621094171,1.0,0.0,0.0,0.0,1.0,0.0,0.0,0.0,1.0,0.0969982910156,0.316142578125,10.0926123047,0.1,0.0,0.0,0.0,0.1,0.0,0.0,0.0,0.1
1452011205851868747,262,1452011205848887920,robocape,2.26359072625,11.6559879628,11.6752036198,0.0,10.0,0.0,0.0,0.0,10.0,0.0,0.0,0.0,10.0,0.00199737081756,0.0114515926873,0.0034621094171,1.0,0.0,0.0,0.0,1.0,0.0,0.0,0.0,1.0,0.0981958007813,0.328117675781,10.0794396973,0.1,0.0,0.0,0.0,0.1,0.0,0.0,0.0,0.1
1452011205884890580,263,1452011205882045030,robocape,2.26456242317,11.6578621668,11.6626869284,0.0,10.0,0.0,0.0,0.0,10.0,0.0,0.0,0.0,10.0,0.00279631914458,0.0114515926873,0.00386158358061,1.0,0.0,0.0,0.0,1.0,0.0,0.0,0.0,1.0,0.108973388672,0.323327636719,10.0902172852,0.1,0.0,0.0,0.0,0.1,0.0,0.0,0.0,0.1
1452011205918531455,264,1452011205915585994,robocape,2.26629956933,11.6602375534,11.6502101432,0.0,10.0,0.0,0.0,0.0,10.0,0.0,0.0,0.0,10.0,0.0031957933081,0.0117179087963,0.00386158358061,1.0,0.0,0.0,0.0,1.0,0.0,0.0,0.0,1.0,0.111368408203,0.334105224609,10.0914147949,0.1,0.0,0.0,0.0,0.1,0.0,0.0,0.0,0.1
1452011205951880455,265,1452011205948822021,robocape,2.2686464296,11.662334956,11.6382636378,0.0,10.0,0.0,0.0,0.0,10.0,0.0,0.0,0.0,10.0,0.0034621094171,0.0115847507418,0.00412789968962,1.0,0.0,0.0,0.0,1.0,0.0,0.0,0.0,1.0,0.076640625,0.305364990234,10.0770446777,0.1,0.0,0.0,0.0,0.1,0.0,0.0,0.0,0.1
1452011205984763789,266,1452011205981915950,robocape,2.27175501354,11.6646817936,11.6263485156,0.0,10.0,0.0,0.0,0.0,10.0,0.0,0.0,0.0,10.0,0.00386158358061,0.0117179087963,0.00412789968962,1.0,0.0,0.0,0.0,1.0,0.0,0.0,0.0,1.0,0.0790356445313,0.317340087891,10.0914147949,0.1,0.0,0.0,0.0,0.1,0.0,0.0,0.0,0.1
1452011206018508705,267,1452011206015569925,robocape,2.27429834982,11.6662867766,11.6141794346,0.0,10.0,0.0,0.0,0.0,10.0,0.0,0.0,0.0,10.0,0.00359526747161,0.0113184346328,0.00399474163512,1.0,0.0,0.0,0.0,1.0,0.0,0.0,0.0,1.0,0.0886157226563,0.328117675781,10.0950073242,0.1,0.0,0.0,0.0,0.1,0.0,0.0,0.0,0.1
1452011206052016580,268,1452011206048871994,robocape,2.27557526442,11.6686461024,11.6020594569,0.0,10.0,0.0,0.0,0.0,10.0,0.0,0.0,0.0,10.0,0.00292947719909,0.0117179087963,0.00399474163512,1.0,0.0,0.0,0.0,1.0,0.0,0.0,0.0,1.0,0.100590820313,0.342487792969,10.096204834,0.1,0.0,0.0,0.0,0.1,0.0,0.0,0.0,0.1
1452011206084690414,269,1452011206081841945,robocape,2.2773593919,11.6707524146,11.5899560685,0.0,10.0,0.0,0.0,0.0,10.0,0.0,0.0,0.0,10.0,0.0031957933081,0.0115847507418,0.00399474163512,1.0,0.0,0.0,0.0,1.0,0.0,0.0,0.0,1.0,0.111368408203,0.337697753906,10.075847168,0.1,0.0,0.0,0.0,0.1,0.0,0.0,0.0,0.1
1452011206118752664,270,1452011206115745067,robocape,2.27833049619,11.6728709171,11.5776217614,0.0,10.0,0.0,0.0,0.0,10.0,0.0,0.0,0.0,10.0,0.00279631914458,0.0115847507418,0.00386158358061,1.0,0.0,0.0,0.0,1.0,0.0,0.0,0.0,1.0,0.110170898438,0.323327636719,10.0902172852,0.1,0.0,0.0,0.0,0.1,0.0,0.0,0.0,0.1
1452011206154893455,271,1452011206151582956,robocape,2.27930179599,11.6747373812,11.5653049752,0.0,10.0,0.0,0.0,0.0,10.0,0.0,0.0,0.0,10.0,0.00279631914458,0.0114515926873,0.00386158358061,1.0,0.0,0.0,0.0,1.0,0.0,0.0,0.0,1.0,0.0946032714844,0.311352539063,10.0878222656,0.1,0.0,0.0,0.0,0.1,0.0,0.0,0.0,0.1
1452011206185134455,272,1452011206182156085,robocape,2.2812406574,11.6771172799,11.5527710653,0.0,10.0,0.0,0.0,0.0,10.0,0.0,0.0,0.0,10.0,0.0033289513626,0.0117179087963,0.00372842552611,1.0,0.0,0.0,0.0,1.0,0.0,0.0,0.0,1.0,0.0969982910156,0.302969970703,10.1249450684,0.1,0.0,0.0,0.0,0.1,0.0,0.0,0.0,0.1
1452011206218617955,273,1452011206215445995,robocape,2.28409452353,11.6792062873,11.5410237107,0.0,10.0,0.0,0.0,0.0,10.0,0.0,0.0,0.0,10.0,0.00372842552611,0.0115847507418,0.00412789968962,1.0,0.0,0.0,0.0,1.0,0.0,0.0,0.0,1.0,0.0910107421875,0.324525146484,10.0938098145,0.1,0.0,0.0,0.0,0.1,0.0,0.0,0.0,0.1
1452011206251837539,274,1452011206248780012,robocape,2.28654400113,11.6825875436,11.528569451,0.0,10.0,0.0,0.0,0.0,10.0,0.0,0.0,0.0,10.0,0.00359526747161,0.0122505410144,0.00372842552611,1.0,0.0,0.0,0.0,1.0,0.0,0.0,0.0,1.0,0.105380859375,0.337697753906,10.0926123047,0.1,0.0,0.0,0.0,0.1,0.0,0.0,0.0,0.1
1452011206284799289,275,1452011206281881093,robocape,2.28909315508,11.6854379144,11.5166379535,0.0,10.0,0.0,0.0,0.0,10.0,0.0,0.0,0.0,10.0,0.00359526747161,0.0119842249054,0.00399474163512,1.0,0.0,0.0,0.0,1.0,0.0,0.0,0.0,1.0,0.107775878906,0.332907714844,10.0566870117,0.1,0.0,0.0,0.0,0.1,0.0,0.0,0.0,0.1
1452011206318314997,276,1452011206315365076,robocape,2.29118247492,11.6877713496,11.5049723583,0.0,10.0,0.0,0.0,0.0,10.0,0.0,0.0,0.0,10.0,0.0033289513626,0.0117179087963,0.00412789968962,1.0,0.0,0.0,0.0,1.0,0.0,0.0,0.0,1.0,0.110170898438,0.332907714844,10.1021923828,0.1,0.0,0.0,0.0,0.1,0.0,0.0,0.0,0.1
1452011206351720997,277,1452011206348829984,robocape,2.29245549786,11.6896142725,11.4930595033,0.0,10.0,0.0,0.0,0.0,10.0,0.0,0.0,0.0,10.0,0.00292947719909,0.0114515926873,0.00399474163512,1.0,0.0,0.0,0.0,1.0,0.0,0.0,0.0,1.0,0.09580078125,0.318537597656,10.1033898926,0.1,0.0,0.0,0.0,0.1,0.0,0.0,0.0,0.1
1452011206384827664,278,1452011206381967067,robocape,2.29316878641,11.6912186325,11.4809073152,0.0,10.0,0.0,0.0,0.0,10.0,0.0,0.0,0.0,10.0,0.00266316109008,0.0113184346328,0.00386158358061,1.0,0.0,0.0,0.0,1.0,0.0,0.0,0.0,1.0,0.09580078125,0.318537597656,10.1045874023,0.1,0.0,0.0,0.0,0.1,0.0,0.0,0.0,0.1
1452011206418245289,279,1452011206415357112,robocape,2.29352669873,11.6928484552,11.4682671794,0.0,10.0,0.0,0.0,0.0,10.0,0.0,0.0,0.0,10.0,0.00253000303558,0.0113184346328,0.00359526747161,1.0,0.0,0.0,0.0,1.0,0.0,0.0,0.0,1.0,0.0814306640625,0.332907714844,10.0997973633,0.1,0.0,0.0,0.0,0.1,0.0,0.0,0.0,0.1
1452011206451714497,280,1452011206448728084,robocape,2.29480516193,11.6946909635,11.4564291449,0.0,10.0,0.0,0.0,0.0,10.0,0.0,0.0,0.0,10.0,0.00292947719909,0.0114515926873,0.00399474163512,1.0,0.0,0.0,0.0,1.0,0.0,0.0,0.0,1.0,0.09580078125,0.32572265625,10.0770446777,0.1,0.0,0.0,0.0,0.1,0.0,0.0,0.0,0.1
1452011206484870997,281,1452011206481992959,robocape,2.29725507098,11.6975613226,11.4441316507,0.0,10.0,0.0,0.0,0.0,10.0,0.0,0.0,0.0,10.0,0.00359526747161,0.0119842249054,0.00372842552611,1.0,0.0,0.0,0.0,1.0,0.0,0.0,0.0,1.0,0.09580078125,0.328117675781,10.0842297363,0.1,0.0,0.0,0.0,0.1,0.0,0.0,0.0,0.1
1452011206518481914,282,1452011206515547990,robocape,2.29975303789,11.6999143609,11.4321001639,0.0,10.0,0.0,0.0,0.0,10.0,0.0,0.0,0.0,10.0,0.00359526747161,0.0117179087963,0.00386158358061,1.0,0.0,0.0,0.0,1.0,0.0,0.0,0.0,1.0,0.117355957031,0.329315185547,10.0985998535,0.1,0.0,0.0,0.0,0.1,0.0,0.0,0.0,0.1
1452011206552150622,283,1452011206548969984,robocape,2.30235590387,11.7027426711,11.420621611,0.0,10.0,0.0,0.0,0.0,10.0,0.0,0.0,0.0,10.0,0.00359526747161,0.0119842249054,0.00412789968962,1.0,0.0,0.0,0.0,1.0,0.0,0.0,0.0,1.0,0.100590820313,0.317340087891,10.080637207,0.1,0.0,0.0,0.0,0.1,0.0,0.0,0.0,0.1
1452011206584771706,284,1452011206581899881,robocape,2.30470208671,11.7053174049,11.409158802,0.0,10.0,0.0,0.0,0.0,10.0,0.0,0.0,0.0,10.0,0.0034621094171,0.0118510668509,0.00412789968962,1.0,0.0,0.0,0.0,1.0,0.0,0.0,0.0,1.0,0.0838256835938,0.316142578125,10.0938098145,0.1,0.0,0.0,0.0,0.1,0.0,0.0,0.0,0.1
1452011206618503372,285,1452011206615521907,robocape,2.30637896243,11.7069240829,11.3969192182,0.0,10.0,0.0,0.0,0.0,10.0,0.0,0.0,0.0,10.0,0.0031957933081,0.0113184346328,0.00372842552611,1.0,0.0,0.0,0.0,1.0,0.0,0.0,0.0,1.0,0.0934057617188,0.323327636719,10.0974023437,0.1,0.0,0.0,0.0,0.1,0.0,0.0,0.0,0.1
1452011206652015414,286,1452011206648907899,robocape,2.30643353735,11.7093105898,11.3842162883,0.0,10.0,0.0,0.0,0.0,10.0,0.0,0.0,0.0,10.0,0.00239684498107,0.0117179087963,0.0034621094171,1.0,0.0,0.0,0.0,1.0,0.0,0.0,0.0,1.0,0.101788330078,0.343685302734,10.0842297363,0.1,0.0,0.0,0.0,0.1,0.0,0.0,0.0,0.1
1452011206684917789,287,1452011206682009935,robocape,2.30628786717,11.7114321426,11.3717878142,0.0,10.0,0.0,0.0,0.0,10.0,0.0,0.0,0.0,10.0,0.00226368692657,0.0115847507418,0.00359526747161,1.0,0.0,0.0,0.0,1.0,0.0,0.0,0.0,1.0,0.106578369141,0.331710205078,10.1045874023,0.1,0.0,0.0,0.0,0.1,0.0,0.0,0.0,0.1
1452011206719036914,288,1452011206715753078,robocape,2.3073680978,11.7135012104,11.3604094419,0.0,10.0,0.0,0.0,0.0,10.0,0.0,0.0,0.0,10.0,0.00279631914458,0.0115847507418,0.00412789968962,1.0,0.0,0.0,0.0,1.0,0.0,0.0,0.0,1.0,0.123343505859,0.323327636719,10.0974023437,0.1,0.0,0.0,0.0,0.1,0.0,0.0,0.0,0.1
1452011206752108039,289,1452011206749197959,robocape,2.30921205552,11.7158194786,11.3490610199,0.0,10.0,0.0,0.0,0.0,10.0,0.0,0.0,0.0,10.0,0.0031957933081,0.0117179087963,0.00412789968962,1.0,0.0,0.0,0.0,1.0,0.0,0.0,0.0,1.0,0.0910107421875,0.326920166016,10.080637207,0.1,0.0,0.0,0.0,0.1,0.0,0.0,0.0,0.1
1452011206784812997,290,1452011206781934976,robocape,2.31141583126,11.718612581,11.3382639198,0.0,10.0,0.0,0.0,0.0,10.0,0.0,0.0,0.0,10.0,0.0033289513626,0.0119842249054,0.00439421579863,1.0,0.0,0.0,0.0,1.0,0.0,0.0,0.0,1.0,0.09580078125,0.305364990234,10.075847168,0.1,0.0,0.0,0.0,0.1,0.0,0.0,0.0,0.1
1452011206818412039,291,1452011206815481901,robocape,2.31346160184,11.7211897662,11.3267110068,0.0,10.0,0.0,0.0,0.0,10.0,0.0,0.0,0.0,10.0,0.0033289513626,0.0118510668509,0.00399474163512,1.0,0.0,0.0,0.0,1.0,0.0,0.0,0.0,1.0,0.0946032714844,0.319735107422,10.0782421875,0.1,0.0,0.0,0.0,0.1,0.0,0.0,0.0,0.1
1452011206852205247,292,1452011206849298000,robocape,2.31570349209,11.7227729885,11.3148934138,0.0,10.0,0.0,0.0,0.0,10.0,0.0,0.0,0.0,10.0,0.0034621094171,0.0113184346328,0.00386158358061,1.0,0.0,0.0,0.0,1.0,0.0,0.0,0.0,1.0,0.108973388672,0.331710205078,10.0985998535,0.1,0.0,0.0,0.0,0.1,0.0,0.0,0.0,0.1
1452011206884803831,293,1452011206881927013,robocape,2.31713521335,11.7251226375,11.3028675559,0.0,10.0,0.0,0.0,0.0,10.0,0.0,0.0,0.0,10.0,0.00306263525359,0.0117179087963,0.00372842552611,1.0,0.0,0.0,0.0,1.0,0.0,0.0,0.0,1.0,0.0946032714844,0.336500244141,10.0770446777,0.1,0.0,0.0,0.0,0.1,0.0,0.0,0.0,0.1
1452011206918363414,294,1452011206915457963,robocape,2.31918149515,11.7279469561,11.2913941691,0.0,10.0,0.0,0.0,0.0,10.0,0.0,0.0,0.0,10.0,0.0033289513626,0.0119842249054,0.00399474163512,1.0,0.0,0.0,0.0,1.0,0.0,0.0,0.0,1.0,0.118553466797,0.328117675781,10.075847168,0.1,0.0,0.0,0.0,0.1,0.0,0.0,0.0,0.1
1452011206952110873,295,1452011206949202060,robocape,2.32040987513,11.7300287613,11.2796644909,0.0,10.0,0.0,0.0,0.0,10.0,0.0,0.0,0.0,10.0,0.00292947719909,0.0115847507418,0.00386158358061,1.0,0.0,0.0,0.0,1.0,0.0,0.0,0.0,1.0,0.0993933105469,0.318537597656,10.080637207,0.1,0.0,0.0,0.0,0.1,0.0,0.0,0.0,0.1
1452011206984797539,296,1452011206981925010,robocape,2.32164170928,11.7326115257,11.2679740731,0.0,10.0,0.0,0.0,0.0,10.0,0.0,0.0,0.0,10.0,0.00292947719909,0.0118510668509,0.00386158358061,1.0,0.0,0.0,0.0,1.0,0.0,0.0,0.0,1.0,0.0981958007813,0.307760009766,10.1033898926,0.1,0.0,0.0,0.0,0.1,0.0,0.0,0.0,0.1
1452011207018316831,297,1452011207015414953,robocape,2.32317615076,11.7344260416,11.256539892,0.0,10.0,0.0,0.0,0.0,10.0,0.0,0.0,0.0,10.0,0.00306263525359,0.0114515926873,0.00399474163512,1.0,0.0,0.0,0.0,1.0,0.0,0.0,0.0,1.0,0.086220703125,0.316142578125,10.0890197754,0.1,0.0,0.0,0.0,0.1,0.0,0.0,0.0,0.1
1452011207052196873,298,1452011207049071073,robocape,2.32547621522,11.7369923225,11.24515161,0.0,10.0,0.0,0.0,0.0,10.0,0.0,0.0,0.0,10.0,0.0034621094171,0.0118510668509,0.00399474163512,1.0,0.0,0.0,0.0,1.0,0.0,0.0,0.0,1.0,0.116158447266,0.340092773437,10.0770446777,0.1,0.0,0.0,0.0,0.1,0.0,0.0,0.0,0.1
1452011207084750998,299,1452011207081885099,robocape,2.32811436103,11.7384021818,11.2316931812,0.0,10.0,0.0,0.0,0.0,10.0,0.0,0.0,0.0,10.0,0.00386158358061,0.0111852765783,0.00292947719909,1.0,0.0,0.0,0.0,1.0,0.0,0.0,0.0,1.0,0.102985839844,0.310155029297,10.0614770508,0.1,0.0,0.0,0.0,0.1,0.0,0.0,0.0,0.1
1452011207118722456,300,1452011207115627050,robocape,2.35786533646,11.7465883354,11.2230771505,0.0,10.0,0.0,0.0,0.0,10.0,0.0,0.0,0.0,10.0,0.0175768631945,0.0149137021044,0.00532632218016,1.0,0.0,0.0,0.0,1.0,0.0,0.0,0.0,1.0,0.15328125,0.00838256835938,10.136920166,0.1,0.0,0.0,0.0,0.1,0.0,0.0,0.0,0.1
1452011207152406206,301,1452011207149238109,robocape,2.4100965369,11.7627923449,11.2242345761,0.0,10.0,0.0,0.0,0.0,10.0,0.0,0.0,0.0,10.0,0.0283626656093,0.0194410759576,0.0102531701968,1.0,0.0,0.0,0.0,1.0,0.0,0.0,0.0,1.0,0.00119750976563,0.419128417969,10.0447119141,0.1,0.0,0.0,0.0,0.1,0.0,0.0,0.0,0.1
1452011207185229206,302,1452011207182168006,robocape,2.42549646429,11.7706859873,11.2156514449,0.0,10.0,0.0,0.0,0.0,10.0,0.0,0.0,0.0,10.0,0.0101200121423,0.0147805440499,0.00532632218016,1.0,0.0,0.0,0.0,1.0,0.0,0.0,0.0,1.0,0.137713623047,0.847836914063,9.95010864258,0.1,0.0,0.0,0.0,0.1,0.0,0.0,0.0,0.1
1452011207218422331,303,1452011207215452909,robocape,2.36439148785,11.7645962045,11.1766237972,0.0,10.0,0.0,0.0,0.0,10.0,0.0,0.0,0.0,10.0,-0.0267647689553,0.00652474467069,-0.0102531701968,1.0,0.0,0.0,0.0,1.0,0.0,0.0,0.0,1.0,0.0407153320313,0.682580566406,10.060279541,0.1,0.0,0.0,0.0,0.1,0.0,0.0,0.0,0.1
1452011207252233331,304,1452011207249275922,robocape,2.47345177644,11.7891478924,11.1652430695,0.0,10.0,0.0,0.0,0.0,10.0,0.0,0.0,0.0,10.0,0.0595216503633,0.0235689756472,0.00359526747161,1.0,0.0,0.0,0.0,1.0,0.0,0.0,0.0,1.0,0.415535888672,-1.47652954102,10.4961730957,0.1,0.0,0.0,0.0,0.1,0.0,0.0,0.0,0.1
1452011207284884914,305,1452011207282000064,robocape,2.77188503847,11.8670536405,11.1989258264,0.0,10.0,0.0,0.0,0.0,10.0,0.0,0.0,0.0,10.0,0.154197027116,0.0532632218016,0.0259658206283,1.0,0.0,0.0,0.0,1.0,0.0,0.0,0.0,1.0,0.196391601563,-0.537681884766,10.2003881836,0.1,0.0,0.0,0.0,0.1,0.0,0.0,0.0,0.1
1452011207318269581,306,1452011207315295934,robocape,3.1048328814,11.9413128955,11.2214098605,0.0,10.0,0.0,0.0,0.0,10.0,0.0,0.0,0.0,10.0,0.173771261128,0.051265850984,0.0201068662301,1.0,0.0,0.0,0.0,1.0,0.0,0.0,0.0,1.0,0.0275427246094,0.580792236328,9.9596887207,0.1,0.0,0.0,0.0,0.1,0.0,0.0,0.0,0.1
1452011207352068331,307,1452011207349149942,robocape,3.4369393203,12.0171331475,11.2476511036,0.0,10.0,0.0,0.0,0.0,10.0,0.0,0.0,0.0,10.0,0.17323862891,0.0524642734746,0.0218379209386,1.0,0.0,0.0,0.0,1.0,0.0,0.0,0.0,1.0,-0.076640625,0.784368896484,9.86867797852,0.1,0.0,0.0,0.0,0.1,0.0,0.0,0.0,0.1
1452011207384839123,308,1452011207381927967,robocape,3.67641189048,12.0756417081,11.2765116282,0.0,10.0,0.0,0.0,0.0,10.0,0.0,0.0,0.0,10.0,0.124635939016,0.0435426838228,0.0234358175927,1.0,0.0,0.0,0.0,1.0,0.0,0.0,0.0,1.0,-0.263452148438,1.73998168945,9.67348388672,0.1,0.0,0.0,0.0,0.1,0.0,0.0,0.0,0.1
1452011207418256789,309,1452011207415350914,robocape,3.75925702028,12.0929455593,11.2673889663,0.0,10.0,0.0,0.0,0.0,10.0,0.0,0.0,0.0,10.0,0.0467384771309,0.0202400242846,0.00479368996214,1.0,0.0,0.0,0.0,1.0,0.0,0.0,0.0,1.0,-0.0838256835938,1.64537841797,9.71060668945,0.1,0.0,0.0,0.0,0.1,0.0,0.0,0.0,0.1
1452011207452379873,310,1452011207449377059,robocape,3.76361446293,12.0974899974,11.2523285253,0.0,10.0,0.0,0.0,0.0,10.0,0.0,0.0,0.0,10.0,0.00625842856169,0.0131826473959,0.00199737081756,1.0,0.0,0.0,0.0,1.0,0.0,0.0,0.0,1.0,0.135318603516,0.764011230469,9.90939331055,0.1,0.0,0.0,0.0,0.1,0.0,0.0,0.0,0.1
1452011207484841539,311,1452011207481972932,robocape,3.83703078822,12.1197493826,11.2438407612,0.0,10.0,0.0,0.0,0.0,10.0,0.0,0.0,0.0,10.0,0.0418116291142,0.0229031853747,0.00492684801665,1.0,0.0,0.0,0.0,1.0,0.0,0.0,0.0,1.0,0.124541015625,0.0718505859375,10.132130127,0.1,0.0,0.0,0.0,0.1,0.0,0.0,0.0,0.1
1452011207518252331,312,1452011207515300035,robocape,4.03538723424,12.1632176767,11.2526593374,0.0,10.0,0.0,0.0,0.0,10.0,0.0,0.0,0.0,10.0,0.105594337222,0.0350205683345,0.0133158054504,1.0,0.0,0.0,0.0,1.0,0.0,0.0,0.0,1.0,0.0299377441406,0.00838256835938,10.1680554199,0.1,0.0,0.0,0.0,0.1,0.0,0.0,0.0,0.1
1452011207552229914,313,1452011207549081087,robocape,4.35918067896,12.2031410682,11.2734992954,0.0,10.0,0.0,0.0,0.0,10.0,0.0,0.0,0.0,10.0,0.170309151711,0.0339553038985,0.0197073920666,1.0,0.0,0.0,0.0,1.0,0.0,0.0,0.0,1.0,-0.161663818359,-0.0874182128906,10.1417102051,0.1,0.0,0.0,0.0,0.1,0.0,0.0,0.0,0.1
1452011207584753248,314,1452011207581901073,robocape,4.81707021906,12.2671488081,11.3204160537,0.0,10.0,0.0,0.0,0.0,10.0,0.0,0.0,0.0,10.0,0.238219759508,0.0483363737849,0.0323574072445,1.0,0.0,0.0,0.0,1.0,0.0,0.0,0.0,1.0,0.368833007813,0.390388183594,9.83275268555,0.1,0.0,0.0,0.0,0.1,0.0,0.0,0.0,0.1
1452011207618727789,315,1452011207615612030,robocape,5.30770165004,12.3459240819,11.3793445897,0.0,10.0,0.0,0.0,0.0,10.0,0.0,0.0,0.0,10.0,0.254598200212,0.0572579634367,0.0378168874791,1.0,0.0,0.0,0.0,1.0,0.0,0.0,0.0,1.0,-0.1916015625,1.59508300781,9.6219909668,0.1,0.0,0.0,0.0,0.1,0.0,0.0,0.0,0.1
1452011207652018831,316,1452011207648967981,robocape,5.73029615678,12.3721892705,11.4029743898,0.0,10.0,0.0,0.0,0.0,10.0,0.0,0.0,0.0,10.0,0.223172899349,0.0279631914458,0.0217047628841,1.0,0.0,0.0,0.0,1.0,0.0,0.0,0.0,1.0,-0.257464599609,1.81183227539,9.64953369141,0.1,0.0,0.0,0.0,0.1,0.0,0.0,0.0,0.1
1452011207685216415,317,1452011207682045936,robocape,6.12215733929,12.3943885355,11.4255938991,0.0,10.0,0.0,0.0,0.0,10.0,0.0,0.0,0.0,10.0,0.207593406972,0.0259658206283,0.0213052887206,1.0,0.0,0.0,0.0,1.0,0.0,0.0,0.0,1.0,0.0910107421875,1.53520751953,9.43517944336,0.1,0.0,0.0,0.0,0.1,0.0,0.0,0.0,0.1
1452011207718431165,318,1452011207715480089,robocape,6.45087046295,12.4178187919,11.4470490657,0.0,10.0,0.0,0.0,0.0,10.0,0.0,0.0,0.0,10.0,0.174969683618,0.0266316109008,0.0205063403936,1.0,0.0,0.0,0.0,1.0,0.0,0.0,0.0,1.0,-0.261057128906,1.99145874023,9.47230224609,0.1,0.0,0.0,0.0,0.1,0.0,0.0,0.0,0.1
1452011207752001123,319,1452011207749037027,robocape,6.73138426227,12.4225831676,11.4589525276,0.0,10.0,0.0,0.0,0.0,10.0,0.0,0.0,0.0,10.0,0.151001233807,0.0162452826495,0.0165115987585,1.0,0.0,0.0,0.0,1.0,0.0,0.0,0.0,1.0,0.0946032714844,1.90883056641,9.35135375977,0.1,0.0,0.0,0.0,0.1,0.0,0.0,0.0,0.1
1452011207784777915,320,1452011207781868934,robocape,6.90193075851,12.4379176598,11.4880521031,0.0,10.0,0.0,0.0,0.0,10.0,0.0,0.0,0.0,10.0,0.0916127414987,0.0227700273202,0.0245010820287,1.0,0.0,0.0,0.0,1.0,0.0,0.0,0.0,1.0,-0.336500244141,3.19136352539,9.00647094727,0.1,0.0,0.0,0.0,0.1,0.0,0.0,0.0,0.1
1452011207818266248,321,1452011207815320014,robocape,6.8126737125,12.4296441532,11.420694476,0.0,10.0,0.0,0.0,0.0,10.0,0.0,0.0,0.0,10.0,-0.0342216200075,0.0031957933081,-0.0242347659197,1.0,0.0,0.0,0.0,1.0,0.0,0.0,0.0,1.0,-0.435893554688,4.5565246582,8.44723388672,0.1,0.0,0.0,0.0,0.1,0.0,0.0,0.0,0.1
1452011207851980373,322,1452011207849005937,robocape,6.23014440526,12.3914260522,11.357846594,0.0,10.0,0.0,0.0,0.0,10.0,0.0,0.0,0.0,10.0,-0.294146142399,-0.0135821215594,-0.0215716048296,1.0,0.0,0.0,0.0,1.0,0.0,0.0,0.0,1.0,-0.350870361328,3.8703515625,8.67236572266,0.1,0.0,0.0,0.0,0.1,0.0,0.0,0.0,0.1
1452011207884887831,323,1452011207882013082,robocape,5.28926092818,12.340940612,11.2844043366,0.0,10.0,0.0,0.0,0.0,10.0,0.0,0.0,0.0,10.0,-0.481632683141,-0.0211721306661,-0.0274305592278,1.0,0.0,0.0,0.0,1.0,0.0,0.0,0.0,1.0,-0.176033935547,2.95904663086,8.97294067383,0.1,0.0,0.0,0.0,0.1,0.0,0.0,0.0,0.1
1452011207918340790,324,1452011207915410995,robocape,4.20716986177,12.1983806421,11.1587627786,0.0,10.0,0.0,0.0,0.0,10.0,0.0,0.0,0.0,10.0,-0.550741713428,-0.0717721913776,-0.051265850984,1.0,0.0,0.0,0.0,1.0,0.0,0.0,0.0,1.0,0.370030517578,1.51963989258,9.51421508789,0.1,0.0,0.0,0.0,0.1,0.0,0.0,0.0,0.1
1452011207952427498,325,1452011207949198961,robocape,3.11527310772,12.0370683968,11.0508686469,0.0,10.0,0.0,0.0,0.0,10.0,0.0,0.0,0.0,10.0,-0.558598038644,-0.0796285165934,-0.0427437354958,1.0,0.0,0.0,0.0,1.0,0.0,0.0,0.0,1.0,-0.604742431641,-0.253872070313,10.3836071777,0.1,0.0,0.0,0.0,0.1,0.0,0.0,0.0,0.1
1452011207984903998,326,1452011207982027053,robocape,2.23552648374,11.8297518798,10.9232397449,0.0,10.0,0.0,0.0,0.0,10.0,0.0,0.0,0.0,10.0,-0.446079482588,-0.103197492241,-0.0529969056926,1.0,0.0,0.0,0.0,1.0,0.0,0.0,0.0,1.0,-0.0407153320313,-0.705333251953,10.0159716797,0.1,0.0,0.0,0.0,0.1,0.0,0.0,0.0,0.1
1452011208018210540,327,1452011208015286922,robocape,1.47513072468,11.6415242879,10.8781511938,0.0,10.0,0.0,0.0,0.0,10.0,0.0,0.0,0.0,10.0,-0.393082576896,-0.0902811609537,-0.0118510668509,1.0,0.0,0.0,0.0,1.0,0.0,0.0,0.0,1.0,0.0981958007813,-0.494571533203,10.2662512207,0.1,0.0,0.0,0.0,0.1,0.0,0.0,0.0,0.1
1452011208052272915,328,1452011208049148082,robocape,0.775066729316,11.448875544,10.8011125918,0.0,10.0,0.0,0.0,0.0,10.0,0.0,0.0,0.0,10.0,-0.358727798834,-0.0928111639893,-0.0294279300454,1.0,0.0,0.0,0.0,1.0,0.0,0.0,0.0,1.0,-0.159268798828,-0.621507568359,10.2925964355,0.1,0.0,0.0,0.0,0.1,0.0,0.0,0.0,0.1
1452011208084738665,329,1452011208081878900,robocape,0.0134153418231,11.2623234207,10.8222871475,0.0,10.0,0.0,0.0,0.0,10.0,0.0,0.0,0.0,10.0,-0.401871008493,-0.0882837901361,0.0203731823391,1.0,0.0,0.0,0.0,1.0,0.0,0.0,0.0,1.0,-0.225131835938,0.199984130859,9.92017089844,0.1,0.0,0.0,0.0,0.1,0.0,0.0,0.0,0.1
1452011208118753998,330,1452011208115680932,robocape,-0.856841077872,11.0131351719,10.7926274468,0.0,10.0,0.0,0.0,0.0,10.0,0.0,0.0,0.0,10.0,-0.454202123913,-0.121573303762,-0.00759000910673,1.0,0.0,0.0,0.0,1.0,0.0,0.0,0.0,1.0,-0.251477050781,-0.152083740234,10.2470910645,0.1,0.0,0.0,0.0,0.1,0.0,0.0,0.0,0.1
1452011208152279540,331,1452011208149077892,robocape,-1.7312928062,10.7377190774,10.7264811219,0.0,10.0,0.0,0.0,0.0,10.0,0.0,0.0,0.0,10.0,-0.45353633364,-0.134889109213,-0.0286289817184,1.0,0.0,0.0,0.0,1.0,0.0,0.0,0.0,1.0,0.484991455078,-1.23104003906,10.3788171387,0.1,0.0,0.0,0.0,0.1,0.0,0.0,0.0,0.1
1452011208185470248,332,1452011208182260990,robocape,-2.47935726183,10.4431933101,10.7273394081,0.0,10.0,0.0,0.0,0.0,10.0,0.0,0.0,0.0,10.0,-0.39468047355,-0.145541753573,0.00386158358061,1.0,0.0,0.0,0.0,1.0,0.0,0.0,0.0,1.0,0.874182128906,-2.2189855957,10.2614611816,0.1,0.0,0.0,0.0,0.1,0.0,0.0,0.0,0.1
1452011208218620415,333,1452011208215615987,robocape,-3.09358787135,10.2082657183,10.7152598723,0.0,10.0,0.0,0.0,0.0,10.0,0.0,0.0,0.0,10.0,-0.323973546608,-0.113983294655,-0.00279631914458,1.0,0.0,0.0,0.0,1.0,0.0,0.0,0.0,1.0,0.705333251953,-1.97948364258,10.6674169922,0.1,0.0,0.0,0.0,0.1,0.0,0.0,0.0,0.1
1452011208252151581,334,1452011208249223947,robocape,-3.64871821636,9.97409457114,10.736573049,0.0,10.0,0.0,0.0,0.0,10.0,0.0,0.0,0.0,10.0,-0.296676145435,-0.114515926873,0.0134489635049,1.0,0.0,0.0,0.0,1.0,0.0,0.0,0.0,1.0,0.676593017578,-1.60825561523,10.5033581543,0.1,0.0,0.0,0.0,0.1,0.0,0.0,0.0,0.1
1452011208289714998,335,1452011208286618947,robocape,-4.18241890674,9.74605502683,10.7401346989,0.0,10.0,0.0,0.0,0.0,10.0,0.0,0.0,0.0,10.0,-0.284292446366,-0.110920659402,0.0034621094171,1.0,0.0,0.0,0.0,1.0,0.0,0.0,0.0,1.0,0.750838623047,-1.84177001953,10.5536535645,0.1,0.0,0.0,0.0,0.1,0.0,0.0,0.0,0.1
1452011208318523581,336,1452011208315603971,robocape,-4.70495986841,9.5091571968,10.748579687,0.0,10.0,0.0,0.0,0.0,10.0,0.0,0.0,0.0,10.0,-0.279365598349,-0.115847507418,0.00466053190764,1.0,0.0,0.0,0.0,1.0,0.0,0.0,0.0,1.0,0.810714111328,-1.84656005859,10.6099365234,0.1,0.0,0.0,0.0,0.1,0.0,0.0,0.0,0.1
1452011208351966957,337,1452011208349066972,robocape,-5.23615874462,9.26107110114,10.7708915101,0.0,10.0,0.0,0.0,0.0,10.0,0.0,0.0,0.0,10.0,-0.285624026911,-0.122372252089,0.0103863282513,1.0,0.0,0.0,0.0,1.0,0.0,0.0,0.0,1.0,0.714913330078,-2.00942138672,10.4710253906,0.1,0.0,0.0,0.0,0.1,0.0,0.0,0.0,0.1
1452011208384831915,338,1452011208381962060,robocape,-5.83975603997,8.99956797492,10.7876110588,0.0,10.0,0.0,0.0,0.0,10.0,0.0,0.0,0.0,10.0,-0.323707230499,-0.129163312869,0.00585895439817,1.0,0.0,0.0,0.0,1.0,0.0,0.0,0.0,1.0,0.656235351563,-1.56035522461,10.5045556641,0.1,0.0,0.0,0.0,0.1,0.0,0.0,0.0,0.1
1452011208418721998,339,1452011208415798902,robocape,-6.52906074189,8.72139132428,10.8069798371,0.0,10.0,0.0,0.0,0.0,10.0,0.0,0.0,0.0,10.0,-0.369646759303,-0.137951744466,0.00519316412565,1.0,0.0,0.0,0.0,1.0,0.0,0.0,0.0,1.0,0.913699951172,-2.09204956055,10.6015539551,0.1,0.0,0.0,0.0,0.1,0.0,0.0,0.0,0.1
1452011208452462040,340,1452011208449137926,robocape,-7.30538783577,8.35907000753,10.8355507907,0.0,10.0,0.0,0.0,0.0,10.0,0.0,0.0,0.0,10.0,-0.416784710597,-0.18242653467,0.00306263525359,1.0,0.0,0.0,0.0,1.0,0.0,0.0,0.0,1.0,1.15799194336,-2.43573486328,10.3788171387,0.1,0.0,0.0,0.0,0.1,0.0,0.0,0.0,0.1
1452011208484800165,341,1452011208481941938,robocape,-8.08508618737,7.9859556016,10.8623450291,0.0,10.0,0.0,0.0,0.0,10.0,0.0,0.0,0.0,10.0,-0.419314713633,-0.18801917296,-0.000798948327024,1.0,0.0,0.0,0.0,1.0,0.0,0.0,0.0,1.0,1.31366821289,-3.15903076172,10.4470751953,0.1,0.0,0.0,0.0,0.1,0.0,0.0,0.0,0.1
1452011208519297290,342,1452011208516241073,robocape,-8.8655200115,7.63256028587,10.9051854344,0.0,10.0,0.0,0.0,0.0,10.0,0.0,0.0,0.0,10.0,-0.421977874723,-0.178964425253,0.00692421883421,1.0,0.0,0.0,0.0,1.0,0.0,0.0,0.0,1.0,1.68609375,-3.50750610352,10.4123474121,0.1,0.0,0.0,0.0,0.1,0.0,0.0,0.0,0.1
1452011208552361748,343,1452011208549228906,robocape,-9.62022029829,7.28317693587,10.9414360324,0.0,10.0,0.0,0.0,0.0,10.0,0.0,0.0,0.0,10.0,-0.408928385382,-0.176567580272,0.00173105470855,1.0,0.0,0.0,0.0,1.0,0.0,0.0,0.0,1.0,1.66693359375,-3.86316650391,10.5249133301,0.1,0.0,0.0,0.0,0.1,0.0,0.0,0.0,0.1
1452011208585014498,344,1452011208582146883,robocape,-10.3710005437,6.94354187804,11.0051586582,0.0,10.0,0.0,0.0,0.0,10.0,0.0,0.0,0.0,10.0,-0.409860491763,-0.174037577237,0.0149137021044,1.0,0.0,0.0,0.0,1.0,0.0,0.0,0.0,1.0,1.77830200195,-3.99249755859,10.3153491211,0.1,0.0,0.0,0.0,0.1,0.0,0.0,0.0,0.1
1452011208618845915,345,1452011208615869045,robocape,-11.1151326927,6.60739976529,11.0522810993,0.0,10.0,0.0,0.0,0.0,10.0,0.0,0.0,0.0,10.0,-0.406265224292,-0.170974941983,0.00479368996214,1.0,0.0,0.0,0.0,1.0,0.0,0.0,0.0,1.0,1.85135009766,-4.53377197266,10.5081481934,0.1,0.0,0.0,0.0,0.1,0.0,0.0,0.0,0.1
1452011208652342540,346,1452011208649161100,robocape,-11.8233888953,6.29314657197,11.1135880483,0.0,10.0,0.0,0.0,0.0,10.0,0.0,0.0,0.0,10.0,-0.38935415137,-0.161387562059,0.0125168571234,1.0,0.0,0.0,0.0,1.0,0.0,0.0,0.0,1.0,2.12078979492,-4.50503173828,10.1465002441,0.1,0.0,0.0,0.0,0.1,0.0,0.0,0.0,0.1
1452011208685447040,347,1452011208682303905,robocape,-12.5221232631,5.98386057489,11.1488147465,0.0,10.0,0.0,0.0,0.0,10.0,0.0,0.0,0.0,10.0,-0.38376151308,-0.156327555988,-0.00199737081756,1.0,0.0,0.0,0.0,1.0,0.0,0.0,0.0,1.0,2.13635742188,-4.65232543945,10.4614453125,0.1,0.0,0.0,0.0,0.1,0.0,0.0,0.0,0.1
1452011208718912623,348,1452011208715964078,robocape,-13.2403322949,5.65407171422,11.2265971188,0.0,10.0,0.0,0.0,0.0,10.0,0.0,0.0,0.0,10.0,-0.397743108803,-0.17177389031,0.0159789665405,1.0,0.0,0.0,0.0,1.0,0.0,0.0,0.0,1.0,1.9543359375,-4.60083251953,10.0662670898,0.1,0.0,0.0,0.0,0.1,0.0,0.0,0.0,0.1
1452011208752122082,349,1452011208749198913,robocape,-14.0555117404,5.29698143038,11.3207400913,0.0,10.0,0.0,0.0,0.0,10.0,0.0,0.0,0.0,10.0,-0.451405804768,-0.187886014905,0.0197073920666,1.0,0.0,0.0,0.0,1.0,0.0,0.0,0.0,1.0,1.97708862305,-4.87745727539,10.1153649902,0.1,0.0,0.0,0.0,0.1,0.0,0.0,0.0,0.1
1452011208784852915,350,1452011208781950950,robocape,-14.8451109235,4.92040529551,11.3418707302,0.0,10.0,0.0,0.0,0.0,10.0,0.0,0.0,0.0,10.0,-0.435160522119,-0.188951279341,-0.0225037112112,1.0,0.0,0.0,0.0,1.0,0.0,0.0,0.0,1.0,2.70277954102,-5.98754882812,9.98244140625,0.1,0.0,0.0,0.0,0.1,0.0,0.0,0.0,0.1
1452011208818530123,351,1452011208815619945,robocape,-15.5493170474,4.57517586178,11.3389205736,0.0,10.0,0.0,0.0,0.0,10.0,0.0,0.0,0.0,10.0,-0.390019941642,-0.169909677547,-0.033023197517,1.0,0.0,0.0,0.0,1.0,0.0,0.0,0.0,1.0,2.91833129883,-6.71443725586,10.0087866211,0.1,0.0,0.0,0.0,0.1,0.0,0.0,0.0,0.1
1452011208852260498,352,1452011208848819017,robocape,-16.1541923561,4.29750693307,11.2871790685,0.0,10.0,0.0,0.0,0.0,10.0,0.0,0.0,0.0,10.0,-0.336224087623,-0.12889699676,-0.0503337446025,1.0,0.0,0.0,0.0,1.0,0.0,0.0,0.0,1.0,2.91952880859,-6.63779663086,9.77407470703,0.1,0.0,0.0,0.0,0.1,0.0,0.0,0.0,0.1
1452011208885122790,353,1452011208882045030,robocape,-16.5824474297,4.05095708299,11.1930843841,0.0,10.0,0.0,0.0,0.0,10.0,0.0,0.0,0.0,10.0,-0.241016078652,-0.107059075821,-0.0695085044511,1.0,0.0,0.0,0.0,1.0,0.0,0.0,0.0,1.0,2.94826904297,-7.09644287109,10.0578845215,0.1,0.0,0.0,0.0,0.1,0.0,0.0,0.0,0.1
1452011208918389332,354,1452011208915463924,robocape,-16.9063616838,3.83542315008,11.082055246,0.0,10.0,0.0,0.0,0.0,10.0,0.0,0.0,0.0,10.0,-0.18535601187,-0.0888164223541,-0.0748348266312,1.0,0.0,0.0,0.0,1.0,0.0,0.0,0.0,1.0,3.01053955078,-6.50846557617,9.60283081055,0.1,0.0,0.0,0.0,0.1,0.0,0.0,0.0,0.1
1452011208952400123,355,1452011208948813915,robocape,-17.2521277852,3.63631248084,11.0017378871,0.0,10.0,0.0,0.0,0.0,10.0,0.0,0.0,0.0,10.0,-0.199204449538,-0.0849548387735,-0.0571248053822,1.0,0.0,0.0,0.0,1.0,0.0,0.0,0.0,1.0,2.83450561523,-6.4761328125,9.84712280273,0.1,0.0,0.0,0.0,0.1,0.0,0.0,0.0,0.1
1452011208985081998,356,1452011208982034921,robocape,-17.5482178629,3.3978032914,10.9474626235,0.0,10.0,0.0,0.0,0.0,10.0,0.0,0.0,0.0,10.0,-0.174170735291,-0.108656972475,-0.0511326929295,1.0,0.0,0.0,0.0,1.0,0.0,0.0,0.0,1.0,2.85845581055,-7.80177612305,10.6087390137,0.1,0.0,0.0,0.0,0.1,0.0,0.0,0.0,0.1
1452011209018292082,357,1452011209015379905,robocape,-17.5698489052,3.23038626872,11.1202020107,0.0,10.0,0.0,0.0,0.0,10.0,0.0,0.0,0.0,10.0,-0.0362189908251,-0.109189604693,0.0723048235957,1.0,0.0,0.0,0.0,1.0,0.0,0.0,0.0,1.0,4.45832885742,-7.94787231445,8.76098144531,0.1,0.0,0.0,0.0,0.1,0.0,0.0,0.0,0.1
1452011209055073332,358,1452011209051908016,robocape,-17.4133699737,3.35641669951,11.0846558897,0.0,10.0,0.0,0.0,0.0,10.0,0.0,0.0,0.0,10.0,0.0664458691975,0.0700411366691,0.0129163312869,1.0,0.0,0.0,0.0,1.0,0.0,0.0,0.0,1.0,3.96974487305,-7.75267822266,9.20885009766,0.1,0.0,0.0,0.0,0.1,0.0,0.0,0.0,0.1
1452011209084959957,359,1452011209082098960,robocape,-17.0429582761,3.55664756029,10.9940920773,0.0,10.0,0.0,0.0,0.0,10.0,0.0,0.0,0.0,10.0,0.183491799106,0.115581191309,-0.00532632218016,1.0,0.0,0.0,0.0,1.0,0.0,0.0,0.0,1.0,2.92910888672,-7.91793457031,10.0351318359,0.1,0.0,0.0,0.0,0.1,0.0,0.0,0.0,0.1
1452011209118687957,360,1452011209115581989,robocape,-16.6276080171,3.74822264465,10.9738079487,0.0,10.0,0.0,0.0,0.0,10.0,0.0,0.0,0.0,10.0,0.205196561991,0.100667489205,0.0276968753368,1.0,0.0,0.0,0.0,1.0,0.0,0.0,0.0,1.0,2.67284179688,-6.58151367188,9.78365478516,0.1,0.0,0.0,0.0,0.1,0.0,0.0,0.0,0.1
1452011209152428165,361,1452011209148859024,robocape,-16.1785905638,3.93253253439,10.8613581479,0.0,10.0,0.0,0.0,0.0,10.0,0.0,0.0,0.0,10.0,0.227567115147,0.110787501347,-0.0211721306661,1.0,0.0,0.0,0.0,1.0,0.0,0.0,0.0,1.0,3.07520507813,-6.53361328125,9.87825805664,0.1,0.0,0.0,0.0,0.1,0.0,0.0,0.0,0.1
1452011209185564665,362,1452011209182559967,robocape,-15.6502386117,4.1464275942,10.7249547538,0.0,10.0,0.0,0.0,0.0,10.0,0.0,0.0,0.0,10.0,0.271509273134,0.12889699676,-0.0306263525359,1.0,0.0,0.0,0.0,1.0,0.0,0.0,0.0,1.0,3.76018066406,-6.91082885742,9.96328125,0.1,0.0,0.0,0.0,0.1,0.0,0.0,0.0,0.1
1452011209218674832,363,1452011209215692996,robocape,-14.9741720524,4.44746501901,10.5977737948,0.0,10.0,0.0,0.0,0.0,10.0,0.0,0.0,0.0,10.0,0.3503388414,0.171241258092,-0.016112124595,1.0,0.0,0.0,0.0,1.0,0.0,0.0,0.0,1.0,4.25954223633,-7.42456054688,9.90340576172,0.1,0.0,0.0,0.0,0.1,0.0,0.0,0.0,0.1
1452011209252204874,364,1452011209248738050,robocape,-14.0298271831,4.89879867904,10.4185987477,0.0,10.0,0.0,0.0,0.0,10.0,0.0,0.0,0.0,10.0,0.496146911082,0.25366609383,-0.0267647689553,1.0,0.0,0.0,0.0,1.0,0.0,0.0,0.0,1.0,3.55420898438,-7.77662841797,10.0710571289,0.1,0.0,0.0,0.0,0.1,0.0,0.0,0.0,0.1
1452011209284971582,365,1452011209282075881,robocape,-12.7492812877,5.48935386592,10.2498978505,0.0,10.0,0.0,0.0,0.0,10.0,0.0,0.0,0.0,10.0,0.674845020226,0.322375649954,-0.0109189604693,1.0,0.0,0.0,0.0,1.0,0.0,0.0,0.0,1.0,3.47756835938,-7.32875976563,9.79682739258,0.1,0.0,0.0,0.0,0.1,0.0,0.0,0.0,0.1
1452011209318407207,366,1452011209315429925,robocape,-11.290101929,6.18107427303,10.074895056,0.0,10.0,0.0,0.0,0.0,10.0,0.0,0.0,0.0,10.0,0.770319345305,0.37457360732,-0.0109189604693,1.0,0.0,0.0,0.0,1.0,0.0,0.0,0.0,1.0,3.26560913086,-5.518125,9.92376342773,0.1,0.0,0.0,0.0,0.1,0.0,0.0,0.0,0.1
1452011209352321832,367,1452011209348754882,robocape,-9.69080552239,6.91107516877,9.88521883229,0.0,10.0,0.0,0.0,0.0,10.0,0.0,0.0,0.0,10.0,0.845953120264,0.395479421877,-0.0245010820287,1.0,0.0,0.0,0.0,1.0,0.0,0.0,0.0,1.0,0.943637695313,-4.61041259766,9.43517944336,0.1,0.0,0.0,0.0,0.1,0.0,0.0,0.0,0.1
1452011209384893790,368,1452011209382020950,robocape,-8.18719903426,7.66601835059,9.72528635876,0.0,10.0,0.0,0.0,0.0,10.0,0.0,0.0,0.0,10.0,0.794154637062,0.406398382346,-0.016112124595,1.0,0.0,0.0,0.0,1.0,0.0,0.0,0.0,1.0,1.76033935547,-4.21283935547,9.94052856445,0.1,0.0,0.0,0.0,0.1,0.0,0.0,0.0,0.1
1452011209418382790,369,1452011209415458917,robocape,-6.69181172694,8.43905326462,9.59504935994,0.0,10.0,0.0,0.0,0.0,10.0,0.0,0.0,0.0,10.0,0.788561998772,0.414387865616,-0.00892158965177,1.0,0.0,0.0,0.0,1.0,0.0,0.0,0.0,1.0,1.29450805664,-3.24165893555,10.1836230469,0.1,0.0,0.0,0.0,0.1,0.0,0.0,0.0,0.1
1452011209452507374,370,1452011209448874950,robocape,-5.15233260834,9.18899937302,9.50813073709,0.0,10.0,0.0,0.0,0.0,10.0,0.0,0.0,0.0,10.0,0.809334655275,0.400805744057,0.00226368692657,1.0,0.0,0.0,0.0,1.0,0.0,0.0,0.0,1.0,1.46335693359,-3.065625,10.0351318359,0.1,0.0,0.0,0.0,0.1,0.0,0.0,0.0,0.1
1452011209484873374,371,1452011209482014894,robocape,-3.57672448253,9.98996394561,9.41709575554,0.0,10.0,0.0,0.0,0.0,10.0,0.0,0.0,0.0,10.0,0.829707837614,0.429035251612,-0.00745685105222,1.0,0.0,0.0,0.0,1.0,0.0,0.0,0.0,1.0,1.23583007813,-2.61057128906,9.68306396484,0.1,0.0,0.0,0.0,0.1,0.0,0.0,0.0,0.1
1452011209518521582,372,1452011209515594959,robocape,-1.96236749402,10.8124738371,9.35215995871,0.0,10.0,0.0,0.0,0.0,10.0,0.0,0.0,0.0,10.0,0.849015755517,0.441152634572,-0.00399474163512,1.0,0.0,0.0,0.0,1.0,0.0,0.0,0.0,1.0,0.859812011719,-1.40946899414,10.2219433594,0.1,0.0,0.0,0.0,0.1,0.0,0.0,0.0,0.1
1452011209551933790,373,1452011209548804998,robocape,-0.424774217366,11.4014282619,9.50831063159,0.0,10.0,0.0,0.0,0.0,10.0,0.0,0.0,0.0,10.0,0.788029366554,0.317981434155,0.0964064314609,1.0,0.0,0.0,0.0,1.0,0.0,0.0,0.0,1.0,-0.8813671875,0.451461181641,10.1453027344,0.1,0.0,0.0,0.0,0.1,0.0,0.0,0.0,0.1
1452011209585663582,374,1452011209582637071,robocape,0.859219676992,11.7854315265,9.52523782774,0.0,10.0,0.0,0.0,0.0,10.0,0.0,0.0,0.0,10.0,0.670450804427,0.212653413043,0.0173105470855,1.0,0.0,0.0,0.0,1.0,0.0,0.0,0.0,1.0,-0.740061035156,1.19990478516,9.82317260742,0.1,0.0,0.0,0.0,0.1,0.0,0.0,0.0,0.1
1452011209618569082,375,1452011209615559101,robocape,1.92067045735,12.0684274608,9.6027888,0.0,10.0,0.0,0.0,0.0,10.0,0.0,0.0,0.0,10.0,0.548344868447,0.161653878168,0.0459395288039,1.0,0.0,0.0,0.0,1.0,0.0,0.0,0.0,1.0,-0.560434570312,0.508941650391,9.86987548828,0.1,0.0,0.0,0.0,0.1,0.0,0.0,0.0,0.1
1452011209652098915,376,1452011209648828983,robocape,2.87157889401,12.3106442655,9.5550585589,0.0,10.0,0.0,0.0,0.0,10.0,0.0,0.0,0.0,10.0,0.505068500734,0.13835121863,-0.0202400242846,1.0,0.0,0.0,0.0,1.0,0.0,0.0,0.0,1.0,0.119750976563,-0.488583984375,10.0291442871,0.1,0.0,0.0,0.0,0.1,0.0,0.0,0.0,0.1
1452011209685360874,377,1452011209682389974,robocape,3.77991315858,12.5444761905,9.68804493695,0.0,10.0,0.0,0.0,0.0,10.0,0.0,0.0,0.0,10.0,0.463656345783,0.140481747502,0.0712395591596,1.0,0.0,0.0,0.0,1.0,0.0,0.0,0.0,1.0,-0.302969970703,0.946032714844,9.72497680664,0.1,0.0,0.0,0.0,0.1,0.0,0.0,0.0,0.1
1452011209718979915,378,1452011209715909004,robocape,4.57391769958,12.715180635,9.78925690186,0.0,10.0,0.0,0.0,0.0,10.0,0.0,0.0,0.0,10.0,0.407996279,0.10732539193,0.0553937506736,1.0,0.0,0.0,0.0,1.0,0.0,0.0,0.0,1.0,-0.167651367188,1.56275024414,9.55852294922,0.1,0.0,0.0,0.0,0.1,0.0,0.0,0.0,0.1
1452011209751922999,379,1452011209748706102,robocape,5.24575398116,12.841523909,9.87272892093,0.0,10.0,0.0,0.0,0.0,10.0,0.0,0.0,0.0,10.0,0.346610415874,0.084022732392,0.0470047932399,1.0,0.0,0.0,0.0,1.0,0.0,0.0,0.0,1.0,-0.473016357422,1.65735351563,9.76329711914,0.1,0.0,0.0,0.0,0.1,0.0,0.0,0.0,0.1
1452011209784993707,380,1452011209782046079,robocape,5.85796388055,12.9189395556,9.91281796695,0.0,10.0,0.0,0.0,0.0,10.0,0.0,0.0,0.0,10.0,0.320910911355,0.0565921731642,0.0263652947918,1.0,0.0,0.0,0.0,1.0,0.0,0.0,0.0,1.0,-0.00718505859375,0.910107421875,9.74653198242,0.1,0.0,0.0,0.0,0.1,0.0,0.0,0.0,0.1
1452011209818599874,381,1452011209815677881,robocape,6.52490181548,13.0024276536,9.98467315602,0.0,10.0,0.0,0.0,0.0,10.0,0.0,0.0,0.0,10.0,0.346743573928,0.0624511275624,0.0420779452233,1.0,0.0,0.0,0.0,1.0,0.0,0.0,0.0,1.0,-0.0874182128906,0.640667724609,9.93573852539,0.1,0.0,0.0,0.0,0.1,0.0,0.0,0.0,0.1
1452011209852026874,382,1452011209848845958,robocape,7.28576457998,13.0803043705,10.0554942596,0.0,10.0,0.0,0.0,0.0,10.0,0.0,0.0,0.0,10.0,0.397077318531,0.0605869147993,0.0416784710597,1.0,0.0,0.0,0.0,1.0,0.0,0.0,0.0,1.0,0.00359252929688,1.07775878906,9.53577026367,0.1,0.0,0.0,0.0,0.1,0.0,0.0,0.0,0.1
1452011209885503499,383,1452011209882483959,robocape,8.05060281536,13.1553166545,10.1438450869,0.0,10.0,0.0,0.0,0.0,10.0,0.0,0.0,0.0,10.0,0.398142582967,0.0613858631263,0.050466902657,1.0,0.0,0.0,0.0,1.0,0.0,0.0,0.0,1.0,-0.086220703125,1.84895507813,9.47948730469,0.1,0.0,0.0,0.0,0.1,0.0,0.0,0.0,0.1
1452011209918658207,384,1452011209915705919,robocape,8.80234013835,13.1755991081,10.1989421873,0.0,10.0,0.0,0.0,0.0,10.0,0.0,0.0,0.0,10.0,0.396012054095,0.0310258266994,0.0371510972066,1.0,0.0,0.0,0.0,1.0,0.0,0.0,0.0,1.0,-0.276624755859,2.46567260742,9.06514892578,0.1,0.0,0.0,0.0,0.1,0.0,0.0,0.0,0.1
1452011209952053416,385,1452011209948858976,robocape,9.46771687337,13.2124975106,10.2459665818,0.0,10.0,0.0,0.0,0.0,10.0,0.0,0.0,0.0,10.0,0.352602528326,0.0395479421877,0.0315584589174,1.0,0.0,0.0,0.0,1.0,0.0,0.0,0.0,1.0,-0.100590820313,2.38543945313,8.79930175781,0.1,0.0,0.0,0.0,0.1,0.0,0.0,0.0,0.1
1452011209985581707,386,1452011209982539892,robocape,10.074573723,13.2734074376,10.2990444956,0.0,10.0,0.0,0.0,0.0,10.0,0.0,0.0,0.0,10.0,0.322109333845,0.0531300637471,0.0323574072445,1.0,0.0,0.0,0.0,1.0,0.0,0.0,0.0,1.0,-0.237106933594,2.41896972656,9.0855065918,0.1,0.0,0.0,0.0,0.1,0.0,0.0,0.0,0.1
1452011210018861166,387,1452011210015841007,robocape,10.6988775342,13.2925244381,10.3347068579,0.0,10.0,0.0,0.0,0.0,10.0,0.0,0.0,0.0,10.0,0.33409355875,0.0303600364269,0.0271642431188,1.0,0.0,0.0,0.0,1.0,0.0,0.0,0.0,1.0,-0.0215551757813,2.24293579102,9.13220947266,0.1,0.0,0.0,0.0,0.1,0.0,0.0,0.0,0.1
1452011210051955416,388,1452011210048645019,robocape,11.4419122667,13.3230796778,10.3878035635,0.0,10.0,0.0,0.0,0.0,10.0,0.0,0.0,0.0,10.0,0.39587889604,0.0394147841332,0.0352868844435,1.0,0.0,0.0,0.0,1.0,0.0,0.0,0.0,1.0,0.0167651367188,1.80943725586,8.98491577148,0.1,0.0,0.0,0.0,0.1,0.0,0.0,0.0,0.1
1452011210090685291,389,1452011210087768077,robocape,12.2666458388,13.3643407551,10.452359777,0.0,10.0,0.0,0.0,0.0,10.0,0.0,0.0,0.0,10.0,0.439155263754,0.0476705835124,0.0402137324602,1.0,0.0,0.0,0.0,1.0,0.0,0.0,0.0,1.0,-0.217946777344,2.69679199219,8.72385864258,0.1,0.0,0.0,0.0,0.1,0.0,0.0,0.0,0.1
1452011210118838874,390,1452011210115818977,robocape,12.9806917086,13.4287814019,10.3841988124,0.0,10.0,0.0,0.0,0.0,10.0,0.0,0.0,0.0,10.0,0.397743108803,0.0446079482588,-0.0294279300454,1.0,0.0,0.0,0.0,1.0,0.0,0.0,0.0,1.0,0.047900390625,4.02483032227,8.02092041016,0.1,0.0,0.0,0.0,0.1,0.0,0.0,0.0,0.1
1452011210152104457,391,1452011210148736000,robocape,13.5760976399,13.4486811257,10.443420786,0.0,10.0,0.0,0.0,0.0,10.0,0.0,0.0,0.0,10.0,0.320910911355,0.0364853069341,0.0387489938607,1.0,0.0,0.0,0.0,1.0,0.0,0.0,0.0,1.0,-0.404758300781,4.06674316406,8.08319091797,0.1,0.0,0.0,0.0,0.1,0.0,0.0,0.0,0.1
