%time,field.header.seq,field.header.stamp,field.header.frame_id,field.orientation.x,field.orientation.y,field.orientation.z,field.orientation.w,field.orientation_covariance0,field.orientation_covariance1,field.orientation_covariance2,field.orientation_covariance3,field.orientation_covariance4,field.orientation_covariance5,field.orientation_covariance6,field.orientation_covariance7,field.orientation_covariance8,field.angular_velocity.x,field.angular_velocity.y,field.angular_velocity.z,field.angular_velocity_covariance0,field.angular_velocity_covariance1,field.angular_velocity_covariance2,field.angular_velocity_covariance3,field.angular_velocity_covariance4,field.angular_velocity_covariance5,field.angular_velocity_covariance6,field.angular_velocity_covariance7,field.angular_velocity_covariance8,field.linear_acceleration.x,field.linear_acceleration.y,field.linear_acceleration.z,field.linear_acceleration_covariance0,field.linear_acceleration_covariance1,field.linear_acceleration_covariance2,field.linear_acceleration_covariance3,field.linear_acceleration_covariance4,field.linear_acceleration_covariance5,field.linear_acceleration_covariance6,field.linear_acceleration_covariance7,field.linear_acceleration_covariance8
1452010576491775989,1,1452010576488401889,robocape,5.67222206668,-4.03547134043,-13.8758018872,0.0,10.0,0.0,0.0,0.0,10.0,0.0,0.0,0.0,10.0,0.00372842552611,0.0119842249054,0.00359526747161,1.0,0.0,0.0,0.0,1.0,0.0,0.0,0.0,1.0,0.298179931641,-0.680185546875,10.4722229004,0.1,0.0,0.0,0.0,0.1,0.0,0.0,0.0,0.1
1452010576520381614,2,1452010576517311096,robocape,5.66780671965,-4.00774422158,-13.8430253699,0.0,10.0,0.0,0.0,0.0,10.0,0.0,0.0,0.0,10.0,0.0033289513626,0.0121173829599,0.00386158358061,1.0,0.0,0.0,0.0,1.0,0.0,0.0,0.0,1.0,0.310155029297,-0.689765625,10.4614453125,0.1,0.0,0.0,0.0,0.1,0.0,0.0,0.0,0.1
1452010576552913280,3,1452010576549813985,robocape,5.66291568338,-3.98081983926,-13.8104007474,0.0,10.0,0.0,0.0,0.0,10.0,0.0,0.0,0.0,10.0,0.00306263525359,0.0117179087963,0.00386158358061,1.0,0.0,0.0,0.0,1.0,0.0,0.0,0.0,1.0,0.299377441406,-0.684975585938,10.4351000977,0.1,0.0,0.0,0.0,0.1,0.0,0.0,0.0,0.1
1452010576587932197,4,1452010576584588050,robocape,5.65856019363,-3.95419092491,-13.7778741049,0.0,10.0,0.0,0.0,0.0,10.0,0.0,0.0,0.0,10.0,0.0033289513626,0.0115847507418,0.00386158358061,1.0,0.0,0.0,0.0,1.0,0.0,0.0,0.0,1.0,0.288599853516,-0.698148193359,10.4506677246,0.1,0.0,0.0,0.0,0.1,0.0,0.0,0.0,0.1
1452010576620556405,5,1452010576617566108,robocape,5.65347263525,-3.92785835383,-13.7454518962,0.0,10.0,0.0,0.0,0.0,10.0,0.0,0.0,0.0,10.0,0.00292947719909,0.0114515926873,0.00386158358061,1.0,0.0,0.0,0.0,1.0,0.0,0.0,0.0,1.0,0.302969970703,-0.686173095703,10.4722229004,0.1,0.0,0.0,0.0,0.1,0.0,0.0,0.0,0.1
1452010576652672530,6,1452010576649554014,robocape,5.6486616869,-3.90055843001,-13.7130091901,0.0,10.0,0.0,0.0,0.0,10.0,0.0,0.0,0.0,10.0,0.00306263525359,0.0119842249054,0.00386158358061,1.0,0.0,0.0,0.0,1.0,0.0,0.0,0.0,1.0,0.311352539063,-0.684975585938,10.4770129395,0.1,0.0,0.0,0.0,0.1,0.0,0.0,0.0,0.1
1452010576687480447,7,1452010576684137105,robocape,5.64438820957,-3.87405920851,-13.6807112847,0.0,10.0,0.0,0.0,0.0,10.0,0.0,0.0,0.0,10.0,0.0033289513626,0.0115847507418,0.00386158358061,1.0,0.0,0.0,0.0,1.0,0.0,0.0,0.0,1.0,0.301772460938,-0.683778076172,10.459050293,0.1,0.0,0.0,0.0,0.1,0.0,0.0,0.0,0.1
1452010576719286072,8,1452010576716337919,robocape,5.63960122558,-3.84715005175,-13.6479445701,0.0,10.0,0.0,0.0,0.0,10.0,0.0,0.0,0.0,10.0,0.00306263525359,0.0118510668509,0.00412789968962,1.0,0.0,0.0,0.0,1.0,0.0,0.0,0.0,1.0,0.299377441406,-0.689765625,10.4542602539,0.1,0.0,0.0,0.0,0.1,0.0,0.0,0.0,0.1
1452010576752149197,9,1452010576748966932,robocape,5.63514334701,-3.82071142692,-13.6160494733,0.0,10.0,0.0,0.0,0.0,10.0,0.0,0.0,0.0,10.0,0.0031957933081,0.0115847507418,0.00372842552611,1.0,0.0,0.0,0.0,1.0,0.0,0.0,0.0,1.0,0.308957519531,-0.695753173828,10.4482727051,0.1,0.0,0.0,0.0,0.1,0.0,0.0,0.0,0.1
1452010576784219030,10,1452010576781286001,robocape,5.62993753758,-3.79459419073,-13.5840069728,0.0,10.0,0.0,0.0,0.0,10.0,0.0,0.0,0.0,10.0,0.00279631914458,0.0114515926873,0.00386158358061,1.0,0.0,0.0,0.0,1.0,0.0,0.0,0.0,1.0,0.298179931641,-0.693358154297,10.4698278809,0.1,0.0,0.0,0.0,0.1,0.0,0.0,0.0,0.1
1452010576817666697,11,1452010576814569950,robocape,5.62428068956,-3.76796292044,-13.5524938656,0.0,10.0,0.0,0.0,0.0,10.0,0.0,0.0,0.0,10.0,0.00253000303558,0.0117179087963,0.00359526747161,1.0,0.0,0.0,0.0,1.0,0.0,0.0,0.0,1.0,0.289797363281,-0.696950683594,10.4626428223,0.1,0.0,0.0,0.0,0.1,0.0,0.0,0.0,0.1
1452010576850768780,12,1452010576847623109,robocape,5.61939455105,-3.74089413063,-13.5207531784,0.0,10.0,0.0,0.0,0.0,10.0,0.0,0.0,0.0,10.0,0.00292947719909,0.0119842249054,0.00372842552611,1.0,0.0,0.0,0.0,1.0,0.0,0.0,0.0,1.0,0.300574951172,-0.683778076172,10.4554577637,0.1,0.0,0.0,0.0,0.1,0.0,0.0,0.0,0.1
1452010576883866405,13,1452010576880816936,robocape,5.61425425383,-3.714424901,-13.4886358305,0.0,10.0,0.0,0.0,0.0,10.0,0.0,0.0,0.0,10.0,0.00279631914458,0.0117179087963,0.00399474163512,1.0,0.0,0.0,0.0,1.0,0.0,0.0,0.0,1.0,0.3065625,-0.677790527344,10.4398901367,0.1,0.0,0.0,0.0,0.1,0.0,0.0,0.0,0.1
1452010576917512947,14,1452010576914340972,robocape,5.60840997185,-3.68769479368,-13.4570728977,0.0,10.0,0.0,0.0,0.0,10.0,0.0,0.0,0.0,10.0,0.00239684498107,0.0118510668509,0.00372842552611,1.0,0.0,0.0,0.0,1.0,0.0,0.0,0.0,1.0,0.300574951172,-0.686173095703,10.4398901367,0.1,0.0,0.0,0.0,0.1,0.0,0.0,0.0,0.1
1452010576950253905,15,1452010576947249889,robocape,5.60387716773,-3.66148511345,-13.4258737749,0.0,10.0,0.0,0.0,0.0,10.0,0.0,0.0,0.0,10.0,0.00306263525359,0.0115847507418,0.00359526747161,1.0,0.0,0.0,0.0,1.0,0.0,0.0,0.0,1.0,0.304167480469,-0.686173095703,10.463840332,0.1,0.0,0.0,0.0,0.1,0.0,0.0,0.0,0.1
1452010576983600072,16,1452010576980488061,robocape,5.5993386282,-3.63486339186,-13.3941996542,0.0,10.0,0.0,0.0,0.0,10.0,0.0,0.0,0.0,10.0,0.00306263525359,0.0118510668509,0.00386158358061,1.0,0.0,0.0,0.0,1.0,0.0,0.0,0.0,1.0,0.304167480469,-0.688568115234,10.4542602539,0.1,0.0,0.0,0.0,0.1,0.0,0.0,0.0,0.1
1452010577017130739,17,1452010577013989925,robocape,5.59457170551,-3.60803177004,-13.3625760556,0.0,10.0,0.0,0.0,0.0,10.0,0.0,0.0,0.0,10.0,0.00292947719909,0.0119842249054,0.00386158358061,1.0,0.0,0.0,0.0,1.0,0.0,0.0,0.0,1.0,0.293389892578,-0.677790527344,10.463840332,0.1,0.0,0.0,0.0,0.1,0.0,0.0,0.0,0.1
1452010577050365155,18,1452010577047039031,robocape,5.5905930211,-3.58174693453,-13.3310683901,0.0,10.0,0.0,0.0,0.0,10.0,0.0,0.0,0.0,10.0,0.0033289513626,0.0117179087963,0.00386158358061,1.0,0.0,0.0,0.0,1.0,0.0,0.0,0.0,1.0,0.307760009766,-0.690963134766,10.4422851563,0.1,0.0,0.0,0.0,0.1,0.0,0.0,0.0,0.1
1452010577083493322,19,1452010577080384969,robocape,5.58616087367,-3.55545347127,-13.300134853,0.0,10.0,0.0,0.0,0.0,10.0,0.0,0.0,0.0,10.0,0.00306263525359,0.0117179087963,0.00359526747161,1.0,0.0,0.0,0.0,1.0,0.0,0.0,0.0,1.0,0.300574951172,-0.687370605469,10.479407959,0.1,0.0,0.0,0.0,0.1,0.0,0.0,0.0,0.1
1452010577118477531,20,1452010577115300893,robocape,5.58174056254,-3.52947959444,-13.2690459538,0.0,10.0,0.0,0.0,0.0,10.0,0.0,0.0,0.0,10.0,0.00306263525359,0.0115847507418,0.00372842552611,1.0,0.0,0.0,0.0,1.0,0.0,0.0,0.0,1.0,0.301772460938,-0.681383056641,10.4734204102,0.1,0.0,0.0,0.0,0.1,0.0,0.0,0.0,0.1
1452010577150451406,21,1452010577147192955,robocape,5.5773021024,-3.50337053103,-13.2372548564,0.0,10.0,0.0,0.0,0.0,10.0,0.0,0.0,0.0,10.0,0.00306263525359,0.0117179087963,0.00412789968962,1.0,0.0,0.0,0.0,1.0,0.0,0.0,0.0,1.0,0.304167480469,-0.684975585938,10.4554577637,0.1,0.0,0.0,0.0,0.1,0.0,0.0,0.0,0.1
1452010577183760822,22,1452010577180716991,robocape,5.57318127766,-3.47646887761,-13.2062130284,0.0,10.0,0.0,0.0,0.0,10.0,0.0,0.0,0.0,10.0,0.0031957933081,0.0121173829599,0.00372842552611,1.0,0.0,0.0,0.0,1.0,0.0,0.0,0.0,1.0,0.300574951172,-0.692160644531,10.4530627441,0.1,0.0,0.0,0.0,0.1,0.0,0.0,0.0,0.1
1452010577217316864,23,1452010577214299917,robocape,5.56880608934,-3.45016564568,-13.1747907217,0.0,10.0,0.0,0.0,0.0,10.0,0.0,0.0,0.0,10.0,0.00306263525359,0.0118510668509,0.00399474163512,1.0,0.0,0.0,0.0,1.0,0.0,0.0,0.0,1.0,0.290994873047,-0.695753173828,10.4518652344,0.1,0.0,0.0,0.0,0.1,0.0,0.0,0.0,0.1
1452010577250275447,24,1452010577247272968,robocape,5.56396305948,-3.42387890725,-13.1436921464,0.0,10.0,0.0,0.0,0.0,10.0,0.0,0.0,0.0,10.0,0.00279631914458,0.0118510668509,0.00386158358061,1.0,0.0,0.0,0.0,1.0,0.0,0.0,0.0,1.0,0.300574951172,-0.694555664063,10.4542602539,0.1,0.0,0.0,0.0,0.1,0.0,0.0,0.0,0.1
1452010577283761364,25,1452010577280706882,robocape,5.5593989668,-3.39763315151,-13.1126628282,0.0,10.0,0.0,0.0,0.0,10.0,0.0,0.0,0.0,10.0,0.00292947719909,0.0118510668509,0.00386158358061,1.0,0.0,0.0,0.0,1.0,0.0,0.0,0.0,1.0,0.301772460938,-0.678988037109,10.4422851563,0.1,0.0,0.0,0.0,0.1,0.0,0.0,0.0,0.1
1452010577317218572,26,1452010577314135074,robocape,5.55460753404,-3.37168124858,-13.0817286648,0.0,10.0,0.0,0.0,0.0,10.0,0.0,0.0,0.0,10.0,0.00279631914458,0.0117179087963,0.00386158358061,1.0,0.0,0.0,0.0,1.0,0.0,0.0,0.0,1.0,0.304167480469,-0.682580566406,10.4303100586,0.1,0.0,0.0,0.0,0.1,0.0,0.0,0.0,0.1
1452010577350483031,27,1452010577347471952,robocape,5.54957463664,-3.3457953217,-13.0506159254,0.0,10.0,0.0,0.0,0.0,10.0,0.0,0.0,0.0,10.0,0.00266316109008,0.0117179087963,0.00399474163512,1.0,0.0,0.0,0.0,1.0,0.0,0.0,0.0,1.0,0.302969970703,-0.686173095703,10.4602478027,0.1,0.0,0.0,0.0,0.1,0.0,0.0,0.0,0.1
1452010577383674822,28,1452010577380620002,robocape,5.54456833809,-3.32020218276,-13.0195970274,0.0,10.0,0.0,0.0,0.0,10.0,0.0,0.0,0.0,10.0,0.00266316109008,0.0115847507418,0.00399474163512,1.0,0.0,0.0,0.0,1.0,0.0,0.0,0.0,1.0,0.294587402344,-0.692160644531,10.4758154297,0.1,0.0,0.0,0.0,0.1,0.0,0.0,0.0,0.1
1452010577419273489,29,1452010577415870904,robocape,5.54034381944,-3.2936381452,-12.9885496599,0.0,10.0,0.0,0.0,0.0,10.0,0.0,0.0,0.0,10.0,0.00306263525359,0.0121173829599,0.00399474163512,1.0,0.0,0.0,0.0,1.0,0.0,0.0,0.0,1.0,0.161663818359,-0.692160644531,10.4662353516,0.1,0.0,0.0,0.0,0.1,0.0,0.0,0.0,0.1
1452010577450556822,30,1452010577447295904,robocape,5.53563800905,-3.26736851622,-12.9575981033,0.0,10.0,0.0,0.0,0.0,10.0,0.0,0.0,0.0,10.0,0.00279631914458,0.0119842249054,0.00399474163512,1.0,0.0,0.0,0.0,1.0,0.0,0.0,0.0,1.0,0.310155029297,-0.689765625,10.4698278809,0.1,0.0,0.0,0.0,0.1,0.0,0.0,0.0,0.1
1452010577483468197,31,1452010577480401992,robocape,5.53149064771,-3.2413416147,-12.9272366394,0.0,10.0,0.0,0.0,0.0,10.0,0.0,0.0,0.0,10.0,0.00306263525359,0.0118510668509,0.00372842552611,1.0,0.0,0.0,0.0,1.0,0.0,0.0,0.0,1.0,0.305364990234,-0.687370605469,10.4758154297,0.1,0.0,0.0,0.0,0.1,0.0,0.0,0.0,0.1
1452010577517173572,32,1452010577514090061,robocape,5.54782149414,-3.21247302736,-12.9202845444,0.0,10.0,0.0,0.0,0.0,10.0,0.0,0.0,0.0,10.0,0.0131826473959,0.0121173829599,-0.00878843159726,1.0,0.0,0.0,0.0,1.0,0.0,0.0,0.0,1.0,0.379610595703,-0.901724853516,10.4806054688,0.1,0.0,0.0,0.0,0.1,0.0,0.0,0.0,0.1
1452010577550173531,33,1452010577546961069,robocape,5.6133640784,-3.19079626806,-12.9351995984,0.0,10.0,0.0,0.0,0.0,10.0,0.0,0.0,0.0,10.0,0.0384826777516,0.00719053494321,-0.0201068662301,1.0,0.0,0.0,0.0,1.0,0.0,0.0,0.0,1.0,0.229921875,-0.376018066406,10.3345092773,0.1,0.0,0.0,0.0,0.1,0.0,0.0,0.0,0.1
1452010577583632072,34,1452010577580564975,robocape,5.62974446014,-3.18983172963,-12.9527762246,0.0,10.0,0.0,0.0,0.0,10.0,0.0,0.0,0.0,10.0,0.0126500151779,-0.00372842552611,-0.0203731823391,1.0,0.0,0.0,0.0,1.0,0.0,0.0,0.0,1.0,0.0838256835938,-0.2682421875,10.3692370605,0.1,0.0,0.0,0.0,0.1,0.0,0.0,0.0,0.1
1452010577616908281,35,1452010577613749027,robocape,5.51613963326,-3.20123509592,-12.9559944837,0.0,10.0,0.0,0.0,0.0,10.0,0.0,0.0,0.0,10.0,-0.0552605926191,-0.00932106381528,-0.0118510668509,1.0,0.0,0.0,0.0,1.0,0.0,0.0,0.0,1.0,0.195194091797,-0.559237060547,10.4087548828,0.1,0.0,0.0,0.0,0.1,0.0,0.0,0.0,0.1
1452010577650568614,36,1452010577647109985,robocape,5.43866074036,-3.21244943371,-12.9683240991,0.0,10.0,0.0,0.0,0.0,10.0,0.0,0.0,0.0,10.0,-0.0366184649886,-0.00972053797879,-0.0167779148675,1.0,0.0,0.0,0.0,1.0,0.0,0.0,0.0,1.0,0.414338378906,-0.917292480469,10.5141357422,0.1,0.0,0.0,0.0,0.1,0.0,0.0,0.0,0.1
1452010577684313281,37,1452010577680988073,robocape,5.40741949149,-3.21245270731,-12.9851685919,0.0,10.0,0.0,0.0,0.0,10.0,0.0,0.0,0.0,10.0,-0.0125168571234,-0.00412789968962,-0.0198405501211,1.0,0.0,0.0,0.0,1.0,0.0,0.0,0.0,1.0,0.422720947266,-0.965192871094,10.5392834473,0.1,0.0,0.0,0.0,0.1,0.0,0.0,0.0,0.1
1452010577717775364,38,1452010577714569091,robocape,5.37634274454,-3.20092179733,-12.9741962908,0.0,10.0,0.0,0.0,0.0,10.0,0.0,0.0,0.0,10.0,-0.0117179087963,0.0033289513626,-0.00572579634367,1.0,0.0,0.0,0.0,1.0,0.0,0.0,0.0,1.0,0.384400634766,-0.890947265625,10.5344934082,0.1,0.0,0.0,0.0,0.1,0.0,0.0,0.0,0.1
1452010577750419656,39,1452010577747064113,robocape,5.37342244731,-3.17717776001,-12.9524258377,0.0,10.0,0.0,0.0,0.0,10.0,0.0,0.0,0.0,10.0,0.0033289513626,0.0102531701968,-0.00066579027252,1.0,0.0,0.0,0.0,1.0,0.0,0.0,0.0,1.0,0.432301025391,-0.97716796875,10.5656286621,0.1,0.0,0.0,0.0,0.1,0.0,0.0,0.0,0.1
1452010577783613114,40,1452010577780471086,robocape,5.39155031425,-3.14324478353,-12.9203377599,0.0,10.0,0.0,0.0,0.0,10.0,0.0,0.0,0.0,10.0,0.0146473859954,0.016112124595,0.00426105774413,1.0,0.0,0.0,0.0,1.0,0.0,0.0,0.0,1.0,0.370030517578,-0.866997070313,10.5285058594,0.1,0.0,0.0,0.0,0.1,0.0,0.0,0.0,0.1
1452010577817200739,41,1452010577814068078,robocape,5.41717039296,-3.10497732851,-12.8810556833,0.0,10.0,0.0,0.0,0.0,10.0,0.0,0.0,0.0,10.0,0.0187752856851,0.0187752856851,0.00785632521573,1.0,0.0,0.0,0.0,1.0,0.0,0.0,0.0,1.0,0.347277832031,-0.743653564453,10.4937780762,0.1,0.0,0.0,0.0,0.1,0.0,0.0,0.0,0.1
1452010577880738073,42,1452010577847409009,robocape,5.41624711153,-3.07351355117,-12.8229135659,0.0,10.0,0.0,0.0,0.0,10.0,0.0,0.0,0.0,10.0,0.00532632218016,0.0162452826495,0.018242653467,1.0,0.0,0.0,0.0,1.0,0.0,0.0,0.0,1.0,0.282612304688,-0.573607177734,10.5069506836,0.1,0.0,0.0,0.0,0.1,0.0,0.0,0.0,0.1
1452010577903723073,43,1452010577900191068,robocape,5.35264591865,-3.03911134681,-12.7255855494,0.0,10.0,0.0,0.0,0.0,10.0,0.0,0.0,0.0,10.0,-0.0266316109008,0.0198405501211,0.0390153099697,1.0,0.0,0.0,0.0,1.0,0.0,0.0,0.0,1.0,0.371228027344,-0.942440185547,10.5225183105,0.1,0.0,0.0,0.0,0.1,0.0,0.0,0.0,0.1
1452010577928676114,44,1452010577925590038,robocape,5.32459051395,-2.9944401492,-12.6417661513,0.0,10.0,0.0,0.0,0.0,10.0,0.0,0.0,0.0,10.0,-0.00838895743375,0.0245010820287,0.0314253008629,1.0,0.0,0.0,0.0,1.0,0.0,0.0,0.0,1.0,0.447868652344,-1.13284423828,10.5704187012,0.1,0.0,0.0,0.0,0.1,0.0,0.0,0.0,0.1
1452010577950094739,45,1452010577946991920,robocape,5.35847906779,-2.93755908398,-12.5736187649,0.0,10.0,0.0,0.0,0.0,10.0,0.0,0.0,0.0,10.0,0.0237021337017,0.0300937203179,0.0225037112112,1.0,0.0,0.0,0.0,1.0,0.0,0.0,0.0,1.0,0.410745849609,-1.03943847656,10.5213208008,0.1,0.0,0.0,0.0,0.1,0.0,0.0,0.0,0.1
1452010577983595448,46,1452010577980483055,robocape,5.44061264276,-2.87617504539,-12.5238211983,0.0,10.0,0.0,0.0,0.0,10.0,0.0,0.0,0.0,10.0,0.0486026898939,0.0315584589174,0.0125168571234,1.0,0.0,0.0,0.0,1.0,0.0,0.0,0.0,1.0,0.286204833984,-0.614322509766,10.5249133301,0.1,0.0,0.0,0.0,0.1,0.0,0.0,0.0,0.1
1452010578018364656,47,1452010578015276908,robocape,5.47698270964,-2.82960608948,-12.4731004258,0.0,10.0,0.0,0.0,0.0,10.0,0.0,0.0,0.0,10.0,0.0246342400832,0.0239684498107,0.0138484376684,1.0,0.0,0.0,0.0,1.0,0.0,0.0,0.0,1.0,0.178428955078,-0.399968261719,10.3644470215,0.1,0.0,0.0,0.0,0.1,0.0,0.0,0.0,0.1
1452010578051439781,48,1452010578048212051,robocape,5.47349038547,-2.79996781021,-12.4330552432,0.0,10.0,0.0,0.0,0.0,10.0,0.0,0.0,0.0,10.0,0.0034621094171,0.0146473859954,0.00918790576077,1.0,0.0,0.0,0.0,1.0,0.0,0.0,0.0,1.0,0.182021484375,-0.385598144531,10.3848046875,0.1,0.0,0.0,0.0,0.1,0.0,0.0,0.0,0.1
1452010578084726448,49,1452010578081698894,robocape,5.433908735,-2.78921579267,-12.3962824349,0.0,10.0,0.0,0.0,0.0,10.0,0.0,0.0,0.0,10.0,-0.015579492377,0.00466053190764,0.00852211548825,1.0,0.0,0.0,0.0,1.0,0.0,0.0,0.0,1.0,0.166453857422,-0.257464599609,10.4003723145,0.1,0.0,0.0,0.0,0.1,0.0,0.0,0.0,0.1
1452010578118531656,50,1452010578115384101,robocape,5.33146854924,-2.78706563845,-12.3346857719,0.0,10.0,0.0,0.0,0.0,10.0,0.0,0.0,0.0,10.0,-0.0480700576759,0.00146473859954,0.0222373951022,1.0,0.0,0.0,0.0,1.0,0.0,0.0,0.0,1.0,0.366437988281,-0.665815429688,10.4961730957,0.1,0.0,0.0,0.0,0.1,0.0,0.0,0.0,0.1
1452010578152515198,51,1452010578148737907,robocape,5.19818588677,-2.77461753412,-12.2360984754,0.0,10.0,0.0,0.0,0.0,10.0,0.0,0.0,0.0,10.0,-0.0635163919984,0.00865527354276,0.0414121549507,1.0,0.0,0.0,0.0,1.0,0.0,0.0,0.0,1.0,0.457448730469,-1.14122680664,10.5799987793,0.1,0.0,0.0,0.0,0.1,0.0,0.0,0.0,0.1
1452010578185583448,52,1452010578182138919,robocape,5.11644970903,-2.73054337038,-12.0865191874,0.0,10.0,0.0,0.0,0.0,10.0,0.0,0.0,0.0,10.0,-0.0354200424981,0.0275637172823,0.066845343361,1.0,0.0,0.0,0.0,1.0,0.0,0.0,0.0,1.0,0.558039550781,-1.35318603516,10.7069348145,0.1,0.0,0.0,0.0,0.1,0.0,0.0,0.0,0.1
1452010578218946031,53,1452010578215332984,robocape,5.0827895448,-2.64545652748,-11.8913407877,0.0,10.0,0.0,0.0,0.0,10.0,0.0,0.0,0.0,10.0,-0.00932106381528,0.0511326929295,0.0890827384632,1.0,0.0,0.0,0.0,1.0,0.0,0.0,0.0,1.0,0.655037841797,-1.90404052734,10.8230932617,0.1,0.0,0.0,0.0,0.1,0.0,0.0,0.0,0.1
1452010578251507406,54,1452010578248177051,robocape,5.21293876656,-2.51389591601,-11.6737143356,0.0,10.0,0.0,0.0,0.0,10.0,0.0,0.0,0.0,10.0,0.0769653555033,0.0765658813398,0.0985369603329,1.0,0.0,0.0,0.0,1.0,0.0,0.0,0.0,1.0,0.662222900391,-1.37474121094,10.6638244629,0.1,0.0,0.0,0.0,0.1,0.0,0.0,0.0,0.1
1452010578284641073,55,1452010578281303882,robocape,5.41184808141,-2.36848332766,-11.3894807866,0.0,10.0,0.0,0.0,0.0,10.0,0.0,0.0,0.0,10.0,0.114249610764,0.0874848418091,0.13275858034,1.0,0.0,0.0,0.0,1.0,0.0,0.0,0.0,1.0,0.136516113281,-0.859812011719,10.4818029785,0.1,0.0,0.0,0.0,0.1,0.0,0.0,0.0,0.1
1452010578318678156,56,1452010578315651893,robocape,5.72745921709,-2.2246033677,-11.1844127876,0.0,10.0,0.0,0.0,0.0,10.0,0.0,0.0,0.0,10.0,0.173904419182,0.083223784065,0.0906806351172,1.0,0.0,0.0,0.0,1.0,0.0,0.0,0.0,1.0,-0.0467028808594,-0.495769042969,10.3740270996,0.1,0.0,0.0,0.0,0.1,0.0,0.0,0.0,0.1
1452010578355249323,57,1452010578351247072,robocape,6.09491537944,-2.09065524721,-11.0492054029,0.0,10.0,0.0,0.0,0.0,10.0,0.0,0.0,0.0,10.0,0.200003397865,0.0748348266312,0.0539290120741,1.0,0.0,0.0,0.0,1.0,0.0,0.0,0.0,1.0,-0.047900390625,-0.159268798828,10.290201416,0.1,0.0,0.0,0.0,0.1,0.0,0.0,0.0,0.1
1452010578386698948,58,1452010578383589029,robocape,6.42450258471,-1.98029130952,-10.9738883709,0.0,10.0,0.0,0.0,0.0,10.0,0.0,0.0,0.0,10.0,0.179363899417,0.0595216503633,0.0234358175927,1.0,0.0,0.0,0.0,1.0,0.0,0.0,0.0,1.0,0.0946032714844,-0.360450439453,10.3728295898,0.1,0.0,0.0,0.0,0.1,0.0,0.0,0.0,0.1
1452010578419921864,59,1452010578416799068,robocape,6.73655161289,-1.87454764165,-10.9590805807,0.0,10.0,0.0,0.0,0.0,10.0,0.0,0.0,0.0,10.0,0.169510203384,0.0536626959651,-0.00838895743375,1.0,0.0,0.0,0.0,1.0,0.0,0.0,0.0,1.0,0.247884521484,-0.0946032714844,10.1249450684,0.1,0.0,0.0,0.0,0.1,0.0,0.0,0.0,0.1
1452010578453079989,60,1452010578448565006,robocape,7.03841105559,-1.78192088957,-10.9654789718,0.0,10.0,0.0,0.0,0.0,10.0,0.0,0.0,0.0,10.0,0.164183881203,0.0455400546404,-0.0190416017941,1.0,0.0,0.0,0.0,1.0,0.0,0.0,0.0,1.0,-0.0646655273438,0.393980712891,9.95849121094,0.1,0.0,0.0,0.0,0.1,0.0,0.0,0.0,0.1
1452010578487891656,61,1452010578483781099,robocape,7.18940624978,-1.72563769646,-10.9530949221,0.0,10.0,0.0,0.0,0.0,10.0,0.0,0.0,0.0,10.0,0.085354312937,0.0279631914458,-0.0066579027252,1.0,0.0,0.0,0.0,1.0,0.0,0.0,0.0,1.0,0.00239501953125,0.542471923828,9.97046630859,0.1,0.0,0.0,0.0,0.1,0.0,0.0,0.0,0.1
1452010578521719323,62,1452010578518187046,robocape,7.27902773856,-1.69856234093,-10.9674068564,0.0,10.0,0.0,0.0,0.0,10.0,0.0,0.0,0.0,10.0,0.0528637476381,0.0110521185238,-0.0186421276306,1.0,0.0,0.0,0.0,1.0,0.0,0.0,0.0,1.0,-0.0694555664063,0.566422119141,10.0506994629,0.1,0.0,0.0,0.0,0.1,0.0,0.0,0.0,0.1
1452010578553727240,63,1452010578550532102,robocape,7.21339281089,-1.69625886923,-10.9699471013,0.0,10.0,0.0,0.0,0.0,10.0,0.0,0.0,0.0,10.0,-0.0286289817184,-0.000932106381528,-0.0103863282513,1.0,0.0,0.0,0.0,1.0,0.0,0.0,0.0,1.0,0.0299377441406,0.696950683594,10.0590820312,0.1,0.0,0.0,0.0,0.1,0.0,0.0,0.0,0.1
1452010578588582865,64,1452010578585197925,robocape,7.06375767758,-1.71864187653,-10.9785675728,0.0,10.0,0.0,0.0,0.0,10.0,0.0,0.0,0.0,10.0,-0.0729706138682,-0.0141147537774,-0.0117179087963,1.0,0.0,0.0,0.0,1.0,0.0,0.0,0.0,1.0,-0.0502954101563,0.519719238281,10.0794396973,0.1,0.0,0.0,0.0,0.1,0.0,0.0,0.0,0.1
1452010578621739406,65,1452010578618230104,robocape,6.81553447658,-1.76331421123,-10.9921101894,0.0,10.0,0.0,0.0,0.0,10.0,0.0,0.0,0.0,10.0,-0.125035413179,-0.0259658206283,-0.0126500151779,1.0,0.0,0.0,0.0,1.0,0.0,0.0,0.0,1.0,0.0431103515625,0.0598754882813,10.1465002441,0.1,0.0,0.0,0.0,0.1,0.0,0.0,0.0,0.1
1452010578654352531,66,1452010578650696039,robocape,6.52893444978,-1.82119131023,-10.9853365361,0.0,10.0,0.0,0.0,0.0,10.0,0.0,0.0,0.0,10.0,-0.145142279409,-0.0315584589174,-0.00119842249054,1.0,0.0,0.0,0.0,1.0,0.0,0.0,0.0,1.0,-0.0514929199219,0.1916015625,10.1381176758,0.1,0.0,0.0,0.0,0.1,0.0,0.0,0.0,0.1
1452010578687543281,67,1452010578684251070,robocape,6.1624717387,-1.89946768513,-10.960609109,0.0,10.0,0.0,0.0,0.0,10.0,0.0,0.0,0.0,10.0,-0.187087066578,-0.0411458388417,0.00945422186978,1.0,0.0,0.0,0.0,1.0,0.0,0.0,0.0,1.0,-0.009580078125,0.197589111328,10.1357226563,0.1,0.0,0.0,0.0,0.1,0.0,0.0,0.0,0.1
1452010578721936823,68,1452010578718801975,robocape,5.74479681319,-1.9833469689,-10.9361739946,0.0,10.0,0.0,0.0,0.0,10.0,0.0,0.0,0.0,10.0,-0.214251309697,-0.0442084740953,0.00945422186978,1.0,0.0,0.0,0.0,1.0,0.0,0.0,0.0,1.0,0.380808105469,-0.892144775391,10.5895788574,0.1,0.0,0.0,0.0,0.1,0.0,0.0,0.0,0.1
1452010578753114365,69,1452010578749814033,robocape,5.42979701557,-2.04739480316,-10.9044988507,0.0,10.0,0.0,0.0,0.0,10.0,0.0,0.0,0.0,10.0,-0.160455455677,-0.0336889877895,0.0117179087963,1.0,0.0,0.0,0.0,1.0,0.0,0.0,0.0,1.0,0.422720947266,-1.61663818359,10.6602319336,0.1,0.0,0.0,0.0,0.1,0.0,0.0,0.0,0.1
1452010578787115906,70,1452010578783973932,robocape,5.23407855753,-2.07087560177,-10.8721408854,0.0,10.0,0.0,0.0,0.0,10.0,0.0,0.0,0.0,10.0,-0.0980043281149,-0.0126500151779,0.00972053797879,1.0,0.0,0.0,0.0,1.0,0.0,0.0,0.0,1.0,0.829874267578,-1.88727539063,10.8769812012,0.1,0.0,0.0,0.0,0.1,0.0,0.0,0.0,0.1
1452010578820393115,71,1452010578817293882,robocape,5.26048013241,-2.03690754502,-10.8405559025,0.0,10.0,0.0,0.0,0.0,10.0,0.0,0.0,0.0,10.0,0.0185089695761,0.017177389031,0.00612527050718,1.0,0.0,0.0,0.0,1.0,0.0,0.0,0.0,1.0,0.615520019531,-1.87051025391,10.8027355957,0.1,0.0,0.0,0.0,0.1,0.0,0.0,0.0,0.1
1452010578853628115,72,1452010578850558996,robocape,5.41100669764,-1.95859451712,-10.7737965621,0.0,10.0,0.0,0.0,0.0,10.0,0.0,0.0,0.0,10.0,0.084289048501,0.0420779452233,0.0222373951022,1.0,0.0,0.0,0.0,1.0,0.0,0.0,0.0,1.0,0.531694335938,-1.39270385742,10.6207141113,0.1,0.0,0.0,0.0,0.1,0.0,0.0,0.0,0.1
1452010578886694656,73,1452010578883627891,robocape,5.63413407667,-1.86700963329,-10.7171696941,0.0,10.0,0.0,0.0,0.0,10.0,0.0,0.0,0.0,10.0,0.122372252089,0.0486026898939,0.0159789665405,1.0,0.0,0.0,0.0,1.0,0.0,0.0,0.0,1.0,0.299377441406,-0.614322509766,10.4566552734,0.1,0.0,0.0,0.0,0.1,0.0,0.0,0.0,0.1
1452010578920107448,74,1452010578916681051,robocape,5.85182074926,-1.78426783564,-10.6866606392,0.0,10.0,0.0,0.0,0.0,10.0,0.0,0.0,0.0,10.0,0.119309616836,0.0427437354958,0.00253000303558,1.0,0.0,0.0,0.0,1.0,0.0,0.0,0.0,1.0,0.219144287109,-0.356857910156,10.3297192383,0.1,0.0,0.0,0.0,0.1,0.0,0.0,0.0,0.1
1452010578953262990,75,1452010578949887037,robocape,6.05608317335,-1.71794979467,-10.7099753366,0.0,10.0,0.0,0.0,0.0,10.0,0.0,0.0,0.0,10.0,0.111719607729,0.0312921428084,-0.0250337142467,1.0,0.0,0.0,0.0,1.0,0.0,0.0,0.0,1.0,-0.0969982910156,-0.106578369141,10.0950073242,0.1,0.0,0.0,0.0,0.1,0.0,0.0,0.0,0.1
1452010578986038615,76,1452010578982963085,robocape,6.1725766343,-1.67792446412,-10.7339049966,0.0,10.0,0.0,0.0,0.0,10.0,0.0,0.0,0.0,10.0,0.065780078925,0.0175768631945,-0.0238352917562,1.0,0.0,0.0,0.0,1.0,0.0,0.0,0.0,1.0,-0.0682580566406,0.298179931641,10.0914147949,0.1,0.0,0.0,0.0,0.1,0.0,0.0,0.0,0.1
1452010579018972115,77,1452010579015841007,robocape,6.15777315107,-1.66349615702,-10.7306905172,0.0,10.0,0.0,0.0,0.0,10.0,0.0,0.0,0.0,10.0,-0.00279631914458,0.00585895439817,-0.00785632521573,1.0,0.0,0.0,0.0,1.0,0.0,0.0,0.0,1.0,0.0335302734375,0.226329345703,10.157277832,0.1,0.0,0.0,0.0,0.1,0.0,0.0,0.0,0.1
1452010579052022990,78,1452010579048747062,robocape,6.04616256886,-1.67483588879,-10.7240947261,0.0,10.0,0.0,0.0,0.0,10.0,0.0,0.0,0.0,10.0,-0.0536626959651,-0.00732369299772,-0.00439421579863,1.0,0.0,0.0,0.0,1.0,0.0,0.0,0.0,1.0,0.0910107421875,0.269439697266,10.1476977539,0.1,0.0,0.0,0.0,0.1,0.0,0.0,0.0,0.1
1452010579085049406,79,1452010579082014083,robocape,5.83981004097,-1.7145869891,-10.7512325242,0.0,10.0,0.0,0.0,0.0,10.0,0.0,0.0,0.0,10.0,-0.103996440568,-0.0239684498107,-0.0203731823391,1.0,0.0,0.0,0.0,1.0,0.0,0.0,0.0,1.0,0.258662109375,-0.370030517578,10.3608544922,0.1,0.0,0.0,0.0,0.1,0.0,0.0,0.0,0.1
1452010579118467240,80,1452010579115289926,robocape,5.66379093655,-1.75364219301,-10.7827741381,0.0,10.0,0.0,0.0,0.0,10.0,0.0,0.0,0.0,10.0,-0.0882837901361,-0.0238352917562,-0.0229031853747,1.0,0.0,0.0,0.0,1.0,0.0,0.0,0.0,1.0,0.107775878906,-0.844244384766,10.4722229004,0.1,0.0,0.0,0.0,0.1,0.0,0.0,0.0,0.1
1452010579151322698,81,1452010579148257017,robocape,5.52588300007,-1.77262007041,-10.7880016431,0.0,10.0,0.0,0.0,0.0,10.0,0.0,0.0,0.0,10.0,-0.0680437658515,-0.0119842249054,-0.0102531701968,1.0,0.0,0.0,0.0,1.0,0.0,0.0,0.0,1.0,0.541274414062,-0.980760498047,10.5452709961,0.1,0.0,0.0,0.0,0.1,0.0,0.0,0.0,0.1
1452010579184564323,82,1452010579181448936,robocape,5.46001239827,-1.7692888449,-10.7781189958,0.0,10.0,0.0,0.0,0.0,10.0,0.0,0.0,0.0,10.0,-0.0300937203179,0.000399474163512,-0.00359526747161,1.0,0.0,0.0,0.0,1.0,0.0,0.0,0.0,1.0,0.374820556641,-1.17355957031,10.6350842285,0.1,0.0,0.0,0.0,0.1,0.0,0.0,0.0,0.1
1452010579217461365,83,1452010579214400053,robocape,5.46233781835,-1.74292637492,-10.755435682,0.0,10.0,0.0,0.0,0.0,10.0,0.0,0.0,0.0,10.0,0.00585895439817,0.0130494893414,0.00186421276306,1.0,0.0,0.0,0.0,1.0,0.0,0.0,0.0,1.0,0.458646240234,-1.03943847656,10.5811962891,0.1,0.0,0.0,0.0,0.1,0.0,0.0,0.0,0.1
1452010579250531407,84,1452010579247504949,robocape,5.5171646162,-1.70158414445,-10.7243088938,0.0,10.0,0.0,0.0,0.0,10.0,0.0,0.0,0.0,10.0,0.033555829735,0.0213052887206,0.00545948023466,1.0,0.0,0.0,0.0,1.0,0.0,0.0,0.0,1.0,0.32572265625,-0.923280029297,10.5332958984,0.1,0.0,0.0,0.0,0.1,0.0,0.0,0.0,0.1
1452010579283832448,85,1452010579280800104,robocape,5.59715794753,-1.65154668372,-10.6889462629,0.0,10.0,0.0,0.0,0.0,10.0,0.0,0.0,0.0,10.0,0.0468716351854,0.0260989786828,0.00719053494321,1.0,0.0,0.0,0.0,1.0,0.0,0.0,0.0,1.0,0.293389892578,-0.653840332031,10.4315075684,0.1,0.0,0.0,0.0,0.1,0.0,0.0,0.0,0.1
1452010579317046865,86,1452010579314007043,robocape,5.66512594277,-1.60498249487,-10.6531908139,0.0,10.0,0.0,0.0,0.0,10.0,0.0,0.0,0.0,10.0,0.0406132066237,0.0243679239742,0.00759000910673,1.0,0.0,0.0,0.0,1.0,0.0,0.0,0.0,1.0,0.228724365234,-0.432301025391,10.3895947266,0.1,0.0,0.0,0.0,0.1,0.0,0.0,0.0,0.1
1452010579350248073,87,1452010579347258090,robocape,5.68579298085,-1.56896263452,-10.6027407041,0.0,10.0,0.0,0.0,0.0,10.0,0.0,0.0,0.0,10.0,0.0159789665405,0.0197073920666,0.0159789665405,1.0,0.0,0.0,0.0,1.0,0.0,0.0,0.0,1.0,0.104183349609,-0.36404296875,10.3788171387,0.1,0.0,0.0,0.0,0.1,0.0,0.0,0.0,0.1
1452010579383440073,88,1452010579380419969,robocape,5.63569268163,-1.54303745938,-10.5265985348,0.0,10.0,0.0,0.0,0.0,10.0,0.0,0.0,0.0,10.0,-0.0209058145571,0.015845808486,0.0302268783724,1.0,0.0,0.0,0.0,1.0,0.0,0.0,0.0,1.0,0.110170898438,-0.342487792969,10.4207299805,0.1,0.0,0.0,0.0,0.1,0.0,0.0,0.0,0.1
1452010579418355323,89,1452010579415324926,robocape,5.56210811518,-1.52042690953,-10.4376316313,0.0,10.0,0.0,0.0,0.0,10.0,0.0,0.0,0.0,10.0,-0.0331563555715,0.0147805440499,0.0372842552611,1.0,0.0,0.0,0.0,1.0,0.0,0.0,0.0,1.0,0.283809814453,-0.687370605469,10.4877905273,0.1,0.0,0.0,0.0,0.1,0.0,0.0,0.0,0.1
1452010579450585198,90,1452010579447395086,robocape,5.54473429682,-1.48770839237,-10.362573313,0.0,10.0,0.0,0.0,0.0,10.0,0.0,0.0,0.0,10.0,-0.00386158358061,0.0193079179031,0.0294279300454,1.0,0.0,0.0,0.0,1.0,0.0,0.0,0.0,1.0,0.361647949219,-0.930465087891,10.5225183105,0.1,0.0,0.0,0.0,0.1,0.0,0.0,0.0,0.1
1452010579483588407,91,1452010579480473995,robocape,5.57597377405,-1.44240656594,-10.2938239465,0.0,10.0,0.0,0.0,0.0,10.0,0.0,0.0,0.0,10.0,0.0215716048296,0.0255663464648,0.0254331884103,1.0,0.0,0.0,0.0,1.0,0.0,0.0,0.0,1.0,0.354462890625,-0.874182128906,10.4578527832,0.1,0.0,0.0,0.0,0.1,0.0,0.0,0.0,0.1
1452010579517125532,92,1452010579513866901,robocape,5.63015290398,-1.39122666687,-10.2313198946,0.0,10.0,0.0,0.0,0.0,10.0,0.0,0.0,0.0,10.0,0.033555829735,0.0283626656093,0.0218379209386,1.0,0.0,0.0,0.0,1.0,0.0,0.0,0.0,1.0,0.293389892578,-0.655037841797,10.4602478027,0.1,0.0,0.0,0.0,0.1,0.0,0.0,0.0,0.1
1452010579550331990,93,1452010579547070980,robocape,5.73910024373,-1.34028513696,-10.1600120505,0.0,10.0,0.0,0.0,0.0,10.0,0.0,0.0,0.0,10.0,0.0624511275624,0.0287621397729,0.0263652947918,1.0,0.0,0.0,0.0,1.0,0.0,0.0,0.0,1.0,0.223934326172,-0.451461181641,10.4003723145,0.1,0.0,0.0,0.0,0.1,0.0,0.0,0.0,0.1
1452010579583820407,94,1452010579580748081,robocape,5.79027039914,-1.29054703583,-10.0939028351,0.0,10.0,0.0,0.0,0.0,10.0,0.0,0.0,0.0,10.0,0.0320910911355,0.0279631914458,0.0238352917562,1.0,0.0,0.0,0.0,1.0,0.0,0.0,0.0,1.0,0.1916015625,-0.649050292969,10.3788171387,0.1,0.0,0.0,0.0,0.1,0.0,0.0,0.0,0.1
1452010579617184532,95,1452010579613918066,robocape,5.83324421674,-1.24441603814,-10.0386352062,0.0,10.0,0.0,0.0,0.0,10.0,0.0,0.0,0.0,10.0,0.0276968753368,0.0255663464648,0.0183758115215,1.0,0.0,0.0,0.0,1.0,0.0,0.0,0.0,1.0,0.244291992188,-0.467028808594,10.3740270996,0.1,0.0,0.0,0.0,0.1,0.0,0.0,0.0,0.1
1452010579651336448,96,1452010579648113012,robocape,5.8490939339,-1.20878960034,-9.98409882403,0.0,10.0,0.0,0.0,0.0,10.0,0.0,0.0,0.0,10.0,0.0134489635049,0.0201068662301,0.0186421276306,1.0,0.0,0.0,0.0,1.0,0.0,0.0,0.0,1.0,0.0802331542969,-0.238304443359,10.3021765137,0.1,0.0,0.0,0.0,0.1,0.0,0.0,0.0,0.1
1452010579684186782,97,1452010579681107997,robocape,5.85198929236,-1.1787950611,-9.94243498842,0.0,10.0,0.0,0.0,0.0,10.0,0.0,0.0,0.0,10.0,0.00652474467069,0.0165115987585,0.0122505410144,1.0,0.0,0.0,0.0,1.0,0.0,0.0,0.0,1.0,0.24908203125,-0.496966552734,10.3716320801,0.1,0.0,0.0,0.0,0.1,0.0,0.0,0.0,0.1
1452010579719196573,98,1452010579715964078,robocape,5.84046186454,-1.15766653871,-9.91675431893,0.0,10.0,0.0,0.0,0.0,10.0,0.0,0.0,0.0,10.0,-0.00119842249054,0.0110521185238,0.00439421579863,1.0,0.0,0.0,0.0,1.0,0.0,0.0,0.0,1.0,0.164058837891,-0.374820556641,10.3285217285,0.1,0.0,0.0,0.0,0.1,0.0,0.0,0.0,0.1
1452010579750227823,99,1452010579747248888,robocape,5.80826525912,-1.14271929563,-9.89589440486,0.0,10.0,0.0,0.0,0.0,10.0,0.0,0.0,0.0,10.0,-0.0121173829599,0.00759000910673,0.00226368692657,1.0,0.0,0.0,0.0,1.0,0.0,0.0,0.0,1.0,0.190404052734,-0.403560791016,10.3596569824,0.1,0.0,0.0,0.0,0.1,0.0,0.0,0.0,0.1
1452010579783573490,100,1452010579780579090,robocape,5.77614375294,-1.12919880801,-9.87623958173,0.0,10.0,0.0,0.0,0.0,10.0,0.0,0.0,0.0,10.0,-0.0121173829599,0.0067910607797,0.00173105470855,1.0,0.0,0.0,0.0,1.0,0.0,0.0,0.0,1.0,0.186811523438,-0.528101806641,10.4003723145,0.1,0.0,0.0,0.0,0.1,0.0,0.0,0.0,0.1
1452010579816952615,101,1452010579813787937,robocape,5.78334695906,-1.10782659448,-9.87341054914,0.0,10.0,0.0,0.0,0.0,10.0,0.0,0.0,0.0,10.0,0.00838895743375,0.0099868540878,-0.00759000910673,1.0,0.0,0.0,0.0,1.0,0.0,0.0,0.0,1.0,0.251477050781,-0.700543212891,10.4003723145,0.1,0.0,0.0,0.0,0.1,0.0,0.0,0.0,0.1
1452010579850632782,102,1452010579847580909,robocape,5.81932309816,-1.09071735312,-9.8987541409,0.0,10.0,0.0,0.0,0.0,10.0,0.0,0.0,0.0,10.0,0.0233026595382,0.00625842856169,-0.0222373951022,1.0,0.0,0.0,0.0,1.0,0.0,0.0,0.0,1.0,0.205971679688,-0.359252929688,10.3943847656,0.1,0.0,0.0,0.0,0.1,0.0,0.0,0.0,0.1
1452010579883479698,103,1452010579880430936,robocape,5.85211719672,-1.08149138848,-9.93675398427,0.0,10.0,0.0,0.0,0.0,10.0,0.0,0.0,0.0,10.0,0.0215716048296,0.00146473859954,-0.0284958236638,1.0,0.0,0.0,0.0,1.0,0.0,0.0,0.0,1.0,0.0706530761719,-0.323327636719,10.3129541016,0.1,0.0,0.0,0.0,0.1,0.0,0.0,0.0,0.1
1452010579916763032,104,1452010579913736104,robocape,5.85300140198,-1.08580188511,-9.99696219816,0.0,10.0,0.0,0.0,0.0,10.0,0.0,0.0,0.0,10.0,0.00466053190764,-0.0067910607797,-0.0394147841332,1.0,0.0,0.0,0.0,1.0,0.0,0.0,0.0,1.0,0.159268798828,-0.104183349609,10.2219433594,0.1,0.0,0.0,0.0,0.1,0.0,0.0,0.0,0.1
1452010579950371240,105,1452010579947137117,robocape,5.78652704775,-1.10794553754,-10.0581290106,0.0,10.0,0.0,0.0,0.0,10.0,0.0,0.0,0.0,10.0,-0.0307595105904,-0.016112124595,-0.0388821519152,1.0,0.0,0.0,0.0,1.0,0.0,0.0,0.0,1.0,0.143701171875,-0.265847167969,10.3189416504,0.1,0.0,0.0,0.0,0.1,0.0,0.0,0.0,0.1
1452010579983698532,106,1452010579980482101,robocape,5.66210134727,-1.13795736695,-10.0981369811,0.0,10.0,0.0,0.0,0.0,10.0,0.0,0.0,0.0,10.0,-0.0611195470173,-0.0190416017941,-0.0272974011733,1.0,0.0,0.0,0.0,1.0,0.0,0.0,0.0,1.0,0.0969982910156,-0.415535888672,10.2758312988,0.1,0.0,0.0,0.0,0.1,0.0,0.0,0.0,0.1
1452010580017227074,107,1452010580013850927,robocape,5.52783204063,-1.16579610866,-10.1271980005,0.0,10.0,0.0,0.0,0.0,10.0,0.0,0.0,0.0,10.0,-0.066312711143,-0.0173105470855,-0.0217047628841,1.0,0.0,0.0,0.0,1.0,0.0,0.0,0.0,1.0,0.382005615234,-0.737666015625,10.4949755859,0.1,0.0,0.0,0.0,0.1,0.0,0.0,0.0,0.1
1452010580050893282,108,1452010580047276973,robocape,5.43202557593,-1.18374940959,-10.1398633414,0.0,10.0,0.0,0.0,0.0,10.0,0.0,0.0,0.0,10.0,-0.0460726868584,-0.0113184346328,-0.0137152796139,1.0,0.0,0.0,0.0,1.0,0.0,0.0,0.0,1.0,0.362845458984,-1.09572143555,10.6111340332,0.1,0.0,0.0,0.0,0.1,0.0,0.0,0.0,0.1
1452010580083983615,109,1452010580080544948,robocape,5.3918156229,-1.17742323454,-10.1340441257,0.0,10.0,0.0,0.0,0.0,10.0,0.0,0.0,0.0,10.0,-0.0167779148675,0.00226368692657,-0.00532632218016,1.0,0.0,0.0,0.0,1.0,0.0,0.0,0.0,1.0,0.452658691406,-1.10889404297,10.5991589355,0.1,0.0,0.0,0.0,0.1,0.0,0.0,0.0,0.1
1452010580116816865,110,1452010580113600015,robocape,5.40861689107,-1.15156807319,-10.1082147066,0.0,10.0,0.0,0.0,0.0,10.0,0.0,0.0,0.0,10.0,0.0133158054504,0.0134489635049,0.00412789968962,1.0,0.0,0.0,0.0,1.0,0.0,0.0,0.0,1.0,0.397573242188,-1.02506835938,10.560838623,0.1,0.0,0.0,0.0,0.1,0.0,0.0,0.0,0.1
1452010580150533907,111,1452010580147130012,robocape,5.47039042421,-1.10533192903,-10.0744872522,0.0,10.0,0.0,0.0,0.0,10.0,0.0,0.0,0.0,10.0,0.0370179391521,0.0245010820287,0.00719053494321,1.0,0.0,0.0,0.0,1.0,0.0,0.0,0.0,1.0,0.336500244141,-0.865799560547,10.5249133301,0.1,0.0,0.0,0.0,0.1,0.0,0.0,0.0,0.1
1452010580184277324,112,1452010580181170940,robocape,5.55183068884,-1.0570165544,-10.0394524513,0.0,10.0,0.0,0.0,0.0,10.0,0.0,0.0,0.0,10.0,0.0474042674034,0.0256995045193,0.00772316716123,1.0,0.0,0.0,0.0,1.0,0.0,0.0,0.0,1.0,0.28740234375,-0.605939941406,10.3943847656,0.1,0.0,0.0,0.0,0.1,0.0,0.0,0.0,0.1
1452010580217144532,113,1452010580214139938,robocape,5.61573286389,-1.01455194012,-10.0083251575,0.0,10.0,0.0,0.0,0.0,10.0,0.0,0.0,0.0,10.0,0.0382163616426,0.0225037112112,0.00599211245268,1.0,0.0,0.0,0.0,1.0,0.0,0.0,0.0,1.0,0.202379150391,-0.404758300781,10.3644470215,0.1,0.0,0.0,0.0,0.1,0.0,0.0,0.0,0.1
1452010580250299074,114,1452010580247298955,robocape,5.64868345625,-0.981550721209,-9.98053154927,0.0,10.0,0.0,0.0,0.0,10.0,0.0,0.0,0.0,10.0,0.0219710789932,0.01744370514,0.00479368996214,1.0,0.0,0.0,0.0,1.0,0.0,0.0,0.0,1.0,0.148491210938,-0.341290283203,10.3189416504,0.1,0.0,0.0,0.0,0.1,0.0,0.0,0.0,0.1
1452010580283660865,115,1452010580280535936,robocape,5.64565297376,-0.959322490811,-9.95549451914,0.0,10.0,0.0,0.0,0.0,10.0,0.0,0.0,0.0,10.0,0.00306263525359,0.0117179087963,0.00399474163512,1.0,0.0,0.0,0.0,1.0,0.0,0.0,0.0,1.0,0.147293701172,-0.320932617188,10.3273242188,0.1,0.0,0.0,0.0,0.1,0.0,0.0,0.0,0.1
1452010580317265324,116,1452010580314256906,robocape,5.60899194319,-0.947185104059,-9.93467278724,0.0,10.0,0.0,0.0,0.0,10.0,0.0,0.0,0.0,10.0,-0.0146473859954,0.00625842856169,0.00239684498107,1.0,0.0,0.0,0.0,1.0,0.0,0.0,0.0,1.0,0.178428955078,-0.399968261719,10.362052002,0.1,0.0,0.0,0.0,0.1,0.0,0.0,0.0,0.1
1452010580351593282,117,1452010580348499059,robocape,5.54885004829,-0.942563786113,-9.91548619997,0.0,10.0,0.0,0.0,0.0,10.0,0.0,0.0,0.0,10.0,-0.0270310850643,0.00226368692657,0.00199737081756,1.0,0.0,0.0,0.0,1.0,0.0,0.0,0.0,1.0,0.219144287109,-0.514929199219,10.387199707,0.1,0.0,0.0,0.0,0.1,0.0,0.0,0.0,0.1
1452010580384957574,118,1452010580381664991,robocape,5.49058880198,-0.938873610866,-9.89718574052,0.0,10.0,0.0,0.0,0.0,10.0,0.0,0.0,0.0,10.0,-0.0260989786828,0.00173105470855,0.00159789665405,1.0,0.0,0.0,0.0,1.0,0.0,0.0,0.0,1.0,0.313747558594,-0.63228515625,10.4554577637,0.1,0.0,0.0,0.0,0.1,0.0,0.0,0.0,0.1
1452010580418389157,119,1452010580415374040,robocape,5.4521617646,-0.927715178295,-9.87687248841,0.0,10.0,0.0,0.0,0.0,10.0,0.0,0.0,0.0,10.0,-0.0157126504315,0.00572579634367,0.00226368692657,1.0,0.0,0.0,0.0,1.0,0.0,0.0,0.0,1.0,0.314945068359,-0.832269287109,10.484197998,0.1,0.0,0.0,0.0,0.1,0.0,0.0,0.0,0.1
1452010580452227574,120,1452010580448698043,robocape,5.44541840648,-0.907826964408,-9.85185358753,0.0,10.0,0.0,0.0,0.0,10.0,0.0,0.0,0.0,10.0,0.000932106381528,0.0105194863058,0.00426105774413,1.0,0.0,0.0,0.0,1.0,0.0,0.0,0.0,1.0,0.343685302734,-0.831071777344,10.5141357422,0.1,0.0,0.0,0.0,0.1,0.0,0.0,0.0,0.1
1452010580485749449,121,1452010580482141971,robocape,5.46881446165,-0.877797125517,-9.82376969265,0.0,10.0,0.0,0.0,0.0,10.0,0.0,0.0,0.0,10.0,0.0167779148675,0.0159789665405,0.00532632218016,1.0,0.0,0.0,0.0,1.0,0.0,0.0,0.0,1.0,0.293389892578,-0.780776367188,10.5045556641,0.1,0.0,0.0,0.0,0.1,0.0,0.0,0.0,0.1
1452010580518954532,122,1452010580515407085,robocape,5.50711500576,-0.842911782606,-9.79367092381,0.0,10.0,0.0,0.0,0.0,10.0,0.0,0.0,0.0,10.0,0.0246342400832,0.0186421276306,0.00612527050718,1.0,0.0,0.0,0.0,1.0,0.0,0.0,0.0,1.0,0.280217285156,-0.626297607422,10.4159399414,0.1,0.0,0.0,0.0,0.1,0.0,0.0,0.0,0.1
1452010580551634115,123,1452010580548254013,robocape,5.53930991124,-0.80994204922,-9.7655741283,0.0,10.0,0.0,0.0,0.0,10.0,0.0,0.0,0.0,10.0,0.0214384467751,0.0175768631945,0.00519316412565,1.0,0.0,0.0,0.0,1.0,0.0,0.0,0.0,1.0,0.223934326172,-0.518521728516,10.407557373,0.1,0.0,0.0,0.0,0.1,0.0,0.0,0.0,0.1
1452010580585693699,124,1452010580582154989,robocape,5.55425916742,-0.782695140209,-9.73964448062,0.0,10.0,0.0,0.0,0.0,10.0,0.0,0.0,0.0,10.0,0.0123836990689,0.0145142279409,0.00439421579863,1.0,0.0,0.0,0.0,1.0,0.0,0.0,0.0,1.0,0.208366699219,-0.457448730469,10.3848046875,0.1,0.0,0.0,0.0,0.1,0.0,0.0,0.0,0.1
1452010580621345824,125,1452010580617969989,robocape,5.54767796521,-0.761179963706,-9.71565944114,0.0,10.0,0.0,0.0,0.0,10.0,0.0,0.0,0.0,10.0,0.00106526443603,0.0114515926873,0.00372842552611,1.0,0.0,0.0,0.0,1.0,0.0,0.0,0.0,1.0,0.188009033203,-0.453856201172,10.3967797852,0.1,0.0,0.0,0.0,0.1,0.0,0.0,0.0,0.1
1452010580654862657,126,1452010580650449037,robocape,5.52314444425,-0.746140550801,-9.69368278263,0.0,10.0,0.0,0.0,0.0,10.0,0.0,0.0,0.0,10.0,-0.00838895743375,0.00798948327024,0.00306263525359,1.0,0.0,0.0,0.0,1.0,0.0,0.0,0.0,1.0,0.217946777344,-0.511336669922,10.4015698242,0.1,0.0,0.0,0.0,0.1,0.0,0.0,0.0,0.1
1452010580687818032,127,1452010580684068918,robocape,5.48878411771,-0.734075104148,-9.67283825565,0.0,10.0,0.0,0.0,0.0,10.0,0.0,0.0,0.0,10.0,-0.0135821215594,0.00639158661619,0.00266316109008,1.0,0.0,0.0,0.0,1.0,0.0,0.0,0.0,1.0,0.264649658203,-0.586779785156,10.4243225098,0.1,0.0,0.0,0.0,0.1,0.0,0.0,0.0,0.1
1452010580721227741,128,1452010580717948913,robocape,5.45828538918,-0.721236078153,-9.65220510192,0.0,10.0,0.0,0.0,0.0,10.0,0.0,0.0,0.0,10.0,-0.0115847507418,0.0067910607797,0.00253000303558,1.0,0.0,0.0,0.0,1.0,0.0,0.0,0.0,1.0,0.276624755859,-0.67060546875,10.4578527832,0.1,0.0,0.0,0.0,0.1,0.0,0.0,0.0,0.1
1452010580755181866,129,1452010580750814914,robocape,5.44682430373,-0.702512036219,-9.62921052606,0.0,10.0,0.0,0.0,0.0,10.0,0.0,0.0,0.0,10.0,-0.00159789665405,0.0099868540878,0.0034621094171,1.0,0.0,0.0,0.0,1.0,0.0,0.0,0.0,1.0,0.293389892578,-0.736468505859,10.479407959,0.1,0.0,0.0,0.0,0.1,0.0,0.0,0.0,0.1
1452010580788417157,130,1452010580785027980,robocape,5.45335905692,-0.678192904409,-9.60363046927,0.0,10.0,0.0,0.0,0.0,10.0,0.0,0.0,0.0,10.0,0.00785632521573,0.0130494893414,0.00452737385313,1.0,0.0,0.0,0.0,1.0,0.0,0.0,0.0,1.0,0.293389892578,-0.730480957031,10.4985681152,0.1,0.0,0.0,0.0,0.1,0.0,0.0,0.0,0.1
1452010580821639866,131,1452010580818195104,robocape,5.47229946197,-0.649965085487,-9.57665364115,0.0,10.0,0.0,0.0,0.0,10.0,0.0,0.0,0.0,10.0,0.0143810698864,0.0151800182135,0.00506000607115,1.0,0.0,0.0,0.0,1.0,0.0,0.0,0.0,1.0,0.264649658203,-0.656235351563,10.4686303711,0.1,0.0,0.0,0.0,0.1,0.0,0.0,0.0,0.1
1452010580854027824,132,1452010580850750923,robocape,5.49274422856,-0.621507748518,-9.54993383061,0.0,10.0,0.0,0.0,0.0,10.0,0.0,0.0,0.0,10.0,0.0151800182135,0.015313176268,0.00492684801665,1.0,0.0,0.0,0.0,1.0,0.0,0.0,0.0,1.0,0.237106933594,-0.568817138672,10.4243225098,0.1,0.0,0.0,0.0,0.1,0.0,0.0,0.0,0.1
1452010580887004741,133,1452010580883198976,robocape,5.52835639988,-0.59329646579,-9.52117704986,0.0,10.0,0.0,0.0,0.0,10.0,0.0,0.0,0.0,10.0,0.0231695014837,0.015313176268,0.00599211245268,1.0,0.0,0.0,0.0,1.0,0.0,0.0,0.0,1.0,-0.564027099609,-0.659827880859,10.4530627441,0.1,0.0,0.0,0.0,0.1,0.0,0.0,0.0,0.1
1452010580921769407,134,1452010580917988061,robocape,5.5885734606,-0.577603477225,-9.46415466422,0.0,10.0,0.0,0.0,0.0,10.0,0.0,0.0,0.0,10.0,0.0362189908251,0.0102531701968,0.0214384467751,1.0,0.0,0.0,0.0,1.0,0.0,0.0,0.0,1.0,-0.714913330078,-0.675395507813,10.7847729492,0.1,0.0,0.0,0.0,0.1,0.0,0.0,0.0,0.1
1452010580954422366,135,1452010580950489997,robocape,5.62011480077,-0.565691638541,-9.36966608375,0.0,10.0,0.0,0.0,0.0,10.0,0.0,0.0,0.0,10.0,0.0213052887206,0.0102531701968,0.0414121549507,1.0,0.0,0.0,0.0,1.0,0.0,0.0,0.0,1.0,-1.71483398438,-1.18673217773,10.8554260254,0.1,0.0,0.0,0.0,0.1,0.0,0.0,0.0,0.1
1452010580988523366,136,1452010580984930992,robocape,5.61544251658,-0.548063112891,-9.41330224137,0.0,10.0,0.0,0.0,0.0,10.0,0.0,0.0,0.0,10.0,0.00186421276306,0.00612527050718,-0.0312921428084,1.0,0.0,0.0,0.0,1.0,0.0,0.0,0.0,1.0,-3.6751574707,-1.6441809082,10.5213208008,0.1,0.0,0.0,0.0,0.1,0.0,0.0,0.0,0.1
1452010581020665741,137,1452010581017143011,robocape,5.70591851496,-0.580608962554,-9.39601353756,0.0,10.0,0.0,0.0,0.0,10.0,0.0,0.0,0.0,10.0,0.052064799311,-0.016911072922,0.00306263525359,1.0,0.0,0.0,0.0,1.0,0.0,0.0,0.0,1.0,-6.25579101563,-1.40827148438,10.3225341797,0.1,0.0,0.0,0.0,0.1,0.0,0.0,0.0,0.1
1452010581054640449,138,1452010581051064014,robocape,5.71497406903,-0.687189569954,-9.5681804547,0.0,10.0,0.0,0.0,0.0,10.0,0.0,0.0,0.0,10.0,0.00865527354276,-0.0655137628159,-0.0924116898257,1.0,0.0,0.0,0.0,1.0,0.0,0.0,0.0,1.0,-7.89518188477,-1.68369873047,11.3320349121,0.1,0.0,0.0,0.0,0.1,0.0,0.0,0.0,0.1
1452010581086606366,139,1452010581082856893,robocape,5.75602216901,-0.715710357188,-9.66677007426,0.0,10.0,0.0,0.0,0.0,10.0,0.0,0.0,0.0,10.0,0.0256995045193,-0.0210389726116,-0.0580569117637,1.0,0.0,0.0,0.0,1.0,0.0,0.0,0.0,1.0,-9.55732543945,-2.80576538086,9.88783813477,0.1,0.0,0.0,0.0,0.1,0.0,0.0,0.0,0.1
1452010581120294574,140,1452010581117084026,robocape,5.7820466815,-0.74036778845,-9.90978575747,0.0,10.0,0.0,0.0,0.0,10.0,0.0,0.0,0.0,10.0,0.017177389031,-0.0267647689553,-0.13422331894,1.0,0.0,0.0,0.0,1.0,0.0,0.0,0.0,1.0,-8.87115234375,-2.04534667969,12.0840710449,0.1,0.0,0.0,0.0,0.1,0.0,0.0,0.0,0.1
1452010581153170699,141,1452010581149962902,robocape,5.85348656484,-0.731500976412,-10.1109909444,0.0,10.0,0.0,0.0,0.0,10.0,0.0,0.0,0.0,10.0,0.0412789968962,-0.00719053494321,-0.114382768819,1.0,0.0,0.0,0.0,1.0,0.0,0.0,0.0,1.0,-5.50974243164,-1.78668457031,10.1261425781,0.1,0.0,0.0,0.0,0.1,0.0,0.0,0.0,0.1
1452010581187065074,142,1452010581183971881,robocape,6.05599250453,-0.785515566708,-10.254873264,0.0,10.0,0.0,0.0,0.0,10.0,0.0,0.0,0.0,10.0,0.110521185238,-0.0371510972066,-0.0813595713019,1.0,0.0,0.0,0.0,1.0,0.0,0.0,0.0,1.0,-7.28684692383,-1.93996582031,11.4446008301,0.1,0.0,0.0,0.0,0.1,0.0,0.0,0.0,0.1
1452010581219954782,143,1452010581216852903,robocape,6.1691612695,-0.735543202853,-10.6877950937,0.0,10.0,0.0,0.0,0.0,10.0,0.0,0.0,0.0,10.0,0.0624511275624,0.000532632218016,-0.239018707835,1.0,0.0,0.0,0.0,1.0,0.0,0.0,0.0,1.0,-9.05796386719,-1.17475708008,9.7369519043,0.1,0.0,0.0,0.0,0.1,0.0,0.0,0.0,0.1
1452010581252351116,144,1452010581249346017,robocape,6.60090937935,-0.758347907524,-10.9242150826,0.0,10.0,0.0,0.0,0.0,10.0,0.0,0.0,0.0,10.0,0.231162382619,-0.0270310850643,-0.132891738395,1.0,0.0,0.0,0.0,1.0,0.0,0.0,0.0,1.0,-7.17308349609,-2.05732177734,10.9655969238,0.1,0.0,0.0,0.0,0.1,0.0,0.0,0.0,0.1
1452010581286516907,145,1452010581283395051,robocape,7.17327022844,-0.691021540086,-11.3312843592,0.0,10.0,0.0,0.0,0.0,10.0,0.0,0.0,0.0,10.0,0.305198260923,0.00785632521573,-0.228898695692,1.0,0.0,0.0,0.0,1.0,0.0,0.0,0.0,1.0,-8.02930297852,-2.88839355469,10.6087390137,0.1,0.0,0.0,0.0,0.1,0.0,0.0,0.0,0.1
1452010581320471408,146,1452010581317224025,robocape,8.38696803288,0.221451977056,-12.6240458761,0.0,10.0,0.0,0.0,0.0,10.0,0.0,0.0,0.0,10.0,0.647547619053,0.380565719772,-0.758068804291,1.0,0.0,0.0,0.0,1.0,0.0,0.0,0.0,1.0,-9.87466552734,0.0299377441406,10.5668261719,0.1,0.0,0.0,0.0,0.1,0.0,0.0,0.0,0.1
1452010581353103783,147,1452010581349766016,robocape,10.0984758571,0.316475822178,-12.6179420717,0.0,10.0,0.0,0.0,0.0,10.0,0.0,0.0,0.0,10.0,0.910934250862,0.0487358479485,-0.0233026595382,1.0,0.0,0.0,0.0,1.0,0.0,0.0,0.0,1.0,-4.31223266602,-5.40196655273,5.5145324707,0.1,0.0,0.0,0.0,0.1,0.0,0.0,0.0,0.1
1452010581385641074,148,1452010581382344007,robocape,12.2247188591,0.462658304463,-12.9822063226,0.0,10.0,0.0,0.0,0.0,10.0,0.0,0.0,0.0,10.0,1.13876768212,0.0367516230431,-0.227567115147,1.0,0.0,0.0,0.0,1.0,0.0,0.0,0.0,1.0,-6.43901000977,-0.496966552734,11.2242590332,0.1,0.0,0.0,0.0,0.1,0.0,0.0,0.0,0.1
1452010581421147366,149,1452010581418025016,robocape,13.3822435143,0.757177181349,-12.3850740786,0.0,10.0,0.0,0.0,0.0,10.0,0.0,0.0,0.0,10.0,0.619184953443,0.219044999659,0.255397148539,1.0,0.0,0.0,0.0,1.0,0.0,0.0,0.0,1.0,-4.46551391602,0.17244140625,9.76449462891,0.1,0.0,0.0,0.0,0.1,0.0,0.0,0.0,0.1
1452010581452069991,150,1452010581448896884,robocape,14.9613027707,1.75557575771,-12.3235642445,0.0,10.0,0.0,0.0,0.0,10.0,0.0,0.0,0.0,10.0,0.854342077697,0.51532167093,-0.120508039326,1.0,0.0,0.0,0.0,1.0,0.0,0.0,0.0,1.0,-1.55077514648,0.347277832031,9.59085571289,0.1,0.0,0.0,0.0,0.1,0.0,0.0,0.0,0.1
1452010581484972366,151,1452010581481766939,robocape,16.7492905602,2.72697633728,-12.4367873457,0.0,10.0,0.0,0.0,0.0,10.0,0.0,0.0,0.0,10.0,0.977246962005,0.475507412634,-0.225436586275,1.0,0.0,0.0,0.0,1.0,0.0,0.0,0.0,1.0,-3.82245117188,1.78548706055,11.0530151367,0.1,0.0,0.0,0.0,0.1,0.0,0.0,0.0,0.1
1452010581517329574,152,1452010581514218091,robocape,18.2072386575,3.30746843632,-11.7054571926,0.0,10.0,0.0,0.0,0.0,10.0,0.0,0.0,0.0,10.0,0.776045141649,0.407729962891,0.251668723012,1.0,0.0,0.0,0.0,1.0,0.0,0.0,0.0,1.0,-2.39980957031,0.335302734375,8.28916259766,0.1,0.0,0.0,0.0,0.1,0.0,0.0,0.0,0.1
1452010581551130908,153,1452010581548122882,robocape,19.350305111,4.21355824127,-10.6928781799,0.0,10.0,0.0,0.0,0.0,10.0,0.0,0.0,0.0,10.0,0.595482819742,0.623712327297,0.329566184897,1.0,0.0,0.0,0.0,1.0,0.0,0.0,0.0,1.0,-2.57464599609,2.05492675781,10.3045715332,0.1,0.0,0.0,0.0,0.1,0.0,0.0,0.0,0.1
1452010581584112074,154,1452010581580753087,robocape,19.9401717124,5.03983734135,-9.65669370584,0.0,10.0,0.0,0.0,0.0,10.0,0.0,0.0,0.0,10.0,0.291083507146,0.593751765033,0.350205683345,1.0,0.0,0.0,0.0,1.0,0.0,0.0,0.0,1.0,-1.94236083984,0.189206542969,9.06275390625,0.1,0.0,0.0,0.0,0.1,0.0,0.0,0.0,0.1
1452010581617200033,155,1452010581614151954,robocape,20.7559316067,5.77905077367,-8.59687771913,0.0,10.0,0.0,0.0,0.0,10.0,0.0,0.0,0.0,10.0,0.406931014564,0.561660673898,0.368581494867,1.0,0.0,0.0,0.0,1.0,0.0,0.0,0.0,1.0,-5.3265234375,1.18074462891,10.7524401855,0.1,0.0,0.0,0.0,0.1,0.0,0.0,0.0,0.1
1452010581650402574,156,1452010581647291898,robocape,21.3457292569,6.66123689465,-7.66544265284,0.0,10.0,0.0,0.0,0.0,10.0,0.0,0.0,0.0,10.0,0.288952978274,0.613325999045,0.272840853679,1.0,0.0,0.0,0.0,1.0,0.0,0.0,0.0,1.0,-3.05364990234,0.512534179688,9.88903564453,0.1,0.0,0.0,0.0,0.1,0.0,0.0,0.0,0.1
1452010581684367074,157,1452010581681165933,robocape,22.3386942986,7.56664049219,-6.54445143995,0.0,10.0,0.0,0.0,0.0,10.0,0.0,0.0,0.0,10.0,0.490421114738,0.668986065828,0.348740944746,1.0,0.0,0.0,0.0,1.0,0.0,0.0,0.0,1.0,-4.02123779297,2.40938964844,12.0493432617,0.1,0.0,0.0,0.0,0.1,0.0,0.0,0.0,0.1
1452010581717127408,158,1452010581713737964,robocape,23.1452239484,8.40950026222,-5.03411239984,0.0,10.0,0.0,0.0,0.0,10.0,0.0,0.0,0.0,10.0,0.352602528326,0.722781919848,0.539822752959,1.0,0.0,0.0,0.0,1.0,0.0,0.0,0.0,1.0,-7.02459228516,0.914897460938,9.04479125977,0.1,0.0,0.0,0.0,0.1,0.0,0.0,0.0,0.1
1452010581750367324,159,1452010581747370958,robocape,23.8603681171,9.37635695114,-3.48779072813,0.0,10.0,0.0,0.0,0.0,10.0,0.0,0.0,0.0,10.0,0.292814561854,0.799214643133,0.521446941438,1.0,0.0,0.0,0.0,1.0,0.0,0.0,0.0,1.0,-3.35063232422,7.61496459961,9.41003173828,0.1,0.0,0.0,0.0,0.1,0.0,0.0,0.0,0.1
1452010581783618408,160,1452010581780474901,robocape,23.3111758413,10.0703331765,-2.77564766232,0.0,10.0,0.0,0.0,0.0,10.0,0.0,0.0,0.0,10.0,-0.332096187933,0.487491637539,0.187486540742,1.0,0.0,0.0,0.0,1.0,0.0,0.0,0.0,1.0,0.726888427734,4.4834765625,8.12630126953,0.1,0.0,0.0,0.0,0.1,0.0,0.0,0.0,0.1
1452010581816726991,161,1452010581813724040,robocape,23.0587000503,10.4826164224,-1.85723158457,0.0,10.0,0.0,0.0,0.0,10.0,0.0,0.0,0.0,10.0,-0.196141814284,0.394280999386,0.346077783656,1.0,0.0,0.0,0.0,1.0,0.0,0.0,0.0,1.0,-5.76720703125,0.726888427734,11.5619567871,0.1,0.0,0.0,0.0,0.1,0.0,0.0,0.0,0.1
1452010581850359283,162,1452010581847033023,robocape,23.0919628092,10.8228118595,-1.07843757776,0.0,10.0,0.0,0.0,0.0,10.0,0.0,0.0,0.0,10.0,-0.0292947719909,0.33409355875,0.294678774617,1.0,0.0,0.0,0.0,1.0,0.0,0.0,0.0,1.0,-1.17834960938,2.62494140625,8.04606811523,0.1,0.0,0.0,0.0,0.1,0.0,0.0,0.0,0.1
1452010581883761658,163,1452010581880615949,robocape,22.9781647294,11.3598859783,-0.299092896322,0.0,10.0,0.0,0.0,0.0,10.0,0.0,0.0,0.0,10.0,-0.110254869129,0.429168409666,0.25513083243,1.0,0.0,0.0,0.0,1.0,0.0,0.0,0.0,1.0,-2.31358886719,3.79131591797,9.87825805664,0.1,0.0,0.0,0.0,0.1,0.0,0.0,0.0,0.1
1452010581917008533,164,1452010581913983106,robocape,22.8130750496,11.9296902669,0.542598298281,0.0,10.0,0.0,0.0,0.0,10.0,0.0,0.0,0.0,10.0,-0.148071756608,0.457264759167,0.27909928224,1.0,0.0,0.0,0.0,1.0,0.0,0.0,0.0,1.0,-2.98179931641,1.75794433594,8.98491577148,0.1,0.0,0.0,0.0,0.1,0.0,0.0,0.0,0.1
1452010581951019074,165,1452010581947644948,robocape,22.6666565247,12.4126485392,1.38287022018,0.0,10.0,0.0,0.0,0.0,10.0,0.0,0.0,0.0,10.0,-0.142079644156,0.414920497834,0.297341935707,1.0,0.0,0.0,0.0,1.0,0.0,0.0,0.0,1.0,-1.94355834961,2.77702514648,11.3715527344,0.1,0.0,0.0,0.0,0.1,0.0,0.0,0.0,0.1
1452010581983807199,166,1452010581980590105,robocape,22.7331046278,13.038207666,2.31799655707,0.0,10.0,0.0,0.0,0.0,10.0,0.0,0.0,0.0,10.0,-0.0391484680242,0.506932713497,0.313454060302,1.0,0.0,0.0,0.0,1.0,0.0,0.0,0.0,1.0,-2.9470715332,1.78907958984,9.23998535156,0.1,0.0,0.0,0.0,0.1,0.0,0.0,0.0,0.1
1452010582016965825,167,1452010582013861894,robocape,22.0005985927,13.5098593299,3.47685454617,0.0,10.0,0.0,0.0,0.0,10.0,0.0,0.0,0.0,10.0,-0.506799555442,0.463789503837,0.452604227259,1.0,0.0,0.0,0.0,1.0,0.0,0.0,0.0,1.0,-0.621507568359,1.14841186523,10.080637207,0.1,0.0,0.0,0.0,0.1,0.0,0.0,0.0,0.1
1452010582050529783,168,1452010582047164916,robocape,21.5367571117,14.0728783722,4.73282182149,0.0,10.0,0.0,0.0,0.0,10.0,0.0,0.0,0.0,10.0,-0.376570978137,0.527305895836,0.48576058283,1.0,0.0,0.0,0.0,1.0,0.0,0.0,0.0,1.0,-2.18904785156,4.61999267578,10.9548193359,0.1,0.0,0.0,0.0,0.1,0.0,0.0,0.0,0.1
1452010582083481658,169,1452010582080387115,robocape,20.6363157728,14.8295087665,5.41196526942,0.0,10.0,0.0,0.0,0.0,10.0,0.0,0.0,0.0,10.0,-0.542885388213,0.50733218766,0.180828638016,1.0,0.0,0.0,0.0,1.0,0.0,0.0,0.0,1.0,-2.94347900391,2.77702514648,12.2098095703,0.1,0.0,0.0,0.0,0.1,0.0,0.0,0.0,0.1
1452010582116903366,170,1452010582113845109,robocape,19.6527880466,15.135029983,6.28782466655,0.0,10.0,0.0,0.0,0.0,10.0,0.0,0.0,0.0,10.0,-0.621581798424,0.313187744193,0.362988856578,1.0,0.0,0.0,0.0,1.0,0.0,0.0,0.0,1.0,-2.59500366211,-0.492176513672,10.2027832031,0.1,0.0,0.0,0.0,0.1,0.0,0.0,0.0,0.1
1452010582150500950,171,1452010582147109031,robocape,19.2272332476,15.2630952985,6.83152214268,0.0,10.0,0.0,0.0,0.0,10.0,0.0,0.0,0.0,10.0,-0.279498756404,0.170841783929,0.240749762543,1.0,0.0,0.0,0.0,1.0,0.0,0.0,0.0,1.0,-3.47038330078,-2.69798950195,8.71906860352,0.1,0.0,0.0,0.0,0.1,0.0,0.0,0.0,0.1
1452010582184560616,172,1452010582181041955,robocape,19.8786128434,15.4504419865,7.24574343377,0.0,10.0,0.0,0.0,0.0,10.0,0.0,0.0,0.0,10.0,0.317848276101,0.192679704867,0.172439680583,1.0,0.0,0.0,0.0,1.0,0.0,0.0,0.0,1.0,-1.61424316406,-2.92431884766,8.69152587891,0.1,0.0,0.0,0.0,0.1,0.0,0.0,0.0,0.1
1452010582217397533,173,1452010582214029073,robocape,21.3351918559,15.7571382839,7.47363208224,0.0,10.0,0.0,0.0,0.0,10.0,0.0,0.0,0.0,10.0,0.781637779938,0.2335592276,0.0625842856169,1.0,0.0,0.0,0.0,1.0,0.0,0.0,0.0,1.0,0.526904296875,-3.18178344727,8.68553833008,0.1,0.0,0.0,0.0,0.1,0.0,0.0,0.0,0.1
1452010582251002283,174,1452010582247637987,robocape,23.1308242611,16.8798170698,8.27273538576,0.0,10.0,0.0,0.0,0.0,10.0,0.0,0.0,0.0,10.0,0.899482658174,0.760731965381,0.165914935912,1.0,0.0,0.0,0.0,1.0,0.0,0.0,0.0,1.0,-3.61288696289,10.6015539551,8.32269287109,0.1,0.0,0.0,0.0,0.1,0.0,0.0,0.0,0.1
1452010582283421075,175,1452010582280433893,robocape,22.4365316344,17.8553385379,9.36480341478,0.0,10.0,0.0,0.0,0.0,10.0,0.0,0.0,0.0,10.0,-0.503071129916,0.711729801324,0.313320902248,1.0,0.0,0.0,0.0,1.0,0.0,0.0,0.0,1.0,-1.88727539063,8.56937988281,6.11568237305,0.1,0.0,0.0,0.0,0.1,0.0,0.0,0.0,0.1
1452010582316950825,176,1452010582313842058,robocape,20.6101381887,18.4427745151,10.6245442026,0.0,10.0,0.0,0.0,0.0,10.0,0.0,0.0,0.0,10.0,-1.15408085839,0.5247758928,0.473110567653,1.0,0.0,0.0,0.0,1.0,0.0,0.0,0.0,1.0,-5.34089355469,4.34217041016,14.0060742188,0.1,0.0,0.0,0.0,0.1,0.0,0.0,0.0,0.1
1452010582351105450,177,1452010582347249031,robocape,18.5044944354,17.6205162537,12.6294842141,0.0,10.0,0.0,0.0,0.0,10.0,0.0,0.0,0.0,10.0,-1.43278066646,-0.0777643038303,1.08230866701,1.0,0.0,0.0,0.0,1.0,0.0,0.0,0.0,1.0,-7.50239868164,-4.35773803711,3.69312011719,0.1,0.0,0.0,0.0,0.1,0.0,0.0,0.0,0.1
1452010582384489325,178,1452010582381016016,robocape,17.2123604626,18.0166043185,13.3280434586,0.0,10.0,0.0,0.0,0.0,10.0,0.0,0.0,0.0,10.0,-0.775113035268,0.3222424919,0.276968753368,1.0,0.0,0.0,0.0,1.0,0.0,0.0,0.0,1.0,-6.59109375,0.9580078125,9.0783215332,0.1,0.0,0.0,0.0,0.1,0.0,0.0,0.0,0.1
1452010582418267700,179,1452010582415043115,robocape,15.511441594,18.0902078129,14.3243355094,0.0,10.0,0.0,0.0,0.0,10.0,0.0,0.0,0.0,10.0,-1.04382598926,0.190016543777,0.472577935435,1.0,0.0,0.0,0.0,1.0,0.0,0.0,0.0,1.0,-1.70884643555,3.17100585938,10.7739953613,0.1,0.0,0.0,0.0,0.1,0.0,0.0,0.0,0.1
1452010582451449991,180,1452010582447613000,robocape,13.4943881876,18.0284571709,15.0749971438,0.0,10.0,0.0,0.0,0.0,10.0,0.0,0.0,0.0,10.0,-1.17325561823,0.0712395591596,0.375505713701,1.0,0.0,0.0,0.0,1.0,0.0,0.0,0.0,1.0,-0.131726074219,1.33642089844,8.79211669922,0.1,0.0,0.0,0.0,0.1,0.0,0.0,0.0,0.1
1452010582483486241,181,1452010582480329036,robocape,11.2124792287,17.8793760351,15.7102244485,0.0,10.0,0.0,0.0,0.0,10.0,0.0,0.0,0.0,10.0,-1.29416313172,-0.000798948327024,0.331164081551,1.0,0.0,0.0,0.0,1.0,0.0,0.0,0.0,1.0,-1.63340332031,1.18673217773,9.37171142578,0.1,0.0,0.0,0.0,0.1,0.0,0.0,0.0,0.1
1452010582517028325,182,1452010582513825893,robocape,8.70074219646,17.424278044,16.2185875571,0.0,10.0,0.0,0.0,0.0,10.0,0.0,0.0,0.0,10.0,-1.39456430482,-0.186021802142,0.294811932672,1.0,0.0,0.0,0.0,1.0,0.0,0.0,0.0,1.0,-0.999920654297,1.06817871094,9.02802612305,0.1,0.0,0.0,0.0,0.1,0.0,0.0,0.0,0.1
1452010582550508991,183,1452010582547255992,robocape,5.88513152603,16.828224276,16.7508870532,0.0,10.0,0.0,0.0,0.0,10.0,0.0,0.0,0.0,10.0,-1.55555239272,-0.269511902316,0.309326160613,1.0,0.0,0.0,0.0,1.0,0.0,0.0,0.0,1.0,0.802331542969,1.18313964844,8.94420043945,0.1,0.0,0.0,0.0,0.1,0.0,0.0,0.0,0.1
1452010582583835033,184,1452010582580775976,robocape,2.51863374271,15.9224556502,17.1351591807,0.0,10.0,0.0,0.0,0.0,10.0,0.0,0.0,0.0,10.0,-1.82000428896,-0.454068965859,0.232227647055,1.0,0.0,0.0,0.0,1.0,0.0,0.0,0.0,1.0,-1.33522338867,-0.486188964844,6.48930541992,0.1,0.0,0.0,0.0,0.1,0.0,0.0,0.0,0.1
1452010582616791700,185,1452010582613713979,robocape,-1.16212849765,14.7736264983,17.4554532237,0.0,10.0,0.0,0.0,0.0,10.0,0.0,0.0,0.0,10.0,-1.97433447413,-0.591621236161,0.178298634981,1.0,0.0,0.0,0.0,1.0,0.0,0.0,0.0,1.0,-0.615520019531,-0.192799072266,7.75627075195,0.1,0.0,0.0,0.0,0.1,0.0,0.0,0.0,0.1
1452010582651531533,186,1452010582648227930,robocape,-5.05906545378,13.4394518291,17.578896681,0.0,10.0,0.0,0.0,0.0,10.0,0.0,0.0,0.0,10.0,-2.06341721259,-0.689758722331,0.0402137324602,1.0,0.0,0.0,0.0,1.0,0.0,0.0,0.0,1.0,0.700543212891,-0.432301025391,6.5527734375,0.1,0.0,0.0,0.0,0.1,0.0,0.0,0.0,0.1
1452010582684754825,187,1452010582680814027,robocape,-8.88955774676,12.1017565631,17.5312920776,0.0,10.0,0.0,0.0,0.0,10.0,0.0,0.0,0.0,10.0,-2.01574662908,-0.677241865207,-0.0846885226645,1.0,0.0,0.0,0.0,1.0,0.0,0.0,0.0,1.0,1.66094604492,-1.54838012695,7.43653564453,0.1,0.0,0.0,0.0,0.1,0.0,0.0,0.0,0.1
1452010582717248700,188,1452010582714070081,robocape,-13.3376864883,9.62588798641,16.8795392167,0.0,10.0,0.0,0.0,0.0,10.0,0.0,0.0,0.0,10.0,-2.28326116058,-1.19868880664,-0.558997512808,1.0,0.0,0.0,0.0,1.0,0.0,0.0,0.0,1.0,3.16022827148,-1.09572143555,8.19575683594,0.1,0.0,0.0,0.0,0.1,0.0,0.0,0.0,0.1
1452010582750513575,189,1452010582747400045,robocape,-16.2225385023,9.04215625817,11.5569679757,0.0,10.0,0.0,0.0,0.0,10.0,0.0,0.0,0.0,10.0,-1.03770071875,0.396278370204,-2.75504014769,1.0,0.0,0.0,0.0,1.0,0.0,0.0,0.0,1.0,16.053815918,-19.62,19.6194012451,0.1,0.0,0.0,0.0,0.1,0.0,0.0,0.0,0.1
1452010582783829367,190,1452010582780807971,robocape,-14.3696396748,10.5219928965,9.40288415028,0.0,10.0,0.0,0.0,0.0,10.0,0.0,0.0,0.0,10.0,1.17285614407,1.03410545128,-0.876179998636,1.0,0.0,0.0,0.0,1.0,0.0,0.0,0.0,1.0,0.129331054688,-7.96343994141,11.3212573242,0.1,0.0,0.0,0.0,0.1,0.0,0.0,0.0,0.1
1452010582816844450,191,1452010582813853979,robocape,-11.7297749919,11.1999107832,8.3669154019,0.0,10.0,0.0,0.0,0.0,10.0,0.0,0.0,0.0,10.0,1.49403337153,0.458596339712,-0.446345798697,1.0,0.0,0.0,0.0,1.0,0.0,0.0,0.0,1.0,-7.73232055664,-3.35182983398,7.127578125,0.1,0.0,0.0,0.0,0.1,0.0,0.0,0.0,0.1
1452010582850625117,192,1452010582847414970,robocape,-9.48116399052,12.0191252692,7.39714974271,0.0,10.0,0.0,0.0,0.0,10.0,0.0,0.0,0.0,10.0,1.28137995849,0.51146008735,-0.411458388417,1.0,0.0,0.0,0.0,1.0,0.0,0.0,0.0,1.0,-3.50990112305,-1.57951538086,9.04359375,0.1,0.0,0.0,0.0,0.1,0.0,0.0,0.0,0.1
1452010582883611533,193,1452010582880598068,robocape,-7.26298188062,12.6739178287,6.86899338602,0.0,10.0,0.0,0.0,0.0,10.0,0.0,0.0,0.0,10.0,1.21946146315,0.380565719772,-0.21611552246,1.0,0.0,0.0,0.0,1.0,0.0,0.0,0.0,1.0,-0.549656982422,-0.736468505859,8.6639831543,0.1,0.0,0.0,0.0,0.1,0.0,0.0,0.0,0.1
1452010582916746867,194,1452010582913724899,robocape,-5.34227937309,13.2986984167,6.41754967884,0.0,10.0,0.0,0.0,0.0,10.0,0.0,0.0,0.0,10.0,1.05607653027,0.356597269962,-0.189617069614,1.0,0.0,0.0,0.0,1.0,0.0,0.0,0.0,1.0,-2.39142700195,-1.66932861328,8.78014160156,0.1,0.0,0.0,0.0,0.1,0.0,0.0,0.0,0.1
1452010582950504617,195,1452010582947228908,robocape,-3.45348234972,13.8205429393,6.20215096108,0.0,10.0,0.0,0.0,0.0,10.0,0.0,0.0,0.0,10.0,1.01280016256,0.289751926601,-0.0838895743375,1.0,0.0,0.0,0.0,1.0,0.0,0.0,0.0,1.0,-3.56618408203,-1.36037109375,8.64961303711,0.1,0.0,0.0,0.0,0.1,0.0,0.0,0.0,0.1
1452010582983694367,196,1452010582980621099,robocape,-1.72123759168,14.5324705381,5.98826945978,0.0,10.0,0.0,0.0,0.0,10.0,0.0,0.0,0.0,10.0,0.932239539582,0.390818889969,-0.085620629046,1.0,0.0,0.0,0.0,1.0,0.0,0.0,0.0,1.0,-0.849034423828,0.0383203125,9.54415283203,0.1,0.0,0.0,0.0,0.1,0.0,0.0,0.0,0.1
1452010583016925075,197,1452010583013828992,robocape,-0.000279392818368,15.1541794757,5.91149357661,0.0,10.0,0.0,0.0,0.0,10.0,0.0,0.0,0.0,10.0,0.910667934753,0.342216200075,-0.0274305592278,1.0,0.0,0.0,0.0,1.0,0.0,0.0,0.0,1.0,-0.631087646484,-0.0275427246094,9.19807250977,0.1,0.0,0.0,0.0,0.1,0.0,0.0,0.0,0.1
1452010583050278908,198,1452010583047149896,robocape,1.76567282129,15.6872395386,6.03393925405,0.0,10.0,0.0,0.0,0.0,10.0,0.0,0.0,0.0,10.0,0.90880372199,0.298939832361,0.0647148144889,1.0,0.0,0.0,0.0,1.0,0.0,0.0,0.0,1.0,-0.480201416016,0.299377441406,10.785970459,0.1,0.0,0.0,0.0,0.1,0.0,0.0,0.0,0.1
1452010583083728992,199,1452010583080688953,robocape,3.30452110793,16.146657586,6.10515387508,0.0,10.0,0.0,0.0,0.0,10.0,0.0,0.0,0.0,10.0,0.798682010915,0.262720841536,0.0326237233535,1.0,0.0,0.0,0.0,1.0,0.0,0.0,0.0,1.0,-1.70166137695,-1.66334106445,7.97661254883,0.1,0.0,0.0,0.0,0.1,0.0,0.0,0.0,0.1
1452010583116758450,200,1452010583113703012,robocape,5.06620630034,16.7593240837,6.29954277862,0.0,10.0,0.0,0.0,0.0,10.0,0.0,0.0,0.0,10.0,0.900015290392,0.353268318599,0.0828243099015,1.0,0.0,0.0,0.0,1.0,0.0,0.0,0.0,1.0,-1.15200439453,0.45984375,9.5070300293,0.1,0.0,0.0,0.0,0.1,0.0,0.0,0.0,0.1
1452010583150254367,201,1452010583147146940,robocape,6.58012500041,17.3734885202,6.70144928898,0.0,10.0,0.0,0.0,0.0,10.0,0.0,0.0,0.0,10.0,0.740358783042,0.370578865685,0.177499686654,1.0,0.0,0.0,0.0,1.0,0.0,0.0,0.0,1.0,-3.15184570313,0.349672851562,9.49026489258,0.1,0.0,0.0,0.0,0.1,0.0,0.0,0.0,0.1
1452010583183980283,202,1452010583180546998,robocape,7.88242224693,18.2618053167,7.19105886025,0.0,10.0,0.0,0.0,0.0,10.0,0.0,0.0,0.0,10.0,0.616788108462,0.529569582762,0.195609182066,1.0,0.0,0.0,0.0,1.0,0.0,0.0,0.0,1.0,-0.596359863281,2.58781860352,9.78604980469,0.1,0.0,0.0,0.0,0.1,0.0,0.0,0.0,0.1
1452010583216789825,203,1452010583213754892,robocape,8.348780408,18.9169033106,7.91375687728,0.0,10.0,0.0,0.0,0.0,10.0,0.0,0.0,0.0,10.0,0.135954373649,0.425173668031,0.318247750264,1.0,0.0,0.0,0.0,1.0,0.0,0.0,0.0,1.0,-2.13994995117,3.33865722656,11.6721276855,0.1,0.0,0.0,0.0,0.1,0.0,0.0,0.0,0.1
1452010583251585408,204,1452010583248333930,robocape,8.02840138252,19.3732708187,8.8464266617,0.0,10.0,0.0,0.0,0.0,10.0,0.0,0.0,0.0,10.0,-0.31811459221,0.333161452369,0.433828941574,1.0,0.0,0.0,0.0,1.0,0.0,0.0,0.0,1.0,-3.08358764648,3.30991699219,8.26161987305,0.1,0.0,0.0,0.0,0.1,0.0,0.0,0.0,0.1
1452010583283440075,205,1452010583280438899,robocape,6.80290396972,19.7140779196,9.92848826626,0.0,10.0,0.0,0.0,0.0,10.0,0.0,0.0,0.0,10.0,-0.824780989598,0.272974011733,0.517585357857,1.0,0.0,0.0,0.0,1.0,0.0,0.0,0.0,1.0,-3.3721875,4.12661865234,10.3273242188,0.1,0.0,0.0,0.0,0.1,0.0,0.0,0.0,0.1
1452010583316936158,206,1452010583313918113,robocape,4.59683764246,19.6080126645,10.9083309021,0.0,10.0,0.0,0.0,0.0,10.0,0.0,0.0,0.0,10.0,-1.32572159064,0.0105194863058,0.494815330537,1.0,0.0,0.0,0.0,1.0,0.0,0.0,0.0,1.0,-3.41170532227,1.27295288086,8.10594360352,0.1,0.0,0.0,0.0,0.1,0.0,0.0,0.0,0.1
1452010583350265325,207,1452010583347172975,robocape,1.84075103835,18.9222078578,11.7595813314,0.0,10.0,0.0,0.0,0.0,10.0,0.0,0.0,0.0,10.0,-1.5907061191,-0.323973546608,0.446612114806,1.0,0.0,0.0,0.0,1.0,0.0,0.0,0.0,1.0,-2.62613891602,-0.0946032714844,6.92400146484,0.1,0.0,0.0,0.0,0.1,0.0,0.0,0.0,0.1
1452010583383298492,208,1452010583380317926,robocape,-1.4484054542,18.2903988959,12.0156497874,0.0,10.0,0.0,0.0,0.0,10.0,0.0,0.0,0.0,10.0,-1.76793948965,-0.317448801937,0.136487005867,1.0,0.0,0.0,0.0,1.0,0.0,0.0,0.0,1.0,-3.09436523438,2.15671508789,10.3033740234,0.1,0.0,0.0,0.0,0.1,0.0,0.0,0.0,0.1
1452010583417501242,209,1452010583414346933,robocape,-5.05243279925,17.0272866984,12.5006557873,0.0,10.0,0.0,0.0,0.0,10.0,0.0,0.0,0.0,10.0,-1.9706060486,-0.660597108394,0.214517625806,1.0,0.0,0.0,0.0,1.0,0.0,0.0,0.0,1.0,1.91362060547,-3.14466064453,4.26433227539,0.1,0.0,0.0,0.0,0.1,0.0,0.0,0.0,0.1
1452010583451109575,210,1452010583447846889,robocape,-8.6682493375,15.6196328113,12.9076033809,0.0,10.0,0.0,0.0,0.0,10.0,0.0,0.0,0.0,10.0,-1.96714393919,-0.737695621952,0.131959632013,1.0,0.0,0.0,0.0,1.0,0.0,0.0,0.0,1.0,0.0383203125,-1.05979614258,9.62438598633,0.1,0.0,0.0,0.0,0.1,0.0,0.0,0.0,0.1
1452010583483620992,211,1452010583480460882,robocape,-13.0274544283,13.2973258131,12.894303632,0.0,10.0,0.0,0.0,0.0,10.0,0.0,0.0,0.0,10.0,-2.30110433988,-1.17778299209,-0.217846577168,1.0,0.0,0.0,0.0,1.0,0.0,0.0,0.0,1.0,1.16397949219,-1.16517700195,5.19479736328,0.1,0.0,0.0,0.0,0.1,0.0,0.0,0.0,0.1
1452010583517142117,212,1452010583513848066,robocape,-17.1727437302,12.4667845234,13.1659526083,0.0,10.0,0.0,0.0,0.0,10.0,0.0,0.0,0.0,10.0,-2.26288797824,-0.421312084451,0.0667121853065,1.0,0.0,0.0,0.0,1.0,0.0,0.0,0.0,1.0,-4.44036621094,-13.1007568359,11.9810852051,0.1,0.0,0.0,0.0,0.1,0.0,0.0,0.0,0.1
1452010583550786575,213,1452010583547384023,robocape,-16.7879976229,12.4603357172,10.1103665002,0.0,10.0,0.0,0.0,0.0,10.0,0.0,0.0,0.0,10.0,0.56379120277,0.442217899008,-1.50721601893,1.0,0.0,0.0,0.0,1.0,0.0,0.0,0.0,1.0,7.91314453125,-11.3032946777,19.6194012451,0.1,0.0,0.0,0.0,0.1,0.0,0.0,0.0,0.1
1452010583583710617,214,1452010583580331087,robocape,-16.117765464,13.0284931518,9.06860088799,0.0,10.0,0.0,0.0,0.0,10.0,0.0,0.0,0.0,10.0,0.463656345783,0.441285792626,-0.421045768342,1.0,0.0,0.0,0.0,1.0,0.0,0.0,0.0,1.0,-1.44539428711,-7.90356445313,7.20900878906,0.1,0.0,0.0,0.0,0.1,0.0,0.0,0.0,0.1
1452010583617074742,215,1452010583613852977,robocape,-14.6235536131,13.5755664177,7.62230406291,0.0,10.0,0.0,0.0,0.0,10.0,0.0,0.0,0.0,10.0,0.960868521301,0.468183719636,-0.63742760691,1.0,0.0,0.0,0.0,1.0,0.0,0.0,0.0,1.0,-0.608334960938,1.54359008789,13.7222644043,0.1,0.0,0.0,0.0,0.1,0.0,0.0,0.0,0.1
1452010583650398742,216,1452010583647165060,robocape,-13.5993595654,13.7301917073,6.74558816121,0.0,10.0,0.0,0.0,0.0,10.0,0.0,0.0,0.0,10.0,0.642221296873,0.189483911559,-0.411458388417,1.0,0.0,0.0,0.0,1.0,0.0,0.0,0.0,1.0,2.97820678711,-0.650247802734,6.99345703125,0.1,0.0,0.0,0.0,0.1,0.0,0.0,0.0,0.1
1452010583683884617,217,1452010583680392980,robocape,-12.6307859501,14.0722222797,5.94331806968,0.0,10.0,0.0,0.0,0.0,10.0,0.0,0.0,0.0,10.0,0.602939670794,0.272175063406,-0.353534634708,1.0,0.0,0.0,0.0,1.0,0.0,0.0,0.0,1.0,-0.280217285156,0.409548339844,13.1031518555,0.1,0.0,0.0,0.0,0.1,0.0,0.0,0.0,0.1
1452010583716958409,218,1452010583713838100,robocape,-11.3594141241,13.8015356901,5.03317314036,0.0,10.0,0.0,0.0,0.0,10.0,0.0,0.0,0.0,10.0,0.781904096047,-0.0440753160408,-0.482697947577,1.0,0.0,0.0,0.0,1.0,0.0,0.0,0.0,1.0,5.67140625,1.95553344727,10.5799987793,0.1,0.0,0.0,0.0,0.1,0.0,0.0,0.0,0.1
1452010583750675617,219,1452010583747474908,robocape,-10.8656477946,14.4657975254,3.48739966482,0.0,10.0,0.0,0.0,0.0,10.0,0.0,0.0,0.0,10.0,0.448343169515,0.502671655752,-0.699612418364,1.0,0.0,0.0,0.0,1.0,0.0,0.0,0.0,1.0,5.93725341797,0.296982421875,10.9045239258,0.1,0.0,0.0,0.0,0.1,0.0,0.0,0.0,0.1
1452010583783521367,220,1452010583780545949,robocape,-10.0618998851,14.559790763,3.17022868823,0.0,10.0,0.0,0.0,0.0,10.0,0.0,0.0,0.0,10.0,0.456332652785,0.0860201032096,-0.146473859954,1.0,0.0,0.0,0.0,1.0,0.0,0.0,0.0,1.0,-1.1148815918,-1.04782104492,8.74661132813,0.1,0.0,0.0,0.0,0.1,0.0,0.0,0.0,0.1
1452010583816821909,221,1452010583813795089,robocape,-9.22319817137,14.7228978478,2.75556626002,0.0,10.0,0.0,0.0,0.0,10.0,0.0,0.0,0.0,10.0,0.488157427812,0.128364364542,-0.190282859886,1.0,0.0,0.0,0.0,1.0,0.0,0.0,0.0,1.0,0.687370605469,-1.98427368164,11.3464050293,0.1,0.0,0.0,0.0,0.1,0.0,0.0,0.0,0.1
1452010583850541409,222,1452010583847213983,robocape,-8.35220751285,14.9580571132,2.16516683767,0.0,10.0,0.0,0.0,0.0,10.0,0.0,0.0,0.0,10.0,0.529702740817,0.176967054436,-0.274305592278,1.0,0.0,0.0,0.0,1.0,0.0,0.0,0.0,1.0,-0.874182128906,-1.54957763672,9.54654785156,0.1,0.0,0.0,0.0,0.1,0.0,0.0,0.0,0.1
1452010583885002909,223,1452010583881885051,robocape,-7.56329803538,15.246759489,1.48939643425,0.0,10.0,0.0,0.0,0.0,10.0,0.0,0.0,0.0,10.0,0.499609020499,0.208259197244,-0.31545143112,1.0,0.0,0.0,0.0,1.0,0.0,0.0,0.0,1.0,-5.33610351563,-3.72904541016,8.37298828125,0.1,0.0,0.0,0.0,0.1,0.0,0.0,0.0,0.1
1452010583918042700,224,1452010583914931058,robocape,-6.72192689509,15.920371398,0.515231648106,0.0,10.0,0.0,0.0,0.0,10.0,0.0,0.0,0.0,10.0,0.571114895767,0.426638406631,-0.442084740953,1.0,0.0,0.0,0.0,1.0,0.0,0.0,0.0,1.0,-6.32404907227,-3.91465942383,8.51908447266,0.1,0.0,0.0,0.0,0.1,0.0,0.0,0.0,0.1
1452010583951840534,225,1452010583948266983,robocape,-5.61322211368,16.4592387344,0.254034032877,0.0,10.0,0.0,0.0,0.0,10.0,0.0,0.0,0.0,10.0,0.613325999045,0.310391425049,-0.0990695925509,1.0,0.0,0.0,0.0,1.0,0.0,0.0,0.0,1.0,-1.6513659668,-1.5328125,9.33818115234,0.1,0.0,0.0,0.0,0.1,0.0,0.0,0.0,0.1
1452010583985017742,226,1452010583981832981,robocape,-4.26825499255,16.9765195793,-0.121611757076,0.0,10.0,0.0,0.0,0.0,10.0,0.0,0.0,0.0,10.0,0.756870381801,0.302268783724,-0.163651248985,1.0,0.0,0.0,0.0,1.0,0.0,0.0,0.0,1.0,0.235909423828,0.3065625,11.3895153809,0.1,0.0,0.0,0.0,0.1,0.0,0.0,0.0,0.1
1452010584018262867,227,1452010584015227079,robocape,-2.5938462549,17.4020927083,-0.290351647934,0.0,10.0,0.0,0.0,0.0,10.0,0.0,0.0,0.0,10.0,0.90054792261,0.243812397797,-0.0705737688871,1.0,0.0,0.0,0.0,1.0,0.0,0.0,0.0,1.0,0.116158447266,-0.658630371094,9.91538085938,0.1,0.0,0.0,0.0,0.1,0.0,0.0,0.0,0.1
1452010584051153200,228,1452010584047678947,robocape,-0.924086899438,17.7517408197,-0.365487501102,0.0,10.0,0.0,0.0,0.0,10.0,0.0,0.0,0.0,10.0,0.885367904397,0.202133926737,-0.0318247750264,1.0,0.0,0.0,0.0,1.0,0.0,0.0,0.0,1.0,0.136516113281,-1.11009155273,8.80169677734,0.1,0.0,0.0,0.0,0.1,0.0,0.0,0.0,0.1
1452010584084208325,229,1452010584081080913,robocape,1.12747894627,18.2501891183,-0.215443787594,0.0,10.0,0.0,0.0,0.0,10.0,0.0,0.0,0.0,10.0,1.05141599836,0.283626656093,0.0741690363587,1.0,0.0,0.0,0.0,1.0,0.0,0.0,0.0,1.0,-0.605939941406,-0.765208740234,9.22920776367,0.1,0.0,0.0,0.0,0.1,0.0,0.0,0.0,0.1
1452010584118752284,230,1452010584115658998,robocape,3.14677720664,18.7656275128,0.0393215640058,0.0,10.0,0.0,0.0,0.0,10.0,0.0,0.0,0.0,10.0,1.01945806528,0.301336677342,0.116113823527,1.0,0.0,0.0,0.0,1.0,0.0,0.0,0.0,1.0,-1.9196081543,-0.461041259766,9.2699230957,0.1,0.0,0.0,0.0,0.1,0.0,0.0,0.0,0.1
1452010584154089034,231,1452010584149852991,robocape,5.27322426644,19.4797856843,0.354592121513,0.0,10.0,0.0,0.0,0.0,10.0,0.0,0.0,0.0,10.0,1.06859338739,0.419314713633,0.127698574269,1.0,0.0,0.0,0.0,1.0,0.0,0.0,0.0,1.0,-0.799936523438,-0.217946777344,8.64721801758,0.1,0.0,0.0,0.0,0.1,0.0,0.0,0.0,0.1
1452010584187557742,232,1452010584182240962,robocape,7.32147343216,20.1254150377,0.901945963556,0.0,10.0,0.0,0.0,0.0,10.0,0.0,0.0,0.0,10.0,0.989098028855,0.404933643747,0.230762908455,1.0,0.0,0.0,0.0,1.0,0.0,0.0,0.0,1.0,-2.38543945313,-0.269439697266,7.87362670898,0.1,0.0,0.0,0.0,0.1,0.0,0.0,0.0,0.1
1452010584221151201,233,1452010584217083930,robocape,9.23483988087,20.9321555505,1.58755584558,0.0,10.0,0.0,0.0,0.0,10.0,0.0,0.0,0.0,10.0,0.895754232648,0.513990090385,0.272175063406,1.0,0.0,0.0,0.0,1.0,0.0,0.0,0.0,1.0,-0.737666015625,2.42854980469,11.3595776367,0.1,0.0,0.0,0.0,0.1,0.0,0.0,0.0,0.1
1452010584253982076,234,1452010584250262975,robocape,11.001298992,21.8856425772,2.37591504185,0.0,10.0,0.0,0.0,0.0,10.0,0.0,0.0,0.0,10.0,0.800546223678,0.615323369863,0.291749297418,1.0,0.0,0.0,0.0,1.0,0.0,0.0,0.0,1.0,0.372425537109,2.42136474609,9.10825927734,0.1,0.0,0.0,0.0,0.1,0.0,0.0,0.0,0.1
1452010584288046367,235,1452010584284986972,robocape,12.3455613542,22.8109031267,3.37425144147,0.0,10.0,0.0,0.0,0.0,10.0,0.0,0.0,0.0,10.0,0.53423011467,0.631568652512,0.377902558682,1.0,0.0,0.0,0.0,1.0,0.0,0.0,0.0,1.0,-3.03329223633,2.83091308594,11.7966687012,0.1,0.0,0.0,0.0,0.1,0.0,0.0,0.0,0.1
1452010584320596701,236,1452010584317157983,robocape,13.4789009346,23.6322439503,4.25743396477,0.0,10.0,0.0,0.0,0.0,10.0,0.0,0.0,0.0,10.0,0.442217899008,0.575109637403,0.321843017736,1.0,0.0,0.0,0.0,1.0,0.0,0.0,0.0,1.0,2.47166015625,3.72904541016,10.5716162109,0.1,0.0,0.0,0.0,0.1,0.0,0.0,0.0,0.1
1452010584354733451,237,1452010584350949048,robocape,13.8235348626,24.6770251031,5.21094069075,0.0,10.0,0.0,0.0,0.0,10.0,0.0,0.0,0.0,10.0,0.0067910607797,0.701609789181,0.318514066373,1.0,0.0,0.0,0.0,1.0,0.0,0.0,0.0,1.0,0.32572265625,4.73615112305,11.6613500977,0.1,0.0,0.0,0.0,0.1,0.0,0.0,0.0,0.1
1452010584388711076,238,1452010584385087013,robocape,13.7203131567,25.5993007119,6.25783855041,0.0,10.0,0.0,0.0,0.0,10.0,0.0,0.0,0.0,10.0,-0.260057680446,0.646216038508,0.373375184829,1.0,0.0,0.0,0.0,1.0,0.0,0.0,0.0,1.0,-2.48124023437,2.56267089844,9.2316027832,0.1,0.0,0.0,0.0,0.1,0.0,0.0,0.0,0.1
1452010584422179117,239,1452010584417181015,robocape,13.0474207943,26.2785661103,7.18888980453,0.0,10.0,0.0,0.0,0.0,10.0,0.0,0.0,0.0,10.0,-0.545681707357,0.496280069136,0.350871473618,1.0,0.0,0.0,0.0,1.0,0.0,0.0,0.0,1.0,-2.4105871582,3.4871484375,11.5847094727,0.1,0.0,0.0,0.0,0.1,0.0,0.0,0.0,0.1
1452010584454851284,240,1452010584450834989,robocape,12.1020847072,26.5913136322,8.3041888283,0.0,10.0,0.0,0.0,0.0,10.0,0.0,0.0,0.0,10.0,-0.741157731369,0.312655111975,0.481765841195,1.0,0.0,0.0,0.0,1.0,0.0,0.0,0.0,1.0,-4.17451904297,4.16613647461,10.6302941895,0.1,0.0,0.0,0.0,0.1,0.0,0.0,0.0,0.1
1452010584487957576,241,1452010584484690904,robocape,10.327231713,27.0969761246,9.26118325693,0.0,10.0,0.0,0.0,0.0,10.0,0.0,0.0,0.0,10.0,-1.14515926873,0.384693619462,0.395346263822,1.0,0.0,0.0,0.0,1.0,0.0,0.0,0.0,1.0,-1.50287475586,4.80800170898,10.1261425781,0.1,0.0,0.0,0.0,0.1,0.0,0.0,0.0,0.1
1452010584521170534,242,1452010584517900943,robocape,8.08383859095,26.3936894088,10.1653215077,0.0,10.0,0.0,0.0,0.0,10.0,0.0,0.0,0.0,10.0,-1.38750692793,-0.293746668236,0.476972151233,1.0,0.0,0.0,0.0,1.0,0.0,0.0,0.0,1.0,-3.01532958984,1.19032470703,8.68074829102,0.1,0.0,0.0,0.0,0.1,0.0,0.0,0.0,0.1
1452010584553693242,243,1452010584550326108,robocape,4.97958619027,26.100528636,10.8933800614,0.0,10.0,0.0,0.0,0.0,10.0,0.0,0.0,0.0,10.0,-1.79337267806,-0.100001698932,0.361790434087,1.0,0.0,0.0,0.0,1.0,0.0,0.0,0.0,1.0,-2.93509643555,0.738863525391,8.40891357422,0.1,0.0,0.0,0.0,0.1,0.0,0.0,0.0,0.1
1452010584587220367,244,1452010584583736896,robocape,1.93277063681,25.3194857678,11.6370731343,0.0,10.0,0.0,0.0,0.0,10.0,0.0,0.0,0.0,10.0,-1.7651431705,-0.376038345919,0.379500455336,1.0,0.0,0.0,0.0,1.0,0.0,0.0,0.0,1.0,-5.33610351563,-1.41066650391,8.0053527832,0.1,0.0,0.0,0.0,0.1,0.0,0.0,0.0,0.1
1452010584619364326,245,1452010584616080045,robocape,-1.2982156672,24.3579763689,12.1226089403,0.0,10.0,0.0,0.0,0.0,10.0,0.0,0.0,0.0,10.0,-1.80136216133,-0.488556901975,0.240083972271,1.0,0.0,0.0,0.0,1.0,0.0,0.0,0.0,1.0,-4.98643066406,-1.11248657227,7.1311706543,0.1,0.0,0.0,0.0,0.1,0.0,0.0,0.0,0.1
1452010584652990534,246,1452010584649816036,robocape,-4.65542917486,23.1747934276,12.4489942823,0.0,10.0,0.0,0.0,0.0,10.0,0.0,0.0,0.0,10.0,-1.83265430414,-0.610130205737,0.133291212558,1.0,0.0,0.0,0.0,1.0,0.0,0.0,0.0,1.0,-2.07767944336,-2.54470825195,6.34320922852,0.1,0.0,0.0,0.0,0.1,0.0,0.0,0.0,0.1
1452010584687310784,247,1452010584683562040,robocape,-7.66060110131,22.2322954841,12.3988738194,0.0,10.0,0.0,0.0,0.0,10.0,0.0,0.0,0.0,10.0,-1.57552610089,-0.462724239401,-0.0616521792353,1.0,0.0,0.0,0.0,1.0,0.0,0.0,0.0,1.0,-2.58781860352,-1.39988891602,10.2003881836,0.1,0.0,0.0,0.0,0.1,0.0,0.0,0.0,0.1
1452010584719320617,248,1452010584715810060,robocape,-10.9213273167,20.9227807228,12.3275333517,0.0,10.0,0.0,0.0,0.0,10.0,0.0,0.0,0.0,10.0,-1.71108100038,-0.645283932126,-0.127565416215,1.0,0.0,0.0,0.0,1.0,0.0,0.0,0.0,1.0,1.81662231445,-0.86220703125,7.43893066406,0.1,0.0,0.0,0.0,0.1,0.0,0.0,0.0,0.1
1452010584753215034,249,1452010584749743938,robocape,-13.8970730117,19.8272508129,11.7156104942,0.0,10.0,0.0,0.0,0.0,10.0,0.0,0.0,0.0,10.0,-1.470730712,-0.467384771309,-0.396411528258,1.0,0.0,0.0,0.0,1.0,0.0,0.0,0.0,1.0,-2.38304443359,-1.45018432617,10.3345092773,0.1,0.0,0.0,0.0,0.1,0.0,0.0,0.0,0.1
1452010584786557784,250,1452010584783417940,robocape,-16.8914417586,18.5974186124,11.2057330859,0.0,10.0,0.0,0.0,0.0,10.0,0.0,0.0,0.0,10.0,-1.51493918609,-0.521846415601,-0.389487309424,1.0,0.0,0.0,0.0,1.0,0.0,0.0,0.0,1.0,-2.069296875,-2.6860144043,8.41250610352,0.1,0.0,0.0,0.0,0.1,0.0,0.0,0.0,0.1
1452010584819134284,251,1452010584815907001,robocape,-19.4355055203,17.9678548325,10.4554845418,0.0,10.0,0.0,0.0,0.0,10.0,0.0,0.0,0.0,10.0,-1.25741150868,-0.158724400969,-0.427171038849,1.0,0.0,0.0,0.0,1.0,0.0,0.0,0.0,1.0,2.2644909668,-12.6397155762,17.1327722168,0.1,0.0,0.0,0.0,0.1,0.0,0.0,0.0,0.1
1452010584852073701,252,1452010584848927974,robocape,-19.201953763,18.5427597133,8.41194668093,0.0,10.0,0.0,0.0,0.0,10.0,0.0,0.0,0.0,10.0,0.448076853406,0.628372859204,-0.853942603534,1.0,0.0,0.0,0.0,1.0,0.0,0.0,0.0,1.0,3.7206628418,-10.1536853027,15.5556518555,0.1,0.0,0.0,0.0,0.1,0.0,0.0,0.0,0.1
1452010584884942284,253,1452010584881870985,robocape,-18.0766753776,19.2940127874,6.75811249224,0.0,10.0,0.0,0.0,0.0,10.0,0.0,0.0,0.0,10.0,0.866592618712,0.637960239128,-0.648746041543,1.0,0.0,0.0,0.0,1.0,0.0,0.0,0.0,1.0,-4.03680541992,-3.23088134766,10.7225024414,0.1,0.0,0.0,0.0,0.1,0.0,0.0,0.0,0.1
1452010584918139618,254,1452010584914877891,robocape,-16.8728457632,19.8225742703,5.43687640545,0.0,10.0,0.0,0.0,0.0,10.0,0.0,0.0,0.0,10.0,0.857937345169,0.464188978001,-0.536760117705,1.0,0.0,0.0,0.0,1.0,0.0,0.0,0.0,1.0,-3.39134765625,-0.554447021484,12.3618933105,0.1,0.0,0.0,0.0,0.1,0.0,0.0,0.0,0.1
1452010584951324409,255,1452010584948276996,robocape,-15.7359994862,20.259075482,4.6529543894,0.0,10.0,0.0,0.0,0.0,10.0,0.0,0.0,0.0,10.0,0.72757560981,0.337688826222,-0.302002467615,1.0,0.0,0.0,0.0,1.0,0.0,0.0,0.0,1.0,0.681383056641,-0.227526855469,8.18857177734,0.1,0.0,0.0,0.0,0.1,0.0,0.0,0.0,0.1
1452010584984503659,256,1452010584981457948,robocape,-14.761254852,20.577262145,4.06537566194,0.0,10.0,0.0,0.0,0.0,10.0,0.0,0.0,0.0,10.0,0.607733360756,0.249671352195,-0.229830802074,1.0,0.0,0.0,0.0,1.0,0.0,0.0,0.0,1.0,-1.74237670898,-0.550854492188,11.3919104004,0.1,0.0,0.0,0.0,0.1,0.0,0.0,0.0,0.1
1452010585017619284,257,1452010585014314889,robocape,-13.9227798249,20.6075189995,3.64027915444,0.0,10.0,0.0,0.0,0.0,10.0,0.0,0.0,0.0,10.0,0.508930084314,0.0786964102118,-0.194277601521,1.0,0.0,0.0,0.0,1.0,0.0,0.0,0.0,1.0,-3.4141003418,-1.01429077148,10.2890039063,0.1,0.0,0.0,0.0,0.1,0.0,0.0,0.0,0.1
1452010585050627284,258,1452010585047380924,robocape,-13.0933168803,20.670090951,3.27060443581,0.0,10.0,0.0,0.0,0.0,10.0,0.0,0.0,0.0,10.0,0.493750066101,0.0873516837546,-0.164716513421,1.0,0.0,0.0,0.0,1.0,0.0,0.0,0.0,1.0,1.07057373047,-0.123343505859,9.56570800781,0.1,0.0,0.0,0.0,0.1,0.0,0.0,0.0,0.1
1452010585083664493,259,1452010585080579042,robocape,-12.3213733139,20.7617574696,2.85101667149,0.0,10.0,0.0,0.0,0.0,10.0,0.0,0.0,0.0,10.0,0.472844251544,0.106659601658,-0.186154960197,1.0,0.0,0.0,0.0,1.0,0.0,0.0,0.0,1.0,-0.307760009766,0.243094482422,11.4889086914,0.1,0.0,0.0,0.0,0.1,0.0,0.0,0.0,0.1
1452010585117832743,260,1452010585114634990,robocape,-11.5862109417,20.7898540613,2.32022019266,0.0,10.0,0.0,0.0,0.0,10.0,0.0,0.0,0.0,10.0,0.475507412634,0.0821585196289,-0.248073455541,1.0,0.0,0.0,0.0,1.0,0.0,0.0,0.0,1.0,2.51357299805,0.712518310547,10.7368725586,0.1,0.0,0.0,0.0,0.1,0.0,0.0,0.0,0.1
1452010585150303159,261,1452010585147264003,robocape,-11.0242436,20.8369342453,1.95487687161,0.0,10.0,0.0,0.0,0.0,10.0,0.0,0.0,0.0,10.0,0.352868844435,0.0764327232853,-0.167113358402,1.0,0.0,0.0,0.0,1.0,0.0,0.0,0.0,1.0,-0.764011230469,-0.827479248047,9.15136962891,0.1,0.0,0.0,0.0,0.1,0.0,0.0,0.0,0.1
1452010585183489743,262,1452010585180424928,robocape,-10.6112815794,20.8521417453,1.79627359543,0.0,10.0,0.0,0.0,0.0,10.0,0.0,0.0,0.0,10.0,0.235822914527,0.0414121549507,-0.0712395591596,1.0,0.0,0.0,0.0,1.0,0.0,0.0,0.0,1.0,-0.221539306641,0.796343994141,9.78485229492,0.1,0.0,0.0,0.0,0.1,0.0,0.0,0.0,0.1
1452010585216849784,263,1452010585213816881,robocape,-10.5734017788,20.7704716692,1.76963368902,0.0,10.0,0.0,0.0,0.0,10.0,0.0,0.0,0.0,10.0,0.0137152796139,-0.0185089695761,-0.016911072922,1.0,0.0,0.0,0.0,1.0,0.0,0.0,0.0,1.0,-0.530496826172,0.6514453125,9.1585546875,0.1,0.0,0.0,0.0,0.1,0.0,0.0,0.0,0.1
1452010585250053243,264,1452010585247004032,robocape,-10.8020310659,20.6196828611,1.76970847694,0.0,10.0,0.0,0.0,0.0,10.0,0.0,0.0,0.0,10.0,-0.131693315904,-0.0553937506736,-0.0106526443603,1.0,0.0,0.0,0.0,1.0,0.0,0.0,0.0,1.0,-0.00119750976563,0.858614501953,11.3008996582,0.1,0.0,0.0,0.0,0.1,0.0,0.0,0.0,0.1
1452010585283748868,265,1452010585280733108,robocape,-11.4665948011,20.3677681467,1.68544492727,0.0,10.0,0.0,0.0,0.0,10.0,0.0,0.0,0.0,10.0,-0.346344099765,-0.0974716958969,-0.0617853372898,1.0,0.0,0.0,0.0,1.0,0.0,0.0,0.0,1.0,-2.40819213867,-1.18553466797,9.12502441406,0.1,0.0,0.0,0.0,0.1,0.0,0.0,0.0,0.1
1452010585317121159,266,1452010585314135074,robocape,-12.2952233964,19.8172439496,1.71561145625,0.0,10.0,0.0,0.0,0.0,10.0,0.0,0.0,0.0,10.0,-0.452471069204,-0.264451896245,-0.0410126807872,1.0,0.0,0.0,0.0,1.0,0.0,0.0,0.0,1.0,-1.66214355469,-0.996328125,8.5490222168,0.1,0.0,0.0,0.0,0.1,0.0,0.0,0.0,0.1
1452010585350359909,267,1452010585347354888,robocape,-13.4058514934,19.3272428173,1.66533834293,0.0,10.0,0.0,0.0,0.0,10.0,0.0,0.0,0.0,10.0,-0.590023339507,-0.22024342215,-0.0765658813398,1.0,0.0,0.0,0.0,1.0,0.0,0.0,0.0,1.0,0.233514404297,0.462238769531,10.765612793,0.1,0.0,0.0,0.0,0.1,0.0,0.0,0.0,0.1
1452010585383654451,268,1452010585380635023,robocape,-14.6955877064,18.6983011132,1.74149619421,0.0,10.0,0.0,0.0,0.0,10.0,0.0,0.0,0.0,10.0,-0.708400849961,-0.303733522324,-0.0382163616426,1.0,0.0,0.0,0.0,1.0,0.0,0.0,0.0,1.0,-2.29802124023,-1.71004394531,7.92511962891,0.1,0.0,0.0,0.0,0.1,0.0,0.0,0.0,0.1
1452010585418363034,269,1452010585415282011,robocape,-16.2258484252,17.7929745572,1.85032720377,0.0,10.0,0.0,0.0,0.0,10.0,0.0,0.0,0.0,10.0,-0.841825220574,-0.447144747024,-0.068709556124,1.0,0.0,0.0,0.0,1.0,0.0,0.0,0.0,1.0,-5.89414306641,-0.0946032714844,10.9129064941,0.1,0.0,0.0,0.0,0.1,0.0,0.0,0.0,0.1
1452010585450596326,270,1452010585447434902,robocape,-18.0017549848,16.4616994205,2.11577402909,0.0,10.0,0.0,0.0,0.0,10.0,0.0,0.0,0.0,10.0,-0.996421721853,-0.682834503496,-0.0723048235957,1.0,0.0,0.0,0.0,1.0,0.0,0.0,0.0,1.0,4.0200402832,-0.101788330078,11.5344140625,0.1,0.0,0.0,0.0,0.1,0.0,0.0,0.0,0.1
1452010585483740409,271,1452010585480660915,robocape,-20.1363040606,15.5989283843,2.14307230399,0.0,10.0,0.0,0.0,0.0,10.0,0.0,0.0,0.0,10.0,-1.16579876718,-0.39854205713,-0.125035413179,1.0,0.0,0.0,0.0,1.0,0.0,0.0,0.0,1.0,1.73399414063,-2.11959228516,10.6267016602,0.1,0.0,0.0,0.0,0.1,0.0,0.0,0.0,0.1
1452010585517079451,272,1452010585513895988,robocape,-21.4337774294,15.1038851069,0.961631415969,0.0,10.0,0.0,0.0,0.0,10.0,0.0,0.0,0.0,10.0,-0.552605926191,-0.00452737385313,-0.643419719363,1.0,0.0,0.0,0.0,1.0,0.0,0.0,0.0,1.0,8.27479248047,-12.3104003906,18.5769689941,0.1,0.0,0.0,0.0,0.1,0.0,0.0,0.0,0.1
1452010585550359243,273,1452010585547211885,robocape,-20.457587134,15.3026175567,-0.68021608784,0.0,10.0,0.0,0.0,0.0,10.0,0.0,0.0,0.0,10.0,0.732369299772,0.397077318531,-0.737162989734,1.0,0.0,0.0,0.0,1.0,0.0,0.0,0.0,1.0,1.94954589844,-3.4105078125,11.4254406738,0.1,0.0,0.0,0.0,0.1,0.0,0.0,0.0,0.1
1452010585585286368,274,1452010585582206964,robocape,-19.2666126419,15.5966726861,-1.70924431993,0.0,10.0,0.0,0.0,0.0,10.0,0.0,0.0,0.0,10.0,0.761930387872,0.325704601317,-0.435826312391,1.0,0.0,0.0,0.0,1.0,0.0,0.0,0.0,1.0,-2.57823852539,-0.826281738281,11.572734375,0.1,0.0,0.0,0.0,0.1,0.0,0.0,0.0,0.1
1452010585616832076,275,1452010585613616943,robocape,-18.3501381558,15.7157484492,-2.37028709766,0.0,10.0,0.0,0.0,0.0,10.0,0.0,0.0,0.0,10.0,0.564590151097,0.174303893346,-0.295211406835,1.0,0.0,0.0,0.0,1.0,0.0,0.0,0.0,1.0,-0.581989746094,-0.668210449219,8.63165039063,0.1,0.0,0.0,0.0,0.1,0.0,0.0,0.0,0.1
1452010585650150076,276,1452010585647013902,robocape,-17.6552574838,15.6485282671,-2.88326344223,0.0,10.0,0.0,0.0,0.0,10.0,0.0,0.0,0.0,10.0,0.426638406631,0.0556600667827,-0.256995045193,1.0,0.0,0.0,0.0,1.0,0.0,0.0,0.0,1.0,-0.872984619141,-0.579594726562,10.7081323242,0.1,0.0,0.0,0.0,0.1,0.0,0.0,0.0,0.1
1452010585683333451,277,1452010585680269956,robocape,-17.1539299739,15.7748583696,-3.3064769942,0.0,10.0,0.0,0.0,0.0,10.0,0.0,0.0,0.0,10.0,0.308527212286,0.140614905556,-0.184423905488,1.0,0.0,0.0,0.0,1.0,0.0,0.0,0.0,1.0,-2.09923461914,-0.437091064453,9.37530395508,0.1,0.0,0.0,0.0,0.1,0.0,0.0,0.0,0.1
1452010585717093785,278,1452010585714045047,robocape,-17.0034525784,15.7295036288,-3.53793875278,0.0,10.0,0.0,0.0,0.0,10.0,0.0,0.0,0.0,10.0,0.0956074831338,0.0274305592278,-0.119575932945,1.0,0.0,0.0,0.0,1.0,0.0,0.0,0.0,1.0,-4.85111206055,-1.61424316406,9.63516357422,0.1,0.0,0.0,0.0,0.1,0.0,0.0,0.0,0.1
1452010585750613285,279,1452010585747509956,robocape,-16.8569545082,15.7144554509,-3.73393399519,0.0,10.0,0.0,0.0,0.0,10.0,0.0,0.0,0.0,10.0,0.0882837901361,0.0374174133156,-0.0981374861694,1.0,0.0,0.0,0.0,1.0,0.0,0.0,0.0,1.0,-1.16158447266,-0.182021484375,9.52499267578,0.1,0.0,0.0,0.0,0.1,0.0,0.0,0.0,0.1
1452010585783816701,280,1452010585780736923,robocape,-16.9640755798,15.3145077313,-4.00271675781,0.0,10.0,0.0,0.0,0.0,10.0,0.0,0.0,0.0,10.0,-0.0336889877895,-0.146074385791,-0.192280230704,1.0,0.0,0.0,0.0,1.0,0.0,0.0,0.0,1.0,-5.55405029297,-3.62126953125,9.48906738281,0.1,0.0,0.0,0.0,0.1,0.0,0.0,0.0,0.1
1452010585816849910,281,1452010585813800096,robocape,-17.1195850456,15.0314921334,-4.35228957148,0.0,10.0,0.0,0.0,0.0,10.0,0.0,0.0,0.0,10.0,-0.050733218766,-0.0735032460862,-0.214517625806,1.0,0.0,0.0,0.0,1.0,0.0,0.0,0.0,1.0,-5.96479614258,-1.85374511719,10.4494702148,0.1,0.0,0.0,0.0,0.1,0.0,0.0,0.0,0.1
1452010585850304910,282,1452010585846999883,robocape,-17.6663977999,14.7213186324,-4.52327694229,0.0,10.0,0.0,0.0,0.0,10.0,0.0,0.0,0.0,10.0,-0.285224552747,-0.109322762748,-0.134090160885,1.0,0.0,0.0,0.0,1.0,0.0,0.0,0.0,1.0,0.387993164063,-2.4908203125,9.49146240234,0.1,0.0,0.0,0.0,0.1,0.0,0.0,0.0,0.1
1452010585883825576,283,1452010585880461931,robocape,-18.1838736738,14.7058156772,-5.62806868206,0.0,10.0,0.0,0.0,0.0,10.0,0.0,0.0,0.0,10.0,-0.150734917698,0.188684963232,-0.539822752959,1.0,0.0,0.0,0.0,1.0,0.0,0.0,0.0,1.0,-3.90268432617,-3.59013427734,8.63404541016,0.1,0.0,0.0,0.0,0.1,0.0,0.0,0.0,0.1
1452010585917067618,284,1452010585913743019,robocape,-18.1678921282,14.7496820055,-6.14693816026,0.0,10.0,0.0,0.0,0.0,10.0,0.0,0.0,0.0,10.0,0.0568584892732,0.122505410144,-0.24687503305,1.0,0.0,0.0,0.0,1.0,0.0,0.0,0.0,1.0,-4.17571655273,-3.60330688477,13.8013000488,0.1,0.0,0.0,0.0,0.1,0.0,0.0,0.0,0.1
1452010585950512618,285,1452010585946942090,robocape,-17.746193457,14.3356337983,-6.64836429734,0.0,10.0,0.0,0.0,0.0,10.0,0.0,0.0,0.0,10.0,0.275637172823,-0.117711720182,-0.311456689485,1.0,0.0,0.0,0.0,1.0,0.0,0.0,0.0,1.0,-0.258662109375,-0.531694335938,10.2925964355,0.1,0.0,0.0,0.0,0.1,0.0,0.0,0.0,0.1
1452010585983765326,286,1452010585980335950,robocape,-17.4263133674,14.4151030075,-7.50217411138,0.0,10.0,0.0,0.0,0.0,10.0,0.0,0.0,0.0,10.0,0.260989786828,0.187220224633,-0.405732592074,1.0,0.0,0.0,0.0,1.0,0.0,0.0,0.0,1.0,-0.164058837891,-1.06698120117,12.5271496582,0.1,0.0,0.0,0.0,0.1,0.0,0.0,0.0,0.1
1452010586017030160,287,1452010586013773918,robocape,-16.8156349847,14.4028243626,-8.27776385746,0.0,10.0,0.0,0.0,0.0,10.0,0.0,0.0,0.0,10.0,0.407596804837,0.122904884307,-0.382829406699,1.0,0.0,0.0,0.0,1.0,0.0,0.0,0.0,1.0,-2.83450561523,-1.49688720703,11.3667626953,0.1,0.0,0.0,0.0,0.1,0.0,0.0,0.0,0.1
1452010586050141785,288,1452010586046997070,robocape,-15.9572078108,14.3133383933,-8.90933041986,0.0,10.0,0.0,0.0,0.0,10.0,0.0,0.0,0.0,10.0,0.521979573656,0.0555269087282,-0.32490565299,1.0,0.0,0.0,0.0,1.0,0.0,0.0,0.0,1.0,3.13508056641,-0.941242675781,9.57528808594,0.1,0.0,0.0,0.0,0.1,0.0,0.0,0.0,0.1
1452010586083720118,289,1452010586080326080,robocape,-14.860323617,14.4107963545,-9.50049642248,0.0,10.0,0.0,0.0,0.0,10.0,0.0,0.0,0.0,10.0,0.642620771036,0.138750692793,-0.280164546676,1.0,0.0,0.0,0.0,1.0,0.0,0.0,0.0,1.0,-1.2992980957,-1.72680908203,10.2722387695,0.1,0.0,0.0,0.0,0.1,0.0,0.0,0.0,0.1
1452010586116937118,290,1452010586113704919,robocape,-13.662750043,14.5504093681,-9.95518002964,0.0,10.0,0.0,0.0,0.0,10.0,0.0,0.0,0.0,10.0,0.67910607797,0.137285954194,-0.210256568062,1.0,0.0,0.0,0.0,1.0,0.0,0.0,0.0,1.0,0.178428955078,-1.22026245117,9.0819140625,0.1,0.0,0.0,0.0,0.1,0.0,0.0,0.0,0.1
1452010586150302576,291,1452010586147211074,robocape,-12.2631525753,14.7357526636,-10.3411806765,0.0,10.0,0.0,0.0,0.0,10.0,0.0,0.0,0.0,10.0,0.777776196358,0.14753912439,-0.173638103073,1.0,0.0,0.0,0.0,1.0,0.0,0.0,0.0,1.0,-1.87649780273,-2.15432006836,8.64961303711,0.1,0.0,0.0,0.0,0.1,0.0,0.0,0.0,0.1
1452010586183871535,292,1452010586180461883,robocape,-10.5285288981,14.9726943714,-10.6384195759,0.0,10.0,0.0,0.0,0.0,10.0,0.0,0.0,0.0,10.0,0.94369113227,0.159390191241,-0.12743225816,1.0,0.0,0.0,0.0,1.0,0.0,0.0,0.0,1.0,-3.93022705078,-2.36388427734,9.62558349609,0.1,0.0,0.0,0.0,0.1,0.0,0.0,0.0,0.1
1452010586218163243,293,1452010586215032100,robocape,-8.82207113721,15.33234825,-10.8001825401,0.0,10.0,0.0,0.0,0.0,10.0,0.0,0.0,0.0,10.0,0.910934250862,0.209990251953,-0.0549942765101,1.0,0.0,0.0,0.0,1.0,0.0,0.0,0.0,1.0,-3.66198486328,-2.05492675781,9.26752807617,0.1,0.0,0.0,0.0,0.1,0.0,0.0,0.0,0.1
1452010586251342827,294,1452010586248217105,robocape,-7.13205338539,15.755393352,-11.0406397586,0.0,10.0,0.0,0.0,0.0,10.0,0.0,0.0,0.0,10.0,0.913996886115,0.250203984413,-0.0976048539514,1.0,0.0,0.0,0.0,1.0,0.0,0.0,0.0,1.0,-1.3831237793,-1.7244140625,7.57424926758,0.1,0.0,0.0,0.0,0.1,0.0,0.0,0.0,0.1
1452010586285291952,295,1452010586281780004,robocape,-5.23666107582,16.4565284248,-11.1682506299,0.0,10.0,0.0,0.0,0.0,10.0,0.0,0.0,0.0,10.0,1.00720752427,0.390019941642,-0.03488741028,1.0,0.0,0.0,0.0,1.0,0.0,0.0,0.0,1.0,-1.63579833984,0.706530761719,12.492421875,0.1,0.0,0.0,0.0,0.1,0.0,0.0,0.0,0.1
1452010586318338077,296,1452010586315136909,robocape,-3.74544433028,16.9894546492,-11.3047767254,0.0,10.0,0.0,0.0,0.0,10.0,0.0,0.0,0.0,10.0,0.798948327024,0.304399312596,-0.0588558600908,1.0,0.0,0.0,0.0,1.0,0.0,0.0,0.0,1.0,-0.749641113281,-2.3028112793,5.03433105469,0.1,0.0,0.0,0.0,0.1,0.0,0.0,0.0,0.1
1452010586351835243,297,1452010586348824024,robocape,-1.91543846924,17.4922400921,-10.9282871163,0.0,10.0,0.0,0.0,0.0,10.0,0.0,0.0,0.0,10.0,0.899482658174,0.272308221461,0.190282859886,1.0,0.0,0.0,0.0,1.0,0.0,0.0,0.0,1.0,-3.24046142578,1.55796020508,12.8684399414,0.1,0.0,0.0,0.0,0.1,0.0,0.0,0.0,0.1
1452010586385004743,298,1452010586381803989,robocape,-0.396297290638,18.1622025978,-10.4823323809,0.0,10.0,0.0,0.0,0.0,10.0,0.0,0.0,0.0,10.0,0.725445080938,0.369913075412,0.216248680514,1.0,0.0,0.0,0.0,1.0,0.0,0.0,0.0,1.0,-1.54478759766,1.74596923828,8.90348510742,0.1,0.0,0.0,0.0,0.1,0.0,0.0,0.0,0.1
1452010586418808285,299,1452010586415791988,robocape,0.720342084122,18.6427099345,-10.0439881045,0.0,10.0,0.0,0.0,0.0,10.0,0.0,0.0,0.0,10.0,0.515055354821,0.275770330878,0.204530771718,1.0,0.0,0.0,0.0,1.0,0.0,0.0,0.0,1.0,-2.23575073242,-0.352067871094,7.67124755859,0.1,0.0,0.0,0.0,0.1,0.0,0.0,0.0,0.1
1452010586453972577,300,1452010586449913024,robocape,1.75028444156,19.1878462065,-9.60904056149,0.0,10.0,0.0,0.0,0.0,10.0,0.0,0.0,0.0,10.0,0.469914774344,0.316383537501,0.195875498175,1.0,0.0,0.0,0.0,1.0,0.0,0.0,0.0,1.0,-0.693358154297,3.15304321289,12.7846142578,0.1,0.0,0.0,0.0,0.1,0.0,0.0,0.0,0.1
1452010586487172368,301,1452010586483175039,robocape,2.5822974041,19.5585453621,-9.06859001176,0.0,10.0,0.0,0.0,0.0,10.0,0.0,0.0,0.0,10.0,0.346743573928,0.22823290542,0.247807139432,1.0,0.0,0.0,0.0,1.0,0.0,0.0,0.0,1.0,1.30528564453,-0.217946777344,6.50726806641,0.1,0.0,0.0,0.0,0.1,0.0,0.0,0.0,0.1
1452010586519870618,302,1452010586516292095,robocape,3.15621279587,19.8777408357,-8.49947414295,0.0,10.0,0.0,0.0,0.0,10.0,0.0,0.0,0.0,10.0,0.205329720045,0.204530771718,0.261122944882,1.0,0.0,0.0,0.0,1.0,0.0,0.0,0.0,1.0,-2.40699462891,1.75075927734,12.3523132324,0.1,0.0,0.0,0.0,0.1,0.0,0.0,0.0,0.1
1452010586552964327,303,1452010586549786090,robocape,3.80815695943,20.1982882939,-7.58283534936,0.0,10.0,0.0,0.0,0.0,10.0,0.0,0.0,0.0,10.0,0.18242653467,0.21731394495,0.43076630632,1.0,0.0,0.0,0.0,1.0,0.0,0.0,0.0,1.0,-3.98770751953,1.54957763672,8.95617553711,0.1,0.0,0.0,0.0,0.1,0.0,0.0,0.0,0.1
1452010586586587743,304,1452010586582992076,robocape,3.59278254809,20.2596259277,-6.72724706762,0.0,10.0,0.0,0.0,0.0,10.0,0.0,0.0,0.0,10.0,-0.264052422081,0.0749679846857,0.411591546472,1.0,0.0,0.0,0.0,1.0,0.0,0.0,0.0,1.0,-8.0125378418,0.996328125,8.70709350586,0.1,0.0,0.0,0.0,0.1,0.0,0.0,0.0,0.1
1452010586620496535,305,1452010586616760969,robocape,2.48555158003,20.3796537222,-5.8601441723,0.0,10.0,0.0,0.0,0.0,10.0,0.0,0.0,0.0,10.0,-0.735165618916,0.0990695925509,0.41745050087,1.0,0.0,0.0,0.0,1.0,0.0,0.0,0.0,1.0,-7.45809082031,0.809516601563,10.4961730957,0.1,0.0,0.0,0.0,0.1,0.0,0.0,0.0,0.1
1452010586654160785,306,1452010586650810003,robocape,0.512155670741,20.1531868061,-5.08578130985,0.0,10.0,0.0,0.0,0.0,10.0,0.0,0.0,0.0,10.0,-1.17338877629,-0.101200121423,0.381364668099,1.0,0.0,0.0,0.0,1.0,0.0,0.0,0.0,1.0,-1.97469360352,2.43932739258,9.51421508789,0.1,0.0,0.0,0.0,0.1,0.0,0.0,0.0,0.1
1452010586687233118,307,1452010586683516025,robocape,-1.89677074847,19.7180086809,-4.36198612162,0.0,10.0,0.0,0.0,0.0,10.0,0.0,0.0,0.0,10.0,-1.39123535346,-0.224903954057,0.351936738054,1.0,0.0,0.0,0.0,1.0,0.0,0.0,0.0,1.0,-6.51684814453,-0.884959716797,7.42216552734,0.1,0.0,0.0,0.0,0.1,0.0,0.0,0.0,0.1
1452010586719927077,308,1452010586715790033,robocape,-4.54857861259,19.0743409268,-5.58150320542,0.0,10.0,0.0,0.0,0.0,10.0,0.0,0.0,0.0,10.0,-1.17938088874,-0.286556133293,-0.624777591733,1.0,0.0,0.0,0.0,1.0,0.0,0.0,0.0,1.0,8.90468261719,-0.707728271484,8.78253662109,0.1,0.0,0.0,0.0,0.1,0.0,0.0,0.0,0.1
1452010586754177827,309,1452010586750701904,robocape,-7.58770709313,17.4471780781,-4.55963701042,0.0,10.0,0.0,0.0,0.0,10.0,0.0,0.0,0.0,10.0,-1.75941737416,-0.901480028992,0.415453130052,1.0,0.0,0.0,0.0,1.0,0.0,0.0,0.0,1.0,0.464633789063,-0.179626464844,6.05939941406,0.1,0.0,0.0,0.0,0.1,0.0,0.0,0.0,0.1
1452010586787338868,310,1452010586783533096,robocape,-8.5826816516,16.7962249115,-5.49153658895,0.0,10.0,0.0,0.0,0.0,10.0,0.0,0.0,0.0,10.0,-0.384427303353,-0.255663464648,-0.513723774276,1.0,0.0,0.0,0.0,1.0,0.0,0.0,0.0,1.0,-0.432301025391,-8.3502355957,13.2935559082,0.1,0.0,0.0,0.0,0.1,0.0,0.0,0.0,0.1
1452010586820969993,311,1452010586817600011,robocape,-10.6836390048,15.806395767,-5.60406512529,0.0,10.0,0.0,0.0,0.0,10.0,0.0,0.0,0.0,10.0,-1.09349394359,-0.485227950612,-0.147006492172,1.0,0.0,0.0,0.0,1.0,0.0,0.0,0.0,1.0,0.240699462891,-1.02267333984,6.19352050781,0.1,0.0,0.0,0.0,0.1,0.0,0.0,0.0,0.1
1452010586854424577,312,1452010586851130008,robocape,-11.4405477424,15.7549207801,-6.4819399208,0.0,10.0,0.0,0.0,0.0,10.0,0.0,0.0,0.0,10.0,-0.28589034302,0.0814927293564,-0.446212640643,1.0,0.0,0.0,0.0,1.0,0.0,0.0,0.0,1.0,-3.23567138672,-0.886157226563,14.3258093262,0.1,0.0,0.0,0.0,0.1,0.0,0.0,0.0,0.1
1452010586887326285,313,1452010586883840084,robocape,-12.1242860903,15.52444633,-7.00045860075,0.0,10.0,0.0,0.0,0.0,10.0,0.0,0.0,0.0,10.0,-0.298673516252,-0.0443416321498,-0.28735508162,1.0,0.0,0.0,0.0,1.0,0.0,0.0,0.0,1.0,-0.531694335938,-2.81893798828,12.1523291016,0.1,0.0,0.0,0.0,0.1,0.0,0.0,0.0,0.1
1452010586919828869,314,1452010586916543006,robocape,-12.2068834817,15.3040649557,-7.65138139464,0.0,10.0,0.0,0.0,0.0,10.0,0.0,0.0,0.0,10.0,0.0356863586071,-0.0264984528463,-0.351803579999,1.0,0.0,0.0,0.0,1.0,0.0,0.0,0.0,1.0,-3.90268432617,-3.42607543945,10.9224865723,0.1,0.0,0.0,0.0,0.1,0.0,0.0,0.0,0.1
1452010586952631494,315,1452010586949213027,robocape,-11.6324521501,15.2638811266,-8.4352221168,0.0,10.0,0.0,0.0,0.0,10.0,0.0,0.0,0.0,10.0,0.399474163512,0.0760332491218,-0.397876266858,1.0,0.0,0.0,0.0,1.0,0.0,0.0,0.0,1.0,-4.0966809082,-3.42727294922,10.8518334961,0.1,0.0,0.0,0.0,0.1,0.0,0.0,0.0,0.1
1452010586985662410,316,1452010586982409000,robocape,-10.9048629681,16.0163606379,-9.7169064432,0.0,10.0,0.0,0.0,0.0,10.0,0.0,0.0,0.0,10.0,0.547945394284,0.538091698251,-0.568584892732,1.0,0.0,0.0,0.0,1.0,0.0,0.0,0.0,1.0,2.0657043457,0.808319091797,5.00319580078,0.1,0.0,0.0,0.0,0.1,0.0,0.0,0.0,0.1
1452010587019884744,317,1452010587016608953,robocape,-9.21188836477,17.067950528,-10.21031269,0.0,10.0,0.0,0.0,0.0,10.0,0.0,0.0,0.0,10.0,0.951014825267,0.606801254375,-0.157659136533,1.0,0.0,0.0,0.0,1.0,0.0,0.0,0.0,1.0,4.30744262695,-0.4981640625,8.41729614258,0.1,0.0,0.0,0.0,0.1,0.0,0.0,0.0,0.1
1452010587052278285,318,1452010587049065113,robocape,-7.57083609413,17.8129986582,-10.4486607941,0.0,10.0,0.0,0.0,0.0,10.0,0.0,0.0,0.0,10.0,0.890161594359,0.423975245541,-0.0707069269416,1.0,0.0,0.0,0.0,1.0,0.0,0.0,0.0,1.0,-5.76121948242,0.455053710938,10.0411193848,0.1,0.0,0.0,0.0,0.1,0.0,0.0,0.0,0.1
1452010587085628077,319,1452010587082528114,robocape,-6.1990923269,19.0184336569,-10.3358525129,0.0,10.0,0.0,0.0,0.0,10.0,0.0,0.0,0.0,10.0,0.69268819953,0.649811305979,0.117711720182,1.0,0.0,0.0,0.0,1.0,0.0,0.0,0.0,1.0,-4.13140869141,0.132923583984,6.81622558594,0.1,0.0,0.0,0.0,0.1,0.0,0.0,0.0,0.1
1452010587119383744,320,1452010587116156101,robocape,-4.76527260766,19.4663190722,-10.0215926059,0.0,10.0,0.0,0.0,0.0,10.0,0.0,0.0,0.0,10.0,0.693353989802,0.239151865889,0.167912306729,1.0,0.0,0.0,0.0,1.0,0.0,0.0,0.0,1.0,-5.99353637695,1.02267333984,9.82796264648,0.1,0.0,0.0,0.0,0.1,0.0,0.0,0.0,0.1
1452010587153119702,321,1452010587150090932,robocape,-4.83884120129,19.9172014161,-9.41543580958,0.0,10.0,0.0,0.0,0.0,10.0,0.0,0.0,0.0,10.0,-0.149403337153,0.234491333981,0.307328789795,1.0,0.0,0.0,0.0,1.0,0.0,0.0,0.0,1.0,-4.95769042969,2.09085205078,8.10833862305,0.1,0.0,0.0,0.0,0.1,0.0,0.0,0.0,0.1
1452010587185690535,322,1452010587182591915,robocape,-5.19107263916,20.163062496,-8.72080489963,0.0,10.0,0.0,0.0,0.0,10.0,0.0,0.0,0.0,10.0,-0.313054586139,0.120241723217,0.343281464511,1.0,0.0,0.0,0.0,1.0,0.0,0.0,0.0,1.0,-6.50966308594,4.76608886719,10.8458459473,0.1,0.0,0.0,0.0,0.1,0.0,0.0,0.0,0.1
1452010587218341452,323,1452010587215251922,robocape,-6.85355134484,20.0310607792,-8.15504697044,0.0,10.0,0.0,0.0,0.0,10.0,0.0,0.0,0.0,10.0,-0.977912752277,-0.0770985135578,0.262055051264,1.0,0.0,0.0,0.0,1.0,0.0,0.0,0.0,1.0,-0.872984619141,1.72680908203,7.97182250977,0.1,0.0,0.0,0.0,0.1,0.0,0.0,0.0,0.1
1452010587251531369,324,1452010587248459100,robocape,-8.58118953792,19.3775443315,-8.00903029938,0.0,10.0,0.0,0.0,0.0,10.0,0.0,0.0,0.0,10.0,-0.936766913435,-0.331164081551,0.0193079179031,1.0,0.0,0.0,0.0,1.0,0.0,0.0,0.0,1.0,3.11472290039,1.75195678711,10.0974023437,0.1,0.0,0.0,0.0,0.1,0.0,0.0,0.0,0.1
1452010587284132077,325,1452010587281090974,robocape,-10.7307478809,17.6282420937,-7.41851193032,0.0,10.0,0.0,0.0,0.0,10.0,0.0,0.0,0.0,10.0,-1.22571989171,-0.948751138341,0.13422331894,1.0,0.0,0.0,0.0,1.0,0.0,0.0,0.0,1.0,4.53736450195,-3.40571777344,8.97413818359,0.1,0.0,0.0,0.0,0.1,0.0,0.0,0.0,0.1
1452010587317614660,326,1452010587314536094,robocape,-11.1966469725,17.2021477759,-7.99588378705,0.0,10.0,0.0,0.0,0.0,10.0,0.0,0.0,0.0,10.0,-0.163917565094,-0.145009121355,-0.332362504042,1.0,0.0,0.0,0.0,1.0,0.0,0.0,0.0,1.0,1.83218994141,-3.13029052734,12.0756884766,0.1,0.0,0.0,0.0,0.1,0.0,0.0,0.0,0.1
1452010587350615910,327,1452010587347572088,robocape,-11.3892970224,17.0789142496,-8.96008775639,0.0,10.0,0.0,0.0,0.0,10.0,0.0,0.0,0.0,10.0,0.0352868844435,0.0543284862376,-0.494948488591,1.0,0.0,0.0,0.0,1.0,0.0,0.0,0.0,1.0,1.98427368164,-3.31350952148,12.8492797852,0.1,0.0,0.0,0.0,0.1,0.0,0.0,0.0,0.1
1452010587383960994,328,1452010587380877017,robocape,-9.23543003767,17.4572554531,-10.0112849742,0.0,10.0,0.0,0.0,0.0,10.0,0.0,0.0,0.0,10.0,1.28590733234,0.302401941778,-0.487624795594,1.0,0.0,0.0,0.0,1.0,0.0,0.0,0.0,1.0,5.35526367187,-3.7589831543,10.8973388672,0.1,0.0,0.0,0.0,0.1,0.0,0.0,0.0,0.1
1452010587419926160,329,1452010587416805982,robocape,-6.9962627308,18.1991800406,-10.8658900827,0.0,10.0,0.0,0.0,0.0,10.0,0.0,0.0,0.0,10.0,1.30375051165,0.466585822982,-0.377503084519,1.0,0.0,0.0,0.0,1.0,0.0,0.0,0.0,1.0,-1.8046472168,-1.86572021484,8.44124633789,0.1,0.0,0.0,0.0,0.1,0.0,0.0,0.0,0.1
1452010587450144994,330,1452010587447138071,robocape,-4.42626652712,19.3820652524,-11.3897489307,0.0,10.0,0.0,0.0,0.0,10.0,0.0,0.0,0.0,10.0,1.43038382148,0.673646597736,-0.212520254988,1.0,0.0,0.0,0.0,1.0,0.0,0.0,0.0,1.0,-5.27024047852,-1.09811645508,8.94539794922,0.1,0.0,0.0,0.0,0.1,0.0,0.0,0.0,0.1
1452010587483865327,331,1452010587480788946,robocape,-1.90984410579,20.3732964883,-11.115395371,0.0,10.0,0.0,0.0,0.0,10.0,0.0,0.0,0.0,10.0,1.26886310137,0.541820123777,0.148338072717,1.0,0.0,0.0,0.0,1.0,0.0,0.0,0.0,1.0,-4.06315063477,-0.293389892578,5.24269775391,0.1,0.0,0.0,0.0,0.1,0.0,0.0,0.0,0.1
1452010587516978577,332,1452010587513910055,robocape,-0.570200721603,22.8885039913,-11.9041456857,0.0,10.0,0.0,0.0,0.0,10.0,0.0,0.0,0.0,10.0,0.859801557932,1.40681484583,-0.395612579931,1.0,0.0,0.0,0.0,1.0,0.0,0.0,0.0,1.0,-8.25922485352,9.88424560547,9.64474365234,0.1,0.0,0.0,0.0,0.1,0.0,0.0,0.0,0.1
1452010587550085410,333,1452010587547019004,robocape,-1.51811605267,23.4007564003,-10.4332926388,0.0,10.0,0.0,0.0,0.0,10.0,0.0,0.0,0.0,10.0,-0.798815168969,0.276036646987,0.703873476108,1.0,0.0,0.0,0.0,1.0,0.0,0.0,0.0,1.0,-7.84488647461,3.1039453125,3.76736572266,0.1,0.0,0.0,0.0,0.1,0.0,0.0,0.0,0.1
1452010587584007286,334,1452010587580893039,robocape,-4.3061199184,23.1480668687,-8.64630729027,0.0,10.0,0.0,0.0,0.0,10.0,0.0,0.0,0.0,10.0,-1.83039061721,-0.173504945019,0.851279442444,1.0,0.0,0.0,0.0,1.0,0.0,0.0,0.0,1.0,-7.75986328125,8.69032836914,8.38376586914,0.1,0.0,0.0,0.0,0.1,0.0,0.0,0.0,0.1
1452010587616867202,335,1452010587613637924,robocape,-6.95976221416,23.4177043225,-7.63685308454,0.0,10.0,0.0,0.0,0.0,10.0,0.0,0.0,0.0,10.0,-1.60615245343,0.124635939016,0.488157427812,1.0,0.0,0.0,0.0,1.0,0.0,0.0,0.0,1.0,-13.2013476563,1.7591418457,4.49545166016,0.1,0.0,0.0,0.0,0.1,0.0,0.0,0.0,0.1
1452010587650189411,336,1452010587647130012,robocape,-9.40566881751,22.8486131908,-6.13141129915,0.0,10.0,0.0,0.0,0.0,10.0,0.0,0.0,0.0,10.0,-1.59709770572,-0.380565719772,0.671649226918,1.0,0.0,0.0,0.0,1.0,0.0,0.0,0.0,1.0,-3.05245239258,-0.655037841797,7.53113891602,0.1,0.0,0.0,0.0,0.1,0.0,0.0,0.0,0.1
1452010587683642827,337,1452010587680583000,robocape,-12.4837993718,21.9543788464,-5.92041659367,0.0,10.0,0.0,0.0,0.0,10.0,0.0,0.0,0.0,10.0,-1.66913621321,-0.449408433951,0.00585895439817,1.0,0.0,0.0,0.0,1.0,0.0,0.0,0.0,1.0,-0.0922082519531,-0.752036132813,7.93350219727,0.1,0.0,0.0,0.0,0.1,0.0,0.0,0.0,0.1
1452010587716757869,338,1452010587713735103,robocape,-14.9087695187,20.983403047,-6.12475939837,0.0,10.0,0.0,0.0,0.0,10.0,0.0,0.0,0.0,10.0,-1.25088676401,-0.438223157373,-0.22290658324,1.0,0.0,0.0,0.0,1.0,0.0,0.0,0.0,1.0,-1.11607910156,-3.74341552734,10.7117248535,0.1,0.0,0.0,0.0,0.1,0.0,0.0,0.0,0.1
1452010587750305119,339,1452010587747279882,robocape,-16.1030713638,20.1977128024,-6.8707938343,0.0,10.0,0.0,0.0,0.0,10.0,0.0,0.0,0.0,10.0,-0.50733218766,-0.270577166752,-0.467917403527,1.0,0.0,0.0,0.0,1.0,0.0,0.0,0.0,1.0,0.840651855469,-2.13515991211,11.3931079102,0.1,0.0,0.0,0.0,0.1,0.0,0.0,0.0,0.1
1452010587783874702,340,1452010587780838012,robocape,-15.7266793348,19.94309838,-8.04226772474,0.0,10.0,0.0,0.0,0.0,10.0,0.0,0.0,0.0,10.0,0.394147841332,0.0500674284935,-0.595482819742,1.0,0.0,0.0,0.0,1.0,0.0,0.0,0.0,1.0,0.925675048828,-4.90260498047,13.5725756836,0.1,0.0,0.0,0.0,0.1,0.0,0.0,0.0,0.1
1452010587817153161,341,1452010587814135074,robocape,-13.8333839443,20.1012791312,-9.15741095933,0.0,10.0,0.0,0.0,0.0,10.0,0.0,0.0,0.0,10.0,1.18617194952,0.22943132791,-0.512125877622,1.0,0.0,0.0,0.0,1.0,0.0,0.0,0.0,1.0,-0.475411376953,-3.12789550781,11.1859387207,0.1,0.0,0.0,0.0,0.1,0.0,0.0,0.0,0.1
1452010587850370244,342,1452010587847323894,robocape,-11.2481170979,20.8033739407,-10.0644003371,0.0,10.0,0.0,0.0,0.0,10.0,0.0,0.0,0.0,10.0,1.5137407636,0.470314248508,-0.359526747161,1.0,0.0,0.0,0.0,1.0,0.0,0.0,0.0,1.0,0.009580078125,-0.426313476563,9.95729370117,0.1,0.0,0.0,0.0,0.1,0.0,0.0,0.0,0.1
1452010587883738744,343,1452010587880724906,robocape,-8.88241509294,21.6811529683,-10.335251947,0.0,10.0,0.0,0.0,0.0,10.0,0.0,0.0,0.0,10.0,1.28297785515,0.499742178553,-0.0583232278727,1.0,0.0,0.0,0.0,1.0,0.0,0.0,0.0,1.0,-1.44898681641,0.158071289063,6.72880737305,0.1,0.0,0.0,0.0,0.1,0.0,0.0,0.0,0.1
1452010587916975619,344,1452010587913979053,robocape,-6.96142115475,22.3697642034,-10.4673531654,0.0,10.0,0.0,0.0,0.0,10.0,0.0,0.0,0.0,10.0,1.02571649384,0.395213105768,-0.0246342400832,1.0,0.0,0.0,0.0,1.0,0.0,0.0,0.0,1.0,0.986748046875,4.31582519531,10.2039807129,0.1,0.0,0.0,0.0,0.1,0.0,0.0,0.0,0.1
1452010587951408827,345,1452010587948380947,robocape,-6.25527290158,22.1750911984,-10.0148330102,0.0,10.0,0.0,0.0,0.0,10.0,0.0,0.0,0.0,10.0,0.276968753368,-0.110787501347,0.200136555919,1.0,0.0,0.0,0.0,1.0,0.0,0.0,0.0,1.0,-0.963995361328,3.22968383789,8.42448120117,0.1,0.0,0.0,0.0,0.1,0.0,0.0,0.0,0.1
1452010587983975786,346,1452010587980906009,robocape,-7.96123482351,22.3779016095,-9.03727102697,0.0,10.0,0.0,0.0,0.0,10.0,0.0,0.0,0.0,10.0,-1.09535815635,0.0756337749583,0.473376883762,1.0,0.0,0.0,0.0,1.0,0.0,0.0,0.0,1.0,-2.01301391602,3.57815917969,8.59812011719,0.1,0.0,0.0,0.0,0.1,0.0,0.0,0.0,0.1
1452010588016980994,347,1452010588013916015,robocape,-10.4104741846,21.7328788994,-8.10889314425,0.0,10.0,0.0,0.0,0.0,10.0,0.0,0.0,0.0,10.0,-1.47326071503,-0.385359409734,0.384959935571,1.0,0.0,0.0,0.0,1.0,0.0,0.0,0.0,1.0,-1.55197265625,2.56985595703,8.58854003906,0.1,0.0,0.0,0.0,0.1,0.0,0.0,0.0,0.1
1452010588050148786,348,1452010588047039031,robocape,-14.1772269039,20.5605057209,-7.36415052427,0.0,10.0,0.0,0.0,0.0,10.0,0.0,0.0,0.0,10.0,-2.13052887206,-0.649944464034,0.217447103005,1.0,0.0,0.0,0.0,1.0,0.0,0.0,0.0,1.0,0.0371228027344,-0.990340576172,5.57201293945,0.1,0.0,0.0,0.0,0.1,0.0,0.0,0.0,0.1
1452010588083525827,349,1452010588080435991,robocape,-17.0830047867,19.1365556141,-7.06400606318,0.0,10.0,0.0,0.0,0.0,10.0,0.0,0.0,0.0,10.0,-1.59869560237,-0.728241400082,-0.065780078925,1.0,0.0,0.0,0.0,1.0,0.0,0.0,0.0,1.0,3.85358642578,-4.26552978516,9.35973632813,0.1,0.0,0.0,0.0,0.1,0.0,0.0,0.0,0.1
1452010588119188286,350,1452010588115994930,robocape,-19.1561428902,16.2156693401,-8.44146966946,0.0,10.0,0.0,0.0,0.0,10.0,0.0,0.0,0.0,10.0,-0.878310527508,-1.22811673669,-1.13344135994,1.0,0.0,0.0,0.0,1.0,0.0,0.0,0.0,1.0,1.64058837891,-7.31438964844,12.6013952637,0.1,0.0,0.0,0.0,0.1,0.0,0.0,0.0,0.1
1452010588150430744,351,1452010588147176027,robocape,-19.9640229919,14.877746159,-10.6905727922,0.0,10.0,0.0,0.0,0.0,10.0,0.0,0.0,0.0,10.0,-0.134889109213,-0.254331884103,-1.31613421072,1.0,0.0,0.0,0.0,1.0,0.0,0.0,0.0,1.0,0.841849365234,-5.44627441406,15.5975646973,0.1,0.0,0.0,0.0,0.1,0.0,0.0,0.0,0.1
1452010588183871494,352,1452010588180562019,robocape,-18.6363752735,15.4324072109,-11.9954753595,0.0,10.0,0.0,0.0,0.0,10.0,0.0,0.0,0.0,10.0,0.858603135442,0.507997977933,-0.534629588833,1.0,0.0,0.0,0.0,1.0,0.0,0.0,0.0,1.0,2.51357299805,-5.70733154297,13.5677856445,0.1,0.0,0.0,0.0,0.1,0.0,0.0,0.0,0.1
1452010588217071911,353,1452010588213738918,robocape,-15.7385710313,16.1700681265,-13.6334459324,0.0,10.0,0.0,0.0,0.0,10.0,0.0,0.0,0.0,10.0,1.74863157175,0.616788108462,-0.676709232989,1.0,0.0,0.0,0.0,1.0,0.0,0.0,0.0,1.0,-2.42974731445,-5.1732421875,6.1695703125,0.1,0.0,0.0,0.0,0.1,0.0,0.0,0.0,0.1
1452010588250725702,354,1452010588247304916,robocape,-11.9214038554,17.3157481576,-14.3640453097,0.0,10.0,0.0,0.0,0.0,10.0,0.0,0.0,0.0,10.0,2.1093567414,0.671249752754,-0.212919729152,1.0,0.0,0.0,0.0,1.0,0.0,0.0,0.0,1.0,-2.51716552734,-1.02147583008,8.55261474609,0.1,0.0,0.0,0.0,0.1,0.0,0.0,0.0,0.1
1452010588283655244,355,1452010588280481100,robocape,-8.31825815137,18.5043271662,-14.3821427762,0.0,10.0,0.0,0.0,0.0,10.0,0.0,0.0,0.0,10.0,1.88698279038,0.624910749787,0.0941427445343,1.0,0.0,0.0,0.0,1.0,0.0,0.0,0.0,1.0,-0.477806396484,-0.347277832031,3.28117675781,0.1,0.0,0.0,0.0,0.1,0.0,0.0,0.0,0.1
1452010588316990369,356,1452010588313853979,robocape,-5.0767720994,19.7330466977,-13.8542738556,0.0,10.0,0.0,0.0,0.0,10.0,0.0,0.0,0.0,10.0,1.60428824066,0.628905491422,0.322508808009,1.0,0.0,0.0,0.0,1.0,0.0,0.0,0.0,1.0,-2.90515869141,6.30369140625,10.7799829102,0.1,0.0,0.0,0.0,0.1,0.0,0.0,0.0,0.1
1452010588350187994,357,1452010588347059965,robocape,-4.04360212213,20.663781987,-12.9947695647,0.0,10.0,0.0,0.0,0.0,10.0,0.0,0.0,0.0,10.0,0.383095722808,0.479901628432,0.444082111771,1.0,0.0,0.0,0.0,1.0,0.0,0.0,0.0,1.0,-3.30871948242,5.34089355469,8.73583374023,0.1,0.0,0.0,0.0,0.1,0.0,0.0,0.0,0.1
1452010588383475953,358,1452010588380394935,robocape,-4.88655299935,20.8546386247,-11.9548161881,0.0,10.0,0.0,0.0,0.0,10.0,0.0,0.0,0.0,10.0,-0.636761816638,0.0776311457758,0.50613376517,1.0,0.0,0.0,0.0,1.0,0.0,0.0,0.0,1.0,-4.19727172852,4.93374023438,10.0183666992,0.1,0.0,0.0,0.0,0.1,0.0,0.0,0.0,0.1
1452010588418470411,359,1452010588415450096,robocape,-7.26025812115,20.6000982612,-10.9353737416,0.0,10.0,0.0,0.0,0.0,10.0,0.0,0.0,0.0,10.0,-1.43584330172,-0.17057546782,0.475374254579,1.0,0.0,0.0,0.0,1.0,0.0,0.0,0.0,1.0,-4.49066162109,1.83218994141,6.24142089844,0.1,0.0,0.0,0.0,0.1,0.0,0.0,0.0,0.1
1452010588450522953,360,1452010588447249889,robocape,-10.0774100582,19.8510586572,-10.2336550801,0.0,10.0,0.0,0.0,0.0,10.0,0.0,0.0,0.0,10.0,-1.60934824673,-0.42277682305,0.274305592278,1.0,0.0,0.0,0.0,1.0,0.0,0.0,0.0,1.0,-3.03568725586,0.866997070313,8.78852416992,0.1,0.0,0.0,0.0,0.1,0.0,0.0,0.0,0.1
1452010588483662786,361,1452010588480551958,robocape,-14.0140193544,18.8684198599,-10.0131138998,0.0,10.0,0.0,0.0,0.0,10.0,0.0,0.0,0.0,10.0,-2.12000938576,-0.494415856373,-0.0143810698864,1.0,0.0,0.0,0.0,1.0,0.0,0.0,0.0,1.0,-4.54335205078,-4.44755126953,7.26888427734,0.1,0.0,0.0,0.0,0.1,0.0,0.0,0.0,0.1
1452010588518237286,362,1452010588515047073,robocape,-15.6242643126,18.6668217591,-10.6800081746,0.0,10.0,0.0,0.0,0.0,10.0,0.0,0.0,0.0,10.0,-0.758468278455,0.0230363434292,-0.363388330741,1.0,0.0,0.0,0.0,1.0,0.0,0.0,0.0,1.0,-4.68705322266,-3.94459716797,9.61241088867,0.1,0.0,0.0,0.0,0.1,0.0,0.0,0.0,0.1
1452010588550995494,363,1452010588547333955,robocape,-16.1843784051,18.4113012117,-11.9785320112,0.0,10.0,0.0,0.0,0.0,10.0,0.0,0.0,0.0,10.0,-0.101466437532,0.083223784065,-0.672847649409,1.0,0.0,0.0,0.0,1.0,0.0,0.0,0.0,1.0,1.23343505859,-5.41992919922,12.4145837402,0.1,0.0,0.0,0.0,0.1,0.0,0.0,0.0,0.1
1452010588584749828,364,1452010588581708908,robocape,-14.6079577106,18.4943620307,-13.2934579565,0.0,10.0,0.0,0.0,0.0,10.0,0.0,0.0,0.0,10.0,1.03330650295,0.232360805109,-0.626908120605,1.0,0.0,0.0,0.0,1.0,0.0,0.0,0.0,1.0,-1.43701171875,-5.50854492188,12.7846142578,0.1,0.0,0.0,0.0,0.1,0.0,0.0,0.0,0.1
1452010588623337369,365,1452010588619992971,robocape,-11.3116608884,19.2108167641,-14.3952537924,0.0,10.0,0.0,0.0,0.0,10.0,0.0,0.0,0.0,10.0,1.90868755326,0.498676914117,-0.453935807804,1.0,0.0,0.0,0.0,1.0,0.0,0.0,0.0,1.0,1.09811645508,-5.33969604492,8.54423217773,0.1,0.0,0.0,0.0,0.1,0.0,0.0,0.0,0.1
1452010588650420911,366,1452010588647336959,robocape,-7.39344481364,20.2023727455,-14.0663664264,0.0,10.0,0.0,0.0,0.0,10.0,0.0,0.0,0.0,10.0,1.99244396954,0.493883224155,0.240217130325,1.0,0.0,0.0,0.0,1.0,0.0,0.0,0.0,1.0,0.783171386719,-2.45130249023,5.59955566406,0.1,0.0,0.0,0.0,0.1,0.0,0.0,0.0,0.1
1452010588683901744,367,1452010588680901050,robocape,-2.53008249439,21.3536348537,-13.2603299542,0.0,10.0,0.0,0.0,0.0,10.0,0.0,0.0,0.0,10.0,2.39777708745,0.583498594836,0.436758418773,1.0,0.0,0.0,0.0,1.0,0.0,0.0,0.0,1.0,1.05979614258,-2.42136474609,4.12542114258,0.1,0.0,0.0,0.0,0.1,0.0,0.0,0.0,0.1
1452010588718394244,368,1452010588715289115,robocape,0.34837780402,23.0445831063,-14.9736441776,0.0,10.0,0.0,0.0,0.0,10.0,0.0,0.0,0.0,10.0,1.85888644088,0.983239074457,-0.863929457622,1.0,0.0,0.0,0.0,1.0,0.0,0.0,0.0,1.0,6.55157592773,3.38057006836,8.10235107422,0.1,0.0,0.0,0.0,0.1,0.0,0.0,0.0,0.1
1452010588751631328,369,1452010588748529911,robocape,2.43307950911,24.7422666471,-13.9504709858,0.0,10.0,0.0,0.0,0.0,10.0,0.0,0.0,0.0,10.0,0.887498433269,0.964197472663,0.432097886865,1.0,0.0,0.0,0.0,1.0,0.0,0.0,0.0,1.0,-7.32756225586,12.0218005371,8.20174438477,0.1,0.0,0.0,0.0,0.1,0.0,0.0,0.0,0.1
1452010588785234869,370,1452010588782053947,robocape,1.26086800816,25.7016476223,-12.4530991279,0.0,10.0,0.0,0.0,0.0,10.0,0.0,0.0,0.0,10.0,-0.943824290324,0.553937506736,0.678040813534,1.0,0.0,0.0,0.0,1.0,0.0,0.0,0.0,1.0,-9.47110473633,8.3574206543,8.353828125,0.1,0.0,0.0,0.0,0.1,0.0,0.0,0.0,0.1
1452010588817619328,371,1452010588814519882,robocape,-1.47460422259,25.2540042322,-10.9406024921,0.0,10.0,0.0,0.0,0.0,10.0,0.0,0.0,0.0,10.0,-1.77379844405,-0.246741874996,0.719719284594,1.0,0.0,0.0,0.0,1.0,0.0,0.0,0.0,1.0,-5.08702148438,1.97229858398,8.72984619141,0.1,0.0,0.0,0.0,0.1,0.0,0.0,0.0,0.1
1452010588853248119,372,1452010588850117921,robocape,-5.14547893563,25.0258795973,-10.2228020303,0.0,10.0,0.0,0.0,0.0,10.0,0.0,0.0,0.0,10.0,-2.0841898691,-0.125168571234,0.32756881408,1.0,0.0,0.0,0.0,1.0,0.0,0.0,0.0,1.0,-2.75307495117,1.04422851562,5.94443847656,0.1,0.0,0.0,0.0,0.1,0.0,0.0,0.0,0.1
1452010588886777661,373,1452010588883675098,robocape,-8.93708792338,24.0498718149,-8.94553642011,0.0,10.0,0.0,0.0,0.0,10.0,0.0,0.0,0.0,10.0,-2.26555113933,-0.577240166275,0.539955911014,1.0,0.0,0.0,0.0,1.0,0.0,0.0,0.0,1.0,0.0993933105469,-4.92535766602,6.94196411133,0.1,0.0,0.0,0.0,0.1,0.0,0.0,0.0,0.1
1452010588921214661,374,1452010588916975021,robocape,-10.8829292126,23.084554362,-9.49022937787,0.0,10.0,0.0,0.0,0.0,10.0,0.0,0.0,0.0,10.0,-0.913730570006,-0.428502619394,-0.352336212217,1.0,0.0,0.0,0.0,1.0,0.0,0.0,0.0,1.0,3.36260742188,-2.51117797852,10.6602319336,0.1,0.0,0.0,0.0,0.1,0.0,0.0,0.0,0.1
1452010588952558536,375,1452010588949409008,robocape,-11.6774920557,22.4977732109,-9.98593583897,0.0,10.0,0.0,0.0,0.0,10.0,0.0,0.0,0.0,10.0,-0.32610407548,-0.228099747365,-0.303467206215,1.0,0.0,0.0,0.0,1.0,0.0,0.0,0.0,1.0,-0.105380859375,-5.67978881836,10.7464526367,0.1,0.0,0.0,0.0,0.1,0.0,0.0,0.0,0.1
1452010588987726620,376,1452010588984514951,robocape,-10.5311426043,22.3189642316,-10.7440415866,0.0,10.0,0.0,0.0,0.0,10.0,0.0,0.0,0.0,10.0,0.744752998841,-0.00159789665405,-0.385093093625,1.0,0.0,0.0,0.0,1.0,0.0,0.0,0.0,1.0,-0.718505859375,-4.70501586914,9.81239501953,0.1,0.0,0.0,0.0,0.1,0.0,0.0,0.0,0.1
1452010589020264786,377,1452010589017188072,robocape,-8.14506875895,22.9655594746,-11.5870314294,0.0,10.0,0.0,0.0,0.0,10.0,0.0,0.0,0.0,10.0,1.41254064218,0.430100516048,-0.358594640779,1.0,0.0,0.0,0.0,1.0,0.0,0.0,0.0,1.0,-3.56977661133,-4.84033447266,7.46647338867,0.1,0.0,0.0,0.0,0.1,0.0,0.0,0.0,0.1
1452010589052356078,378,1452010589049232959,robocape,-5.06977011814,23.7360788824,-12.3866066308,0.0,10.0,0.0,0.0,0.0,10.0,0.0,0.0,0.0,10.0,1.77313265377,0.482165315359,-0.351270947781,1.0,0.0,0.0,0.0,1.0,0.0,0.0,0.0,1.0,6.72162231445,-0.829874267578,3.62845458984,0.1,0.0,0.0,0.0,0.1,0.0,0.0,0.0,0.1
1452010589087192328,379,1452010589083812952,robocape,-1.59195241611,25.1093700135,-12.2795330547,0.0,10.0,0.0,0.0,0.0,10.0,0.0,0.0,0.0,10.0,1.80043005495,0.770851977523,0.0688427141785,1.0,0.0,0.0,0.0,1.0,0.0,0.0,0.0,1.0,0.177231445313,-1.28253295898,5.07025634766,0.1,0.0,0.0,0.0,0.1,0.0,0.0,0.0,0.1
1452010589120793120,380,1452010589117232084,robocape,1.98022430145,26.6364984813,-11.3178037335,0.0,10.0,0.0,0.0,0.0,10.0,0.0,0.0,0.0,10.0,1.66207883632,0.871253150619,0.422111032778,1.0,0.0,0.0,0.0,1.0,0.0,0.0,0.0,1.0,-4.06794067383,3.55181396484,7.87362670898,0.1,0.0,0.0,0.0,0.1,0.0,0.0,0.0,0.1
1452010589153643953,381,1452010589150190114,robocape,3.14492796638,28.2576809498,-10.6119979605,0.0,10.0,0.0,0.0,0.0,10.0,0.0,0.0,0.0,10.0,0.455933178622,0.948085348068,0.256062938811,1.0,0.0,0.0,0.0,1.0,0.0,0.0,0.0,1.0,-5.13372436523,13.1402746582,10.039921875,0.1,0.0,0.0,0.0,0.1,0.0,0.0,0.0,0.1
1452010589187889286,382,1452010589184634923,robocape,1.93718613961,29.1822411779,-9.37510557281,0.0,10.0,0.0,0.0,0.0,10.0,0.0,0.0,0.0,10.0,-0.937299545653,0.555668561445,0.529569582762,1.0,0.0,0.0,0.0,1.0,0.0,0.0,0.0,1.0,-2.58781860352,10.6710095215,10.0111816406,0.1,0.0,0.0,0.0,0.1,0.0,0.0,0.0,0.1
1452010589220277995,383,1452010589217015981,robocape,-1.00900554161,29.8874187303,-8.39887630842,0.0,10.0,0.0,0.0,0.0,10.0,0.0,0.0,0.0,10.0,-1.79390531028,0.412257336744,0.430233674102,1.0,0.0,0.0,0.0,1.0,0.0,0.0,0.0,1.0,-2.89078857422,4.41761352539,7.51078125,0.1,0.0,0.0,0.0,0.1,0.0,0.0,0.0,0.1
1452010589252916161,384,1452010589249536991,robocape,-4.64392689593,29.4800097779,-7.58060546323,0.0,10.0,0.0,0.0,0.0,10.0,0.0,0.0,0.0,10.0,-2.11747938272,-0.21877868355,0.35832832467,1.0,0.0,0.0,0.0,1.0,0.0,0.0,0.0,1.0,-4.52059936523,1.8429675293,7.56826171875,0.1,0.0,0.0,0.0,0.1,0.0,0.0,0.0,0.1
1452010589286738620,385,1452010589283497095,robocape,-8.56520469734,27.7892940573,-6.39967843455,0.0,10.0,0.0,0.0,0.0,10.0,0.0,0.0,0.0,10.0,-2.34677755258,-0.95847167632,0.440753160408,1.0,0.0,0.0,0.0,1.0,0.0,0.0,0.0,1.0,-1.35079101563,-1.15679443359,4.76489135742,0.1,0.0,0.0,0.0,0.1,0.0,0.0,0.0,0.1
1452010589320005078,386,1452010589316874027,robocape,-11.5420884486,26.7597277454,-6.09933903754,0.0,10.0,0.0,0.0,0.0,10.0,0.0,0.0,0.0,10.0,-1.6407735476,-0.529036950544,0.0395479421877,1.0,0.0,0.0,0.0,1.0,0.0,0.0,0.0,1.0,-1.10290649414,-4.50143920898,8.91546020508,0.1,0.0,0.0,0.0,0.1,0.0,0.0,0.0,0.1
1452010589352515411,387,1452010589349375963,robocape,-13.2452719286,26.0037605275,-6.10000945173,0.0,10.0,0.0,0.0,0.0,10.0,0.0,0.0,0.0,10.0,-0.90587424479,-0.354067266926,-0.0894822126267,1.0,0.0,0.0,0.0,1.0,0.0,0.0,0.0,1.0,5.30975830078,-5.96120361328,7.82572631836,0.1,0.0,0.0,0.0,0.1,0.0,0.0,0.0,0.1
1452010589386280828,388,1452010589382817983,robocape,-14.0231007549,25.3555500716,-6.5683992247,0.0,10.0,0.0,0.0,0.0,10.0,0.0,0.0,0.0,10.0,-0.314386166684,-0.249138719977,-0.298673516252,1.0,0.0,0.0,0.0,1.0,0.0,0.0,0.0,1.0,1.62023071289,-3.78413085938,7.52874389648,0.1,0.0,0.0,0.0,0.1,0.0,0.0,0.0,0.1
1452010589419258911,389,1452010589416117906,robocape,-12.3820485645,25.2838727232,-7.45091406023,0.0,10.0,0.0,0.0,0.0,10.0,0.0,0.0,0.0,10.0,1.05154915642,0.0725711397047,-0.41745050087,1.0,0.0,0.0,0.0,1.0,0.0,0.0,0.0,1.0,2.63452148438,-3.82245117188,13.626463623,0.1,0.0,0.0,0.0,0.1,0.0,0.0,0.0,0.1
1452010589452690245,390,1452010589449434995,robocape,-10.2938995328,25.2094523262,-7.9318635091,0.0,10.0,0.0,0.0,0.0,10.0,0.0,0.0,0.0,10.0,1.19762354221,0.016911072922,-0.233026595382,1.0,0.0,0.0,0.0,1.0,0.0,0.0,0.0,1.0,3.83203125,-3.95297973633,7.48323852539,0.1,0.0,0.0,0.0,0.1,0.0,0.0,0.0,0.1
1452010589485961745,391,1452010589482852935,robocape,-6.15430891661,25.9766631198,-8.52145067426,0.0,10.0,0.0,0.0,0.0,10.0,0.0,0.0,0.0,10.0,2.29897381101,0.457397917221,-0.222640267131,1.0,0.0,0.0,0.0,1.0,0.0,0.0,0.0,1.0,0.257464599609,-0.814306640625,7.82572631836,0.1,0.0,0.0,0.0,0.1,0.0,0.0,0.0,0.1
1452010589518366536,392,1452010589515253067,robocape,-1.96644967672,27.5482507195,-8.28907683899,0.0,10.0,0.0,0.0,0.0,10.0,0.0,0.0,0.0,10.0,2.13865151339,0.874582101982,0.152199656298,1.0,0.0,0.0,0.0,1.0,0.0,0.0,0.0,1.0,-0.086220703125,1.96391601563,7.36468505859,0.1,0.0,0.0,0.0,0.1,0.0,0.0,0.0,0.1
