%time,field.header.seq,field.header.stamp,field.header.frame_id,field.orientation.x,field.orientation.y,field.orientation.z,field.orientation.w,field.orientation_covariance0,field.orientation_covariance1,field.orientation_covariance2,field.orientation_covariance3,field.orientation_covariance4,field.orientation_covariance5,field.orientation_covariance6,field.orientation_covariance7,field.orientation_covariance8,field.angular_velocity.x,field.angular_velocity.y,field.angular_velocity.z,field.angular_velocity_covariance0,field.angular_velocity_covariance1,field.angular_velocity_covariance2,field.angular_velocity_covariance3,field.angular_velocity_covariance4,field.angular_velocity_covariance5,field.angular_velocity_covariance6,field.angular_velocity_covariance7,field.angular_velocity_covariance8,field.linear_acceleration.x,field.linear_acceleration.y,field.linear_acceleration.z,field.linear_acceleration_covariance0,field.linear_acceleration_covariance1,field.linear_acceleration_covariance2,field.linear_acceleration_covariance3,field.linear_acceleration_covariance4,field.linear_acceleration_covariance5,field.linear_acceleration_covariance6,field.linear_acceleration_covariance7,field.linear_acceleration_covariance8
1446040707150756650,1,1446040707147613048,robocape,0.18109148022,-9.46238471946,-120.805530179,0.0,10.0,0.0,0.0,0.0,10.0,0.0,0.0,0.0,10.0,-0.550075923156,-0.504269552407,-2.72108484379,1.0,0.0,0.0,0.0,1.0,0.0,0.0,0.0,1.0,-2.529140625,0.301772460938,8.7789440918,0.1,0.0,0.0,0.0,0.1,0.0,0.0,0.0,0.1
1446040707183140733,2,1446040707180100917,robocape,-0.222314482368,-10.2023477951,-123.459763621,0.0,10.0,0.0,0.0,0.0,10.0,0.0,0.0,0.0,10.0,-0.575642269621,-0.464055819946,-2.86409659433,1.0,0.0,0.0,0.0,1.0,0.0,0.0,0.0,1.0,-2.33035400391,0.0263452148438,8.57776245117,0.1,0.0,0.0,0.0,0.1,0.0,0.0,0.0,0.1
1446040707216505275,3,1446040707213515043,robocape,-0.616593690451,-10.5570673994,-126.100265204,0.0,10.0,0.0,0.0,0.0,10.0,0.0,0.0,0.0,10.0,-0.602806512739,-0.250070826358,-2.9402630015,1.0,0.0,0.0,0.0,1.0,0.0,0.0,0.0,1.0,-2.27167602539,-0.286204833984,8.52866455078,0.1,0.0,0.0,0.0,0.1,0.0,0.0,0.0,0.1
1446040707249553275,4,1446040707246568918,robocape,-1.01242237322,-10.446870053,-128.710945654,0.0,10.0,0.0,0.0,0.0,10.0,0.0,0.0,0.0,10.0,-0.614790737645,0.0113184346328,-2.96143513217,1.0,0.0,0.0,0.0,1.0,0.0,0.0,0.0,1.0,-2.26209594727,-0.511336669922,9.06035888672,0.1,0.0,0.0,0.0,0.1,0.0,0.0,0.0,0.1
1446040707283428608,5,1446040707280251979,robocape,-1.51793609237,-10.0493899417,-131.24345277,0.0,10.0,0.0,0.0,0.0,10.0,0.0,0.0,0.0,10.0,-0.655936576487,0.185222853815,-2.87514871285,1.0,0.0,0.0,0.0,1.0,0.0,0.0,0.0,1.0,-2.70876708984,-0.758023681641,9.63037353516,0.1,0.0,0.0,0.0,0.1,0.0,0.0,0.0,0.1
1446040707316333858,6,1446040707313365936,robocape,-2.25057223491,-9.90570322852,-133.648236024,0.0,10.0,0.0,0.0,0.0,10.0,0.0,0.0,0.0,10.0,-0.745551947168,0.0784300941028,-2.71136430581,1.0,0.0,0.0,0.0,1.0,0.0,0.0,0.0,1.0,-3.15304321289,-0.432301025391,10.1944006348,0.1,0.0,0.0,0.0,0.1,0.0,0.0,0.0,0.1
1446040707350201358,7,1446040707347301006,robocape,-3.32940768408,-10.1537652503,-135.929003257,0.0,10.0,0.0,0.0,0.0,10.0,0.0,0.0,0.0,10.0,-0.913464253897,-0.0976048539514,-2.5913888987,1.0,0.0,0.0,0.0,1.0,0.0,0.0,0.0,1.0,-2.78780273438,-1.13284423828,10.9452392578,0.1,0.0,0.0,0.0,0.1,0.0,0.0,0.0,0.1
1446040707383335108,8,1446040707380171060,robocape,-4.37336383422,-10.6504423212,-138.166974263,0.0,10.0,0.0,0.0,0.0,10.0,0.0,0.0,0.0,10.0,-0.912132673352,-0.193878127358,-2.63652947918,1.0,0.0,0.0,0.0,1.0,0.0,0.0,0.0,1.0,-2.63691650391,-2.63811401367,10.9356591797,0.1,0.0,0.0,0.0,0.1,0.0,0.0,0.0,0.1
1446040707416399442,9,1446040707413440942,robocape,-5.03434560206,-11.3449895647,-140.403495678,0.0,10.0,0.0,0.0,0.0,10.0,0.0,0.0,0.0,10.0,-0.73969299277,-0.266848741226,-2.71655746994,1.0,0.0,0.0,0.0,1.0,0.0,0.0,0.0,1.0,-2.45010498047,-3.03688476562,10.7428601074,0.1,0.0,0.0,0.0,0.1,0.0,0.0,0.0,0.1
1446040707449918608,10,1446040707446985006,robocape,-5.06623006755,-12.0413876908,-142.681653923,0.0,10.0,0.0,0.0,0.0,10.0,0.0,0.0,0.0,10.0,-0.441418950681,-0.249937668304,-2.77714438473,1.0,0.0,0.0,0.0,1.0,0.0,0.0,0.0,1.0,-1.70166137695,-2.87162841797,10.5464685059,0.1,0.0,0.0,0.0,0.1,0.0,0.0,0.0,0.1
1446040707483347275,11,1446040707480271100,robocape,-4.79020485296,-12.4826948254,-144.985579586,0.0,10.0,0.0,0.0,0.0,10.0,0.0,0.0,0.0,10.0,-0.301736151506,-0.116513297691,-2.77741070084,1.0,0.0,0.0,0.0,1.0,0.0,0.0,0.0,1.0,-0.975970458984,-1.29450805664,10.5285058594,0.1,0.0,0.0,0.0,0.1,0.0,0.0,0.0,0.1
1446040707516298483,12,1446040707513380050,robocape,-4.84282245097,-12.5211899119,-147.242464314,0.0,10.0,0.0,0.0,0.0,10.0,0.0,0.0,0.0,10.0,-0.472045303217,0.0885501062451,-2.68380058853,1.0,0.0,0.0,0.0,1.0,0.0,0.0,0.0,1.0,-0.341290283203,-0.795146484375,10.2830163574,0.1,0.0,0.0,0.0,0.1,0.0,0.0,0.0,0.1
1446040707549646650,13,1446040707546679019,robocape,-5.10498575771,-12.2062124706,-149.460522182,0.0,10.0,0.0,0.0,0.0,10.0,0.0,0.0,0.0,10.0,-0.563125412497,0.278832966131,-2.55437095955,1.0,0.0,0.0,0.0,1.0,0.0,0.0,0.0,1.0,-0.209564208984,-1.64657592773,9.88544311523,0.1,0.0,0.0,0.0,0.1,0.0,0.0,0.0,0.1
1446040707583336150,14,1446040707580188035,robocape,-5.42513882506,-11.6842559558,-151.647755481,0.0,10.0,0.0,0.0,0.0,10.0,0.0,0.0,0.0,10.0,-0.560329093353,0.396944160476,-2.3859260206,1.0,0.0,0.0,0.0,1.0,0.0,0.0,0.0,1.0,-0.258662109375,-1.00471069336,9.70821166992,0.1,0.0,0.0,0.0,0.1,0.0,0.0,0.0,0.1
1446040707616262108,15,1446040707613313913,robocape,-6.14466966789,-10.9996683889,-153.7767859,0.0,10.0,0.0,0.0,0.0,10.0,0.0,0.0,0.0,10.0,-0.733967196426,0.494549014428,-2.2395853187,1.0,0.0,0.0,0.0,1.0,0.0,0.0,0.0,1.0,-0.162861328125,-0.481398925781,9.75491455078,0.1,0.0,0.0,0.0,0.1,0.0,0.0,0.0,0.1
1446040707649571567,16,1446040707646656990,robocape,-7.42915425419,-10.1610320959,-155.850619581,0.0,10.0,0.0,0.0,0.0,10.0,0.0,0.0,0.0,10.0,-1.00015014738,0.600409667758,-2.15702732491,1.0,0.0,0.0,0.0,1.0,0.0,0.0,0.0,1.0,-0.32572265625,-1.10530151367,9.60522583008,0.1,0.0,0.0,0.0,0.1,0.0,0.0,0.0,0.1
1446040707684473692,17,1446040707680943012,robocape,-8.89225279098,-9.32696445467,-157.91135849,0.0,10.0,0.0,0.0,0.0,10.0,0.0,0.0,0.0,10.0,-1.07085707432,0.638492871346,-2.14690731277,1.0,0.0,0.0,0.0,1.0,0.0,0.0,0.0,1.0,-1.10051147461,-2.28484863281,9.42799438477,0.1,0.0,0.0,0.0,0.1,0.0,0.0,0.0,0.1
1446040707716586358,18,1446040707713526964,robocape,-10.1451716804,-8.79576834389,-159.969738848,0.0,10.0,0.0,0.0,0.0,10.0,0.0,0.0,0.0,10.0,-0.943957448379,0.525574841127,-2.1980400057,1.0,0.0,0.0,0.0,1.0,0.0,0.0,0.0,1.0,-1.609453125,-3.20214111328,9.32740356445,0.1,0.0,0.0,0.0,0.1,0.0,0.0,0.0,0.1
1446040707749623692,19,1446040707746622085,robocape,-11.1203868036,-8.54291389463,-162.0262667,0.0,10.0,0.0,0.0,0.0,10.0,0.0,0.0,0.0,10.0,-0.790426211536,0.421178926396,-2.27007851318,1.0,0.0,0.0,0.0,1.0,0.0,0.0,0.0,1.0,-1.12206665039,-2.42016723633,9.17172729492,0.1,0.0,0.0,0.0,0.1,0.0,0.0,0.0,0.1
1446040707783494025,20,1446040707780199050,robocape,-11.8506221082,-8.47064425811,-164.080903848,0.0,10.0,0.0,0.0,0.0,10.0,0.0,0.0,0.0,10.0,-0.656735524814,0.357529376343,-2.29990591739,1.0,0.0,0.0,0.0,1.0,0.0,0.0,0.0,1.0,-1.27654541016,-2.02019897461,9.39326660156,0.1,0.0,0.0,0.0,0.1,0.0,0.0,0.0,0.1
1446040707821456734,21,1446040707818428993,robocape,-12.2508485481,-8.47015205584,-166.149357244,0.0,10.0,0.0,0.0,0.0,10.0,0.0,0.0,0.0,10.0,-0.477238467342,0.337555668168,-2.2615563977,1.0,0.0,0.0,0.0,1.0,0.0,0.0,0.0,1.0,0.0131726074219,-2.37705688477,9.61600341797,0.1,0.0,0.0,0.0,0.1,0.0,0.0,0.0,0.1
1446040707849978734,22,1446040707846870899,robocape,-12.6350168815,-8.33599705518,-168.227643334,0.0,10.0,0.0,0.0,0.0,10.0,0.0,0.0,0.0,10.0,-0.454468440022,0.40679785651,-2.11348464109,1.0,0.0,0.0,0.0,1.0,0.0,0.0,0.0,1.0,-0.104183349609,-2.67284179688,9.40404418945,0.1,0.0,0.0,0.0,0.1,0.0,0.0,0.0,0.1
1446040707883334859,23,1446040707880409002,robocape,-12.7464102268,-8.14270410803,-170.329150241,0.0,10.0,0.0,0.0,0.0,10.0,0.0,0.0,0.0,10.0,-0.283892972202,0.421178926396,-1.84410589683,1.0,0.0,0.0,0.0,1.0,0.0,0.0,0.0,1.0,-0.379610595703,-1.9543359375,9.14298706055,0.1,0.0,0.0,0.0,0.1,0.0,0.0,0.0,0.1
1446040707916309067,24,1446040707913331031,robocape,-13.2773606267,-8.04808125314,-172.381977008,0.0,10.0,0.0,0.0,0.0,10.0,0.0,0.0,0.0,10.0,-0.464854768273,0.334226716805,-1.46354017705,1.0,0.0,0.0,0.0,1.0,0.0,0.0,0.0,1.0,-0.752036132813,-0.633482666016,8.77295654297,0.1,0.0,0.0,0.0,0.1,0.0,0.0,0.0,0.1
1446040707949661567,25,1446040707946758985,robocape,-14.4092537809,-8.19672055383,-174.359537063,0.0,10.0,0.0,0.0,0.0,10.0,0.0,0.0,0.0,10.0,-0.747948792149,0.18242653467,-1.12771556359,1.0,0.0,0.0,0.0,1.0,0.0,0.0,0.0,1.0,-0.467028808594,-0.572409667969,8.3155078125,0.1,0.0,0.0,0.0,0.1,0.0,0.0,0.0,0.1
1446040707983803442,26,1446040707980678081,robocape,-15.8530631645,-8.60422317147,-176.279123605,0.0,10.0,0.0,0.0,0.0,10.0,0.0,0.0,0.0,10.0,-0.899615816229,0.0484695318394,-0.973918010642,1.0,0.0,0.0,0.0,1.0,0.0,0.0,0.0,1.0,-0.186811523438,-1.42503662109,8.25084228516,0.1,0.0,0.0,0.0,0.1,0.0,0.0,0.0,0.1
1446040708016594109,27,1446040708013672113,robocape,-17.5100026481,-9.11755360091,-178.162834104,0.0,10.0,0.0,0.0,0.0,10.0,0.0,0.0,0.0,10.0,-1.01879227501,0.0209058145571,-1.0006827796,1.0,0.0,0.0,0.0,1.0,0.0,0.0,0.0,1.0,-0.111368408203,-1.61903320313,8.71308105469,0.1,0.0,0.0,0.0,0.1,0.0,0.0,0.0,0.1
1446040708049655359,28,1446040708046658039,robocape,-18.5382156272,-9.52194487829,179.88782046,0.0,10.0,0.0,0.0,0.0,10.0,0.0,0.0,0.0,10.0,-0.706536637198,0.115581191309,-1.05780758498,1.0,0.0,0.0,0.0,1.0,0.0,0.0,0.0,1.0,-0.143701171875,-3.755390625,9.03401367187,0.1,0.0,0.0,0.0,0.1,0.0,0.0,0.0,0.1
1446040708084460525,29,1446040708081008911,robocape,-18.33696489,-9.90016516406,177.831674541,0.0,10.0,0.0,0.0,0.0,10.0,0.0,0.0,0.0,10.0,-0.0749679846857,0.145275437464,-1.05407915945,1.0,0.0,0.0,0.0,1.0,0.0,0.0,0.0,1.0,-0.892144775391,-3.28955932617,8.50471435547,0.1,0.0,0.0,0.0,0.1,0.0,0.0,0.0,0.1
1446040708116422900,30,1446040708113430976,robocape,-17.4476741603,-10.4374816162,175.741782926,0.0,10.0,0.0,0.0,0.0,10.0,0.0,0.0,0.0,10.0,0.294146142399,0.0209058145571,-0.852211548825,1.0,0.0,0.0,0.0,1.0,0.0,0.0,0.0,1.0,-0.884959716797,-2.66445922852,9.1238269043,0.1,0.0,0.0,0.0,0.1,0.0,0.0,0.0,0.1
1446040708149693567,31,1446040708146702051,robocape,-15.9260851386,-11.1291104332,173.615940829,0.0,10.0,0.0,0.0,0.0,10.0,0.0,0.0,0.0,10.0,0.636628658583,-0.120641197381,-0.592952816706,1.0,0.0,0.0,0.0,1.0,0.0,0.0,0.0,1.0,-0.481398925781,-2.53632568359,9.35015625,0.1,0.0,0.0,0.0,0.1,0.0,0.0,0.0,0.1
1446040708183968317,32,1446040708180773973,robocape,-14.0949030367,-11.6876639128,171.439265847,0.0,10.0,0.0,0.0,0.0,10.0,0.0,0.0,0.0,10.0,0.811465184147,-0.118510668509,-0.293746668236,1.0,0.0,0.0,0.0,1.0,0.0,0.0,0.0,1.0,-0.0562829589844,-1.69088378906,9.29267578125,0.1,0.0,0.0,0.0,0.1,0.0,0.0,0.0,0.1
1446040708216436650,33,1446040708213361978,robocape,-12.4949411664,-11.8744254266,169.243190124,0.0,10.0,0.0,0.0,0.0,10.0,0.0,0.0,0.0,10.0,0.694685570347,0.0358195166616,-0.144609647191,1.0,0.0,0.0,0.0,1.0,0.0,0.0,0.0,1.0,0.1149609375,-0.807121582031,9.9596887207,0.1,0.0,0.0,0.0,0.1,0.0,0.0,0.0,0.1
1446040708249890942,34,1446040708246823072,robocape,-11.2564070674,-11.5072816694,167.039195315,0.0,10.0,0.0,0.0,0.0,10.0,0.0,0.0,0.0,10.0,0.498277439954,0.315717747229,-0.183225482997,1.0,0.0,0.0,0.0,1.0,0.0,0.0,0.0,1.0,0.0682580566406,-2.2573059082,10.9416467285,0.1,0.0,0.0,0.0,0.1,0.0,0.0,0.0,0.1
1446040708283800984,35,1446040708280759096,robocape,-10.0994988572,-10.5897083665,164.819256727,0.0,10.0,0.0,0.0,0.0,10.0,0.0,0.0,0.0,10.0,0.449275275896,0.603871777175,-0.300804045124,1.0,0.0,0.0,0.0,1.0,0.0,0.0,0.0,1.0,-0.211959228516,-1.20229980469,11.6793127441,0.1,0.0,0.0,0.0,0.1,0.0,0.0,0.0,0.1
1446040708316741359,36,1446040708313673973,robocape,-9.3951020374,-9.21701834836,162.631181354,0.0,10.0,0.0,0.0,0.0,10.0,0.0,0.0,0.0,10.0,0.223705531567,0.836498898394,-0.353934108872,1.0,0.0,0.0,0.0,1.0,0.0,0.0,0.0,1.0,-0.481398925781,-1.14002929688,11.2134814453,0.1,0.0,0.0,0.0,0.1,0.0,0.0,0.0,0.1
1446040708350149192,37,1446040708347129106,robocape,-8.94117601039,-7.68271374011,160.474410971,0.0,10.0,0.0,0.0,0.0,10.0,0.0,0.0,0.0,10.0,0.110388027184,0.919056892186,-0.410126807872,1.0,0.0,0.0,0.0,1.0,0.0,0.0,0.0,1.0,-0.726888427734,-0.929267578125,10.7919580078,0.1,0.0,0.0,0.0,0.1,0.0,0.0,0.0,0.1
1446040708383787609,38,1446040708380573987,robocape,-8.65325454223,-6.43104099768,158.365717684,0.0,10.0,0.0,0.0,0.0,10.0,0.0,0.0,0.0,10.0,0.0440753160408,0.768188816433,-0.445413692316,1.0,0.0,0.0,0.0,1.0,0.0,0.0,0.0,1.0,-1.53041748047,-1.29331054688,10.4710253906,0.1,0.0,0.0,0.0,0.1,0.0,0.0,0.0,0.1
1446040708417079817,39,1446040708414045095,robocape,-8.34013290703,-5.86556231048,156.318110173,0.0,10.0,0.0,0.0,0.0,10.0,0.0,0.0,0.0,10.0,0.0717721913776,0.404401011529,-0.471778987108,1.0,0.0,0.0,0.0,1.0,0.0,0.0,0.0,1.0,-1.94236083984,-1.90643554688,10.3836071777,0.1,0.0,0.0,0.0,0.1,0.0,0.0,0.0,0.1
1446040708449715317,40,1446040708446732044,robocape,-7.77288506405,-5.80131166534,154.303705793,0.0,10.0,0.0,0.0,0.0,10.0,0.0,0.0,0.0,10.0,0.207460248917,0.140348589447,-0.554203822845,1.0,0.0,0.0,0.0,1.0,0.0,0.0,0.0,1.0,-1.97469360352,-1.92679321289,9.98483642578,0.1,0.0,0.0,0.0,0.1,0.0,0.0,0.0,0.1
1446040708484208734,41,1446040708481066942,robocape,-6.82136304888,-6.02240158206,152.29483368,0.0,10.0,0.0,0.0,0.0,10.0,0.0,0.0,0.0,10.0,0.404001537365,-0.0125168571234,-0.669252381937,1.0,0.0,0.0,0.0,1.0,0.0,0.0,0.0,1.0,-1.77231445313,-2.67523681641,9.06035888672,0.1,0.0,0.0,0.0,0.1,0.0,0.0,0.0,0.1
1446040708516486026,42,1446040708513464927,robocape,-5.40886834038,-6.35096624438,150.276140366,0.0,10.0,0.0,0.0,0.0,10.0,0.0,0.0,0.0,10.0,0.639691293837,-0.084289048501,-0.71931981043,1.0,0.0,0.0,0.0,1.0,0.0,0.0,0.0,1.0,-1.6058605957,-2.43333984375,8.60650268555,0.1,0.0,0.0,0.0,0.1,0.0,0.0,0.0,0.1
1446040708549790859,43,1446040708546802043,robocape,-3.7940622831,-6.7008152263,148.251860493,0.0,10.0,0.0,0.0,0.0,10.0,0.0,0.0,0.0,10.0,0.741157731369,-0.119842249054,-0.71812138794,1.0,0.0,0.0,0.0,1.0,0.0,0.0,0.0,1.0,-1.10290649414,-1.93397827148,8.49992431641,0.1,0.0,0.0,0.0,0.1,0.0,0.0,0.0,0.1
1446040708583967484,44,1446040708580681085,robocape,-2.09718092412,-7.02213862953,146.222753198,0.0,10.0,0.0,0.0,0.0,10.0,0.0,0.0,0.0,10.0,0.77990672523,-0.131293841741,-0.716922965449,1.0,0.0,0.0,0.0,1.0,0.0,0.0,0.0,1.0,-0.455053710938,-1.44060424805,8.00056274414,0.1,0.0,0.0,0.0,0.1,0.0,0.0,0.0,0.1
1446040708616443817,45,1446040708613423109,robocape,-0.524470411371,-7.30806779146,144.225049734,0.0,10.0,0.0,0.0,0.0,10.0,0.0,0.0,0.0,10.0,0.721450339302,-0.143943856919,-0.564590151097,1.0,0.0,0.0,0.0,1.0,0.0,0.0,0.0,1.0,-0.937650146484,-0.429906005859,7.68082763672,0.1,0.0,0.0,0.0,0.1,0.0,0.0,0.0,0.1
1446040708649737526,46,1446040708646707057,robocape,0.863071242452,-7.61208235806,142.288169132,0.0,10.0,0.0,0.0,0.0,10.0,0.0,0.0,0.0,10.0,0.640490242164,-0.180296005798,-0.313187744193,1.0,0.0,0.0,0.0,1.0,0.0,0.0,0.0,1.0,-1.0346484375,-0.0275427246094,7.77064086914,0.1,0.0,0.0,0.0,0.1,0.0,0.0,0.0,0.1
1446040708683940942,47,1446040708680645942,robocape,1.72651327542,-7.9450593131,140.458405515,0.0,10.0,0.0,0.0,0.0,10.0,0.0,0.0,0.0,10.0,0.390153099697,-0.211321832498,0.00479368996214,1.0,0.0,0.0,0.0,1.0,0.0,0.0,0.0,1.0,-0.983155517578,1.1532019043,8.46399902344,0.1,0.0,0.0,0.0,0.1,0.0,0.0,0.0,0.1
1446040708718095942,48,1446040708715033054,robocape,1.4195028978,-8.37741128128,138.821838608,0.0,10.0,0.0,0.0,0.0,10.0,0.0,0.0,0.0,10.0,-0.188551805178,-0.264185580136,0.43489420601,1.0,0.0,0.0,0.0,1.0,0.0,0.0,0.0,1.0,-1.13044921875,1.66573608398,9.80281494141,0.1,0.0,0.0,0.0,0.1,0.0,0.0,0.0,0.1
1446040708749695609,49,1446040708746622085,robocape,0.624891683409,-8.88130273602,137.310751621,0.0,10.0,0.0,0.0,0.0,10.0,0.0,0.0,0.0,10.0,-0.425839458304,-0.302401941778,0.677375023262,1.0,0.0,0.0,0.0,1.0,0.0,0.0,0.0,1.0,-0.768801269531,-2.34592163086,10.3500769043,0.1,0.0,0.0,0.0,0.1,0.0,0.0,0.0,0.1
1446040708783867609,50,1446040708780581951,robocape,0.840698541652,-9.36867346503,135.702277717,0.0,10.0,0.0,0.0,0.0,10.0,0.0,0.0,0.0,10.0,0.0805606229749,-0.299605622634,0.434761047955,1.0,0.0,0.0,0.0,1.0,0.0,0.0,0.0,1.0,-0.494571533203,-3.89669677734,10.8087231445,0.1,0.0,0.0,0.0,0.1,0.0,0.0,0.0,0.1
1446040708822438317,51,1446040708819288969,robocape,1.69854674391,-9.672345626,134.03924092,0.0,10.0,0.0,0.0,0.0,10.0,0.0,0.0,0.0,10.0,0.404401011529,-0.209058145571,0.279631914458,1.0,0.0,0.0,0.0,1.0,0.0,0.0,0.0,1.0,-0.409548339844,-0.513731689453,11.3811328125,0.1,0.0,0.0,0.0,0.1,0.0,0.0,0.0,0.1
1446040708850015609,52,1446040708846842050,robocape,2.03038516023,-9.84361885082,132.473318194,0.0,10.0,0.0,0.0,0.0,10.0,0.0,0.0,0.0,10.0,0.141547011938,-0.141547011938,0.360725169651,1.0,0.0,0.0,0.0,1.0,0.0,0.0,0.0,1.0,-0.383203125,0.629890136719,12.4181762695,0.1,0.0,0.0,0.0,0.1,0.0,0.0,0.0,0.1
1446040708885141192,53,1446040708881827116,robocape,1.9102530706,-9.89588904535,131.036450005,0.0,10.0,0.0,0.0,0.0,10.0,0.0,0.0,0.0,10.0,-0.0732369299772,-0.0792290424299,0.536360643542,1.0,0.0,0.0,0.0,1.0,0.0,0.0,0.0,1.0,0.0981958007813,-0.570014648438,13.4971325684,0.1,0.0,0.0,0.0,0.1,0.0,0.0,0.0,0.1
1446040708916443192,54,1446040708913362979,robocape,2.13210504478,-9.80614125653,129.628417271,0.0,10.0,0.0,0.0,0.0,10.0,0.0,0.0,0.0,10.0,0.113317504383,-0.00825579937925,0.576441217948,1.0,0.0,0.0,0.0,1.0,0.0,0.0,0.0,1.0,0.128133544922,-2.55788085937,13.6935241699,0.1,0.0,0.0,0.0,0.1,0.0,0.0,0.0,0.1
1446040708949805692,55,1446040708946836948,robocape,2.85969476003,-9.59878706331,128.190904027,0.0,10.0,0.0,0.0,0.0,10.0,0.0,0.0,0.0,10.0,0.373242026775,0.0500674284935,0.482032157304,1.0,0.0,0.0,0.0,1.0,0.0,0.0,0.0,1.0,-0.182021484375,-1.42743164063,12.6828259277,0.1,0.0,0.0,0.0,0.1,0.0,0.0,0.0,0.1
1446040708983795276,56,1446040708980717897,robocape,3.56625657687,-9.23762867606,126.7185826,0.0,10.0,0.0,0.0,0.0,10.0,0.0,0.0,0.0,10.0,0.345278835329,0.131027525632,0.259658206283,1.0,0.0,0.0,0.0,1.0,0.0,0.0,0.0,1.0,0.167651367188,-0.198786621094,11.7116455078,0.1,0.0,0.0,0.0,0.1,0.0,0.0,0.0,0.1
1446040709017228651,57,1446040709013390064,robocape,3.84382903545,-8.66103974368,125.279907866,0.0,10.0,0.0,0.0,0.0,10.0,0.0,0.0,0.0,10.0,0.1153148752,0.246608716941,0.135288583376,1.0,0.0,0.0,0.0,1.0,0.0,0.0,0.0,1.0,0.793948974609,0.0155676269531,11.7355957031,0.1,0.0,0.0,0.0,0.1,0.0,0.0,0.0,0.1
1446040709049811234,58,1446040709046797990,robocape,3.81560028403,-7.86633734726,123.884999234,0.0,10.0,0.0,0.0,0.0,10.0,0.0,0.0,0.0,10.0,-0.0436758418773,0.364853069341,0.0732369299772,1.0,0.0,0.0,0.0,1.0,0.0,0.0,0.0,1.0,1.11847412109,-1.14242431641,11.7703234863,0.1,0.0,0.0,0.0,0.1,0.0,0.0,0.0,0.1
1446040709083872567,59,1446040709080737113,robocape,3.72501074455,-7.09828074154,122.514291731,0.0,10.0,0.0,0.0,0.0,10.0,0.0,0.0,0.0,10.0,-0.0725711397047,0.354333583035,0.0605869147993,1.0,0.0,0.0,0.0,1.0,0.0,0.0,0.0,1.0,0.217946777344,-1.15439941406,11.4685510254,0.1,0.0,0.0,0.0,0.1,0.0,0.0,0.0,0.1
1446040709116499109,60,1446040709113327980,robocape,3.55311296245,-6.47262459196,121.175744543,0.0,10.0,0.0,0.0,0.0,10.0,0.0,0.0,0.0,10.0,-0.109855394966,0.283626656093,0.08455536461,1.0,0.0,0.0,0.0,1.0,0.0,0.0,0.0,1.0,0.232316894531,-0.911304931641,11.2913195801,0.1,0.0,0.0,0.0,0.1,0.0,0.0,0.0,0.1
1446040709149813942,61,1446040709146792888,robocape,3.31671493325,-5.90377177036,119.853297479,0.0,10.0,0.0,0.0,0.0,10.0,0.0,0.0,0.0,10.0,-0.142612276374,0.257261361302,0.0639158661619,1.0,0.0,0.0,0.0,1.0,0.0,0.0,0.0,1.0,0.219144287109,-0.696950683594,11.4446008301,0.1,0.0,0.0,0.0,0.1,0.0,0.0,0.0,0.1
1446040709183895567,62,1446040709180790901,robocape,3.17459582858,-5.28253768419,118.494347114,0.0,10.0,0.0,0.0,0.0,10.0,0.0,0.0,0.0,10.0,-0.0989364344964,0.28589034302,-0.0599211245268,1.0,0.0,0.0,0.0,1.0,0.0,0.0,0.0,1.0,0.304167480469,-0.825084228516,11.5044763184,0.1,0.0,0.0,0.0,0.1,0.0,0.0,0.0,0.1
1446040709216684859,63,1446040709213319063,robocape,3.23828937859,-4.58752055299,117.130126847,0.0,10.0,0.0,0.0,0.0,10.0,0.0,0.0,0.0,10.0,0.0109189604693,0.325704601317,-0.109056446639,1.0,0.0,0.0,0.0,1.0,0.0,0.0,0.0,1.0,0.270637207031,-1.08374633789,11.4278356934,0.1,0.0,0.0,0.0,0.1,0.0,0.0,0.0,0.1
1446040709249722943,64,1446040709246644973,robocape,3.53168346267,-3.82699134557,115.774667078,0.0,10.0,0.0,0.0,0.0,10.0,0.0,0.0,0.0,10.0,0.136753321976,0.360192537433,-0.131027525632,1.0,0.0,0.0,0.0,1.0,0.0,0.0,0.0,1.0,0.0682580566406,-0.559237060547,11.18953125,0.1,0.0,0.0,0.0,0.1,0.0,0.0,0.0,0.1
1446040709283906068,65,1446040709280750989,robocape,3.81237452151,-3.00449481116,114.469602951,0.0,10.0,0.0,0.0,0.0,10.0,0.0,0.0,0.0,10.0,0.13954964112,0.39468047355,-0.0944090606433,1.0,0.0,0.0,0.0,1.0,0.0,0.0,0.0,1.0,-0.378413085938,-0.452658691406,11.03625,0.1,0.0,0.0,0.0,0.1,0.0,0.0,0.0,0.1
1446040709316587776,66,1446040709313509941,robocape,4.07692647877,-2.23968711586,113.209861882,0.0,10.0,0.0,0.0,0.0,10.0,0.0,0.0,0.0,10.0,0.139283325011,0.366983598213,-0.0552605926191,1.0,0.0,0.0,0.0,1.0,0.0,0.0,0.0,1.0,-0.831071777344,0.281414794922,11.0554101563,0.1,0.0,0.0,0.0,0.1,0.0,0.0,0.0,0.1
1446040709349773359,67,1446040709346731901,robocape,4.13093701615,-1.65581824338,112.011725221,0.0,10.0,0.0,0.0,0.0,10.0,0.0,0.0,0.0,10.0,0.0356863586071,0.277101911423,0.0150468601589,1.0,0.0,0.0,0.0,1.0,0.0,0.0,0.0,1.0,-4.5601171875,0.313747558594,13.4312695313,0.1,0.0,0.0,0.0,0.1,0.0,0.0,0.0,0.1
1446040709383963234,68,1446040709380647897,robocape,4.20730308264,-2.27969964337,110.677397429,0.0,10.0,0.0,0.0,0.0,10.0,0.0,0.0,0.0,10.0,0.0368847810976,-0.364719911286,-0.140215431393,1.0,0.0,0.0,0.0,1.0,0.0,0.0,0.0,1.0,0.605939941406,-0.758023681641,10.2794238281,0.1,0.0,0.0,0.0,0.1,0.0,0.0,0.0,0.1
1446040709416528359,69,1446040709413533926,robocape,4.10136833008,-2.52475647901,109.379358077,0.0,10.0,0.0,0.0,0.0,10.0,0.0,0.0,0.0,10.0,-0.0612527050718,-0.16644756813,-0.159523349296,1.0,0.0,0.0,0.0,1.0,0.0,0.0,0.0,1.0,0.0934057617188,-0.116158447266,10.3153491211,0.1,0.0,0.0,0.0,0.1,0.0,0.0,0.0,0.1
1446040709449713693,70,1446040709446738958,robocape,4.28528289341,-2.67083081956,108.12107481,0.0,10.0,0.0,0.0,0.0,10.0,0.0,0.0,0.0,10.0,0.0918790576077,-0.114515926873,-0.126500151779,1.0,0.0,0.0,0.0,1.0,0.0,0.0,0.0,1.0,-1.22864501953,-0.831071777344,10.862611084,0.1,0.0,0.0,0.0,0.1,0.0,0.0,0.0,0.1
1446040709484773026,71,1446040709481317996,robocape,4.64558719146,-2.59471315721,106.880590814,0.0,10.0,0.0,0.0,0.0,10.0,0.0,0.0,0.0,10.0,0.185489169924,-0.000399474163512,-0.144210173028,1.0,0.0,0.0,0.0,1.0,0.0,0.0,0.0,1.0,0.580792236328,-0.0778381347656,9.89622070313,0.1,0.0,0.0,0.0,0.1,0.0,0.0,0.0,0.1
1446040709516666609,72,1446040709513653993,robocape,4.76844532812,-2.51947294158,105.687671653,0.0,10.0,0.0,0.0,0.0,10.0,0.0,0.0,0.0,10.0,0.0636495500529,0.000133158054504,-0.117445404072,1.0,0.0,0.0,0.0,1.0,0.0,0.0,0.0,1.0,-1.1532019043,-0.508941650391,10.2470910645,0.1,0.0,0.0,0.0,0.1,0.0,0.0,0.0,0.1
1446040709549920693,73,1446040709546901941,robocape,4.89799907391,-2.36910048179,104.492988312,0.0,10.0,0.0,0.0,0.0,10.0,0.0,0.0,0.0,10.0,0.066845343361,0.0378168874791,-0.157659136533,1.0,0.0,0.0,0.0,1.0,0.0,0.0,0.0,1.0,-0.341290283203,0.184416503906,9.86388793945,0.1,0.0,0.0,0.0,0.1,0.0,0.0,0.0,0.1
1446040709584021859,74,1446040709580580949,robocape,4.84294646636,-2.33527125047,103.332578667,0.0,10.0,0.0,0.0,0.0,10.0,0.0,0.0,0.0,10.0,-0.0286289817184,-0.0214384467751,-0.136487005867,1.0,0.0,0.0,0.0,1.0,0.0,0.0,0.0,1.0,-1.01788330078,-0.611927490234,10.1800305176,0.1,0.0,0.0,0.0,0.1,0.0,0.0,0.0,0.1
1446040709616296234,75,1446040709613300085,robocape,4.82048311612,-2.3315331377,102.205513686,0.0,10.0,0.0,0.0,0.0,10.0,0.0,0.0,0.0,10.0,-0.0103863282513,-0.0355532005526,-0.114915401037,1.0,0.0,0.0,0.0,1.0,0.0,0.0,0.0,1.0,-1.41066650391,0.598754882812,10.5069506836,0.1,0.0,0.0,0.0,0.1,0.0,0.0,0.0,0.1
1446040709649711443,76,1446040709646701097,robocape,4.91231624045,-2.27056281616,101.11637874,0.0,10.0,0.0,0.0,0.0,10.0,0.0,0.0,0.0,10.0,0.051532167093,-0.00426105774413,-0.0917458995532,1.0,0.0,0.0,0.0,1.0,0.0,0.0,0.0,1.0,-0.592767333984,-0.866997070313,10.2554736328,0.1,0.0,0.0,0.0,0.1,0.0,0.0,0.0,0.1
1446040709684217359,77,1446040709680804014,robocape,5.02876728486,-2.21152463148,100.005082445,0.0,10.0,0.0,0.0,0.0,10.0,0.0,0.0,0.0,10.0,0.0627174436714,-0.00798948327024,-0.144742805246,1.0,0.0,0.0,0.0,1.0,0.0,0.0,0.0,1.0,-0.718505859375,-1.12565917969,10.2147583008,0.1,0.0,0.0,0.0,0.1,0.0,0.0,0.0,0.1
1446040709716636776,78,1446040709713283061,robocape,5.20955403043,-2.07733834613,99.0250992782,0.0,10.0,0.0,0.0,0.0,10.0,0.0,0.0,0.0,10.0,0.104795388895,0.0386158358061,-0.00745685105222,1.0,0.0,0.0,0.0,1.0,0.0,0.0,0.0,1.0,-0.783171386719,0.548459472656,9.74772949219,0.1,0.0,0.0,0.0,0.1,0.0,0.0,0.0,0.1
1446040709749691234,79,1446040709746603012,robocape,4.93282491784,-2.13098864494,98.0320983748,0.0,10.0,0.0,0.0,0.0,10.0,0.0,0.0,0.0,10.0,-0.13835121863,-0.0603205986903,-0.0490021640575,1.0,0.0,0.0,0.0,1.0,0.0,0.0,0.0,1.0,-0.755628662109,-1.0346484375,9.74892700195,0.1,0.0,0.0,0.0,0.1,0.0,0.0,0.0,0.1
1446040709783976943,80,1446040709780577898,robocape,4.81656739038,-2.24278487464,97.008419024,0.0,10.0,0.0,0.0,0.0,10.0,0.0,0.0,0.0,10.0,-0.0575242795457,-0.0928111639893,-0.0977380120059,1.0,0.0,0.0,0.0,1.0,0.0,0.0,0.0,1.0,-1.04782104492,-1.28852050781,9.81479003906,0.1,0.0,0.0,0.0,0.1,0.0,0.0,0.0,0.1
1446040709822138568,81,1446040709818995952,robocape,4.86313607189,-2.57057723471,96.0017182614,0.0,10.0,0.0,0.0,0.0,10.0,0.0,0.0,0.0,10.0,0.0271642431188,-0.205995510318,-0.0747016685767,1.0,0.0,0.0,0.0,1.0,0.0,0.0,0.0,1.0,-0.407153320313,-0.876577148438,9.7369519043,0.1,0.0,0.0,0.0,0.1,0.0,0.0,0.0,0.1
1446040709849787651,82,1446040709846606016,robocape,4.92981858701,-3.10254231492,95.0202369665,0.0,10.0,0.0,0.0,0.0,10.0,0.0,0.0,0.0,10.0,0.0364853069341,-0.313587218357,-0.0464721610219,1.0,0.0,0.0,0.0,1.0,0.0,0.0,0.0,1.0,-0.0814306640625,-0.510139160156,9.56451049805,0.1,0.0,0.0,0.0,0.1,0.0,0.0,0.0,0.1
1446040709884000276,83,1446040709880783081,robocape,4.90125462572,-3.69231915427,94.1055951311,0.0,10.0,0.0,0.0,0.0,10.0,0.0,0.0,0.0,10.0,-0.0126500151779,-0.342615674239,0.0134489635049,1.0,0.0,0.0,0.0,1.0,0.0,0.0,0.0,1.0,0.298179931641,-0.378413085938,10.0698596191,0.1,0.0,0.0,0.0,0.1,0.0,0.0,0.0,0.1
1446040709916396860,84,1446040709913347959,robocape,4.84958979997,-4.28747597985,93.2396972767,0.0,10.0,0.0,0.0,0.0,10.0,0.0,0.0,0.0,10.0,-0.0246342400832,-0.345411993383,0.0506000607115,1.0,0.0,0.0,0.0,1.0,0.0,0.0,0.0,1.0,0.443078613281,-0.443078613281,9.89861572266,0.1,0.0,0.0,0.0,0.1,0.0,0.0,0.0,0.1
1446040709949679651,85,1446040709946649074,robocape,4.77645990268,-4.87929588409,92.3959177899,0.0,10.0,0.0,0.0,0.0,10.0,0.0,0.0,0.0,10.0,-0.0375505713701,-0.34501251922,0.0572579634367,1.0,0.0,0.0,0.0,1.0,0.0,0.0,0.0,1.0,0.32572265625,-0.750838623047,10.1297351074,0.1,0.0,0.0,0.0,0.1,0.0,0.0,0.0,0.1
1446040709984108276,86,1446040709980755090,robocape,4.93003199425,-5.37133253835,91.4537111252,0.0,10.0,0.0,0.0,0.0,10.0,0.0,0.0,0.0,10.0,0.0701742947236,-0.299871938743,-0.0633832339439,1.0,0.0,0.0,0.0,1.0,0.0,0.0,0.0,1.0,0.481398925781,-0.814306640625,10.4063598633,0.1,0.0,0.0,0.0,0.1,0.0,0.0,0.0,0.1
1446040710016643568,87,1446040710013654947,robocape,5.15683936682,-5.70717843747,90.5109109312,0.0,10.0,0.0,0.0,0.0,10.0,0.0,0.0,0.0,10.0,0.105993811385,-0.220776054368,-0.0886832642996,1.0,0.0,0.0,0.0,1.0,0.0,0.0,0.0,1.0,0.653840332031,-0.269439697266,10.2842138672,0.1,0.0,0.0,0.0,0.1,0.0,0.0,0.0,0.1
1446040710049812985,88,1446040710046802043,robocape,5.32257329772,-5.88032828968,89.6123756738,0.0,10.0,0.0,0.0,0.0,10.0,0.0,0.0,0.0,10.0,0.0759000910673,-0.135554899485,-0.0749679846857,1.0,0.0,0.0,0.0,1.0,0.0,0.0,0.0,1.0,0.0850231933594,-0.0431103515625,10.0854272461,0.1,0.0,0.0,0.0,0.1,0.0,0.0,0.0,0.1
1446040710083914610,89,1446040710080661058,robocape,5.35849511876,-6.08390856473,88.7473852552,0.0,10.0,0.0,0.0,0.0,10.0,0.0,0.0,0.0,10.0,0.00892158965177,-0.151001233807,-0.0584563859272,1.0,0.0,0.0,0.0,1.0,0.0,0.0,0.0,1.0,-0.0167651367188,-0.0431103515625,10.1153649902,0.1,0.0,0.0,0.0,0.1,0.0,0.0,0.0,0.1
1446040710116351901,90,1446040710113322019,robocape,5.23871288414,-5.92367161079,88.0079513946,0.0,10.0,0.0,0.0,0.0,10.0,0.0,0.0,0.0,10.0,-0.0631169178349,0.0452737385313,0.0113184346328,1.0,0.0,0.0,0.0,1.0,0.0,0.0,0.0,1.0,1.06817871094,0.0335302734375,10.479407959,0.1,0.0,0.0,0.0,0.1,0.0,0.0,0.0,0.1
1446040710150049526,91,1446040710146961927,robocape,4.97022894065,-5.71860174135,87.3175105921,0.0,10.0,0.0,0.0,0.0,10.0,0.0,0.0,0.0,10.0,-0.13835121863,0.0723048235957,0.0355532005526,1.0,0.0,0.0,0.0,1.0,0.0,0.0,0.0,1.0,0.197589111328,-0.603544921875,10.039921875,0.1,0.0,0.0,0.0,0.1,0.0,0.0,0.0,0.1
1446040710183992735,92,1446040710180392026,robocape,4.75089255157,-5.50897242934,86.6303172342,0.0,10.0,0.0,0.0,0.0,10.0,0.0,0.0,0.0,10.0,-0.113317504383,0.0760332491218,0.0279631914458,1.0,0.0,0.0,0.0,1.0,0.0,0.0,0.0,1.0,0.415535888672,-0.659827880859,9.98723144531,0.1,0.0,0.0,0.0,0.1,0.0,0.0,0.0,0.1
1446040710216705360,93,1446040710213335037,robocape,4.6089859442,-5.245435214,85.9387379892,0.0,10.0,0.0,0.0,0.0,10.0,0.0,0.0,0.0,10.0,-0.0737695621952,0.105194863058,0.00985369603329,1.0,0.0,0.0,0.0,1.0,0.0,0.0,0.0,1.0,0.307760009766,-0.524509277344,10.0087866211,0.1,0.0,0.0,0.0,0.1,0.0,0.0,0.0,0.1
1446040710249904776,94,1446040710246824979,robocape,4.41543739268,-4.95982625817,85.2582602689,0.0,10.0,0.0,0.0,0.0,10.0,0.0,0.0,0.0,10.0,-0.100800647259,0.118643826563,0.00479368996214,1.0,0.0,0.0,0.0,1.0,0.0,0.0,0.0,1.0,0.299377441406,-0.426313476563,9.90101074219,0.1,0.0,0.0,0.0,0.1,0.0,0.0,0.0,0.1
1446040710283856526,95,1446040710280211925,robocape,4.17177003373,-4.69553734222,84.6172930519,0.0,10.0,0.0,0.0,0.0,10.0,0.0,0.0,0.0,10.0,-0.12476909707,0.110521185238,0.0315584589174,1.0,0.0,0.0,0.0,1.0,0.0,0.0,0.0,1.0,0.441881103516,-0.628692626953,10.2602636719,0.1,0.0,0.0,0.0,0.1,0.0,0.0,0.0,0.1
1446040710316537818,96,1446040710313456058,robocape,3.97160270652,-4.50156636609,83.9670106428,0.0,10.0,0.0,0.0,0.0,10.0,0.0,0.0,0.0,10.0,-0.103330650295,0.0745685105222,0.0186421276306,1.0,0.0,0.0,0.0,1.0,0.0,0.0,0.0,1.0,-0.144898681641,-0.869392089844,10.0710571289,0.1,0.0,0.0,0.0,0.1,0.0,0.0,0.0,0.1
1446040710349820901,97,1446040710346764087,robocape,3.8186186902,-4.31169472935,83.3399455026,0.0,10.0,0.0,0.0,0.0,10.0,0.0,0.0,0.0,10.0,-0.0774979877213,0.0741690363587,0.0316916169719,1.0,0.0,0.0,0.0,1.0,0.0,0.0,0.0,1.0,0.086220703125,-0.971180419922,10.0866247559,0.1,0.0,0.0,0.0,0.1,0.0,0.0,0.0,0.1
1446040710384102901,98,1446040710380479097,robocape,3.74321602589,-4.12839505845,82.7144089186,0.0,10.0,0.0,0.0,0.0,10.0,0.0,0.0,0.0,10.0,-0.0370179391521,0.0715058752686,0.0254331884103,1.0,0.0,0.0,0.0,1.0,0.0,0.0,0.0,1.0,-0.296982421875,-0.963995361328,10.193203125,0.1,0.0,0.0,0.0,0.1,0.0,0.0,0.0,0.1
1446040710416577818,99,1446040710413589000,robocape,3.73312659824,-3.93798322622,82.0876513823,0.0,10.0,0.0,0.0,0.0,10.0,0.0,0.0,0.0,10.0,-0.00292947719909,0.0757669330128,0.015313176268,1.0,0.0,0.0,0.0,1.0,0.0,0.0,0.0,1.0,-0.483793945313,-0.659827880859,10.0530944824,0.1,0.0,0.0,0.0,0.1,0.0,0.0,0.0,0.1
1446040710449888068,100,1446040710446768999,robocape,3.72313922472,-3.68921734431,81.460986372,0.0,10.0,0.0,0.0,0.0,10.0,0.0,0.0,0.0,10.0,-0.00292947719909,0.107059075821,0.00146473859954,1.0,0.0,0.0,0.0,1.0,0.0,0.0,0.0,1.0,-0.204774169922,-0.735270996094,9.94651611328,0.1,0.0,0.0,0.0,0.1,0.0,0.0,0.0,0.1
1446040710483755610,101,1446040710480220079,robocape,3.73859361929,-3.41758211322,80.8364049995,0.0,10.0,0.0,0.0,0.0,10.0,0.0,0.0,0.0,10.0,0.0107858024148,0.119842249054,-0.00732369299772,1.0,0.0,0.0,0.0,1.0,0.0,0.0,0.0,1.0,-0.00239501953125,-0.834664306641,10.2674487305,0.1,0.0,0.0,0.0,0.1,0.0,0.0,0.0,0.1
1446040710516774568,102,1446040710513756990,robocape,3.76859308186,-3.24468271678,80.2182177171,0.0,10.0,0.0,0.0,0.0,10.0,0.0,0.0,0.0,10.0,0.0190416017941,0.0688427141785,-0.00492684801665,1.0,0.0,0.0,0.0,1.0,0.0,0.0,0.0,1.0,0.360450439453,-0.787961425781,10.0794396973,0.1,0.0,0.0,0.0,0.1,0.0,0.0,0.0,0.1
1446040710549883693,103,1446040710546745061,robocape,3.80419839355,-3.10921369691,79.6082614478,0.0,10.0,0.0,0.0,0.0,10.0,0.0,0.0,0.0,10.0,0.0225037112112,0.0498011123845,-0.00466053190764,1.0,0.0,0.0,0.0,1.0,0.0,0.0,0.0,1.0,0.293389892578,-0.773591308594,10.1488952637,0.1,0.0,0.0,0.0,0.1,0.0,0.0,0.0,0.1
1446040710584131610,104,1446040710580473899,robocape,3.87772981509,-3.02315086007,79.0026756802,0.0,10.0,0.0,0.0,0.0,10.0,0.0,0.0,0.0,10.0,0.0427437354958,0.0241016078652,-0.00612527050718,1.0,0.0,0.0,0.0,1.0,0.0,0.0,0.0,1.0,-0.201181640625,-0.895737304688,10.096204834,0.1,0.0,0.0,0.0,0.1,0.0,0.0,0.0,0.1
1446040710616517527,105,1446040710613501071,robocape,4.01012472092,-2.9215262524,78.4050151908,0.0,10.0,0.0,0.0,0.0,10.0,0.0,0.0,0.0,10.0,0.0743021944132,0.0323574072445,-0.00759000910673,1.0,0.0,0.0,0.0,1.0,0.0,0.0,0.0,1.0,-0.431103515625,-0.828676757813,9.99441650391,0.1,0.0,0.0,0.0,0.1,0.0,0.0,0.0,0.1
1446040710649795068,106,1446040710646801948,robocape,4.1708290969,-2.77251397511,77.8106576222,0.0,10.0,0.0,0.0,0.0,10.0,0.0,0.0,0.0,10.0,0.0897485287357,0.0571248053822,-0.015579492377,1.0,0.0,0.0,0.0,1.0,0.0,0.0,0.0,1.0,0.0275427246094,-0.706530761719,9.83874023438,0.1,0.0,0.0,0.0,0.1,0.0,0.0,0.0,0.1
1446040710683982443,107,1446040710680519104,robocape,4.27625230446,-2.63695647789,77.2455240891,0.0,10.0,0.0,0.0,0.0,10.0,0.0,0.0,0.0,10.0,0.0624511275624,0.051265850984,0.000798948327024,1.0,0.0,0.0,0.0,1.0,0.0,0.0,0.0,1.0,0.0143701171875,-0.382005615234,10.100994873,0.1,0.0,0.0,0.0,0.1,0.0,0.0,0.0,0.1
1446040710716812735,108,1446040710713481903,robocape,4.31723309634,-2.52004917749,76.6939958092,0.0,10.0,0.0,0.0,0.0,10.0,0.0,0.0,0.0,10.0,0.0292947719909,0.0422111032778,0.00412789968962,1.0,0.0,0.0,0.0,1.0,0.0,0.0,0.0,1.0,0.0562829589844,-0.415535888672,10.0027990723,0.1,0.0,0.0,0.0,0.1,0.0,0.0,0.0,0.1
1446040710749857235,109,1446040710746597051,robocape,4.35948515462,-2.39285495565,76.1474025455,0.0,10.0,0.0,0.0,0.0,10.0,0.0,0.0,0.0,10.0,0.0302268783724,0.0479368996214,0.0,1.0,0.0,0.0,0.0,1.0,0.0,0.0,0.0,1.0,0.0598754882813,-0.716110839844,10.1081799316,0.1,0.0,0.0,0.0,0.1,0.0,0.0,0.0,0.1
1446040710784139193,110,1446040710780750989,robocape,4.4177203281,-2.30017652399,75.6108865862,0.0,10.0,0.0,0.0,0.0,10.0,0.0,0.0,0.0,10.0,0.0391484680242,0.0303600364269,0.0034621094171,1.0,0.0,0.0,0.0,1.0,0.0,0.0,0.0,1.0,0.0263452148438,-0.561632080078,10.100994873,0.1,0.0,0.0,0.0,0.1,0.0,0.0,0.0,0.1
1446040710822230235,111,1446040710819096088,robocape,4.44640672058,-2.22260838056,75.0837939498,0.0,10.0,0.0,0.0,0.0,10.0,0.0,0.0,0.0,10.0,0.0239684498107,0.0229031853747,0.00439421579863,1.0,0.0,0.0,0.0,1.0,0.0,0.0,0.0,1.0,0.0275427246094,-0.538879394531,10.0123791504,0.1,0.0,0.0,0.0,0.1,0.0,0.0,0.0,0.1
1446040710850016735,112,1446040710846621990,robocape,4.48590027461,-2.14450139487,74.5653758126,0.0,10.0,0.0,0.0,0.0,10.0,0.0,0.0,0.0,10.0,0.0299605622634,0.0235689756472,0.00479368996214,1.0,0.0,0.0,0.0,1.0,0.0,0.0,0.0,1.0,0.0407153320313,-0.627495117188,10.0542919922,0.1,0.0,0.0,0.0,0.1,0.0,0.0,0.0,0.1
1446040710883586693,113,1446040710880518913,robocape,4.52948353177,-2.06901073383,74.0569855577,0.0,10.0,0.0,0.0,0.0,10.0,0.0,0.0,0.0,10.0,0.032490565299,0.0226368692657,0.00652474467069,1.0,0.0,0.0,0.0,1.0,0.0,0.0,0.0,1.0,0.0634680175781,-0.552052001953,10.0339343262,0.1,0.0,0.0,0.0,0.1,0.0,0.0,0.0,0.1
1446040710916632693,114,1446040710913625001,robocape,4.54966389239,-1.99674111452,73.5587513879,0.0,10.0,0.0,0.0,0.0,10.0,0.0,0.0,0.0,10.0,0.0205063403936,0.0214384467751,0.00798948327024,1.0,0.0,0.0,0.0,1.0,0.0,0.0,0.0,1.0,0.0395178222656,-0.438288574219,10.0447119141,0.1,0.0,0.0,0.0,0.1,0.0,0.0,0.0,0.1
1446040710949676777,115,1446040710946660041,robocape,4.53537016357,-1.92793546542,73.069104325,0.0,10.0,0.0,0.0,0.0,10.0,0.0,0.0,0.0,10.0,0.00253000303558,0.0201068662301,0.00812264132474,1.0,0.0,0.0,0.0,1.0,0.0,0.0,0.0,1.0,0.0455053710938,-0.415535888672,10.0518969727,0.1,0.0,0.0,0.0,0.1,0.0,0.0,0.0,0.1
1446040710983270402,116,1446040710980232954,robocape,4.49321358313,-1.86054149202,72.5866832114,0.0,10.0,0.0,0.0,0.0,10.0,0.0,0.0,0.0,10.0,-0.0121173829599,0.0198405501211,0.00732369299772,1.0,0.0,0.0,0.0,1.0,0.0,0.0,0.0,1.0,0.0383203125,-0.505349121094,10.0483044434,0.1,0.0,0.0,0.0,0.1,0.0,0.0,0.0,0.1
1446040711016774610,117,1446040711013772964,robocape,4.45312310892,-1.79377668244,72.1112845875,0.0,10.0,0.0,0.0,0.0,10.0,0.0,0.0,0.0,10.0,-0.0110521185238,0.0199737081756,0.00705737688871,1.0,0.0,0.0,0.0,1.0,0.0,0.0,0.0,1.0,0.0335302734375,-0.643062744141,10.039921875,0.1,0.0,0.0,0.0,0.1,0.0,0.0,0.0,0.1
1446040711049633193,118,1446040711046629905,robocape,4.44062333235,-1.72821427918,71.6419328001,0.0,10.0,0.0,0.0,0.0,10.0,0.0,0.0,0.0,10.0,0.0034621094171,0.0197073920666,0.0066579027252,1.0,0.0,0.0,0.0,1.0,0.0,0.0,0.0,1.0,0.0443078613281,-0.681383056641,10.024354248,0.1,0.0,0.0,0.0,0.1,0.0,0.0,0.0,0.1
1446040711083278318,119,1446040711080238103,robocape,4.4562804479,-1.66072772267,71.179034055,0.0,10.0,0.0,0.0,0.0,10.0,0.0,0.0,0.0,10.0,0.0183758115215,0.0210389726116,0.00652474467069,1.0,0.0,0.0,0.0,1.0,0.0,0.0,0.0,1.0,0.0311352539063,-0.616717529297,10.0387243652,0.1,0.0,0.0,0.0,0.1,0.0,0.0,0.0,0.1
1446040711116576318,120,1446040711113557100,robocape,4.47915647529,-1.59319035502,70.7239653786,0.0,10.0,0.0,0.0,0.0,10.0,0.0,0.0,0.0,10.0,0.0223705531567,0.0214384467751,0.00732369299772,1.0,0.0,0.0,0.0,1.0,0.0,0.0,0.0,1.0,0.0383203125,-0.536484375,10.0506994629,0.1,0.0,0.0,0.0,0.1,0.0,0.0,0.0,0.1
1446040711149668652,121,1446040711146666049,robocape,4.48456593029,-1.5281009148,70.2756008599,0.0,10.0,0.0,0.0,0.0,10.0,0.0,0.0,0.0,10.0,0.0133158054504,0.0205063403936,0.00705737688871,1.0,0.0,0.0,0.0,1.0,0.0,0.0,0.0,1.0,0.0383203125,-0.463436279297,10.0363293457,0.1,0.0,0.0,0.0,0.1,0.0,0.0,0.0,0.1
1446040711188062027,122,1446040711184113979,robocape,4.46527004821,-1.46558169871,69.8344468013,0.0,10.0,0.0,0.0,0.0,10.0,0.0,0.0,0.0,10.0,0.000399474163512,0.0195742340121,0.00719053494321,1.0,0.0,0.0,0.0,1.0,0.0,0.0,0.0,1.0,0.0395178222656,-0.477806396484,10.0447119141,0.1,0.0,0.0,0.0,0.1,0.0,0.0,0.0,0.1
1446040711216643943,123,1446040711213551044,robocape,4.42901643472,-1.40436466537,69.3999172817,0.0,10.0,0.0,0.0,0.0,10.0,0.0,0.0,0.0,10.0,-0.00852211548825,0.0193079179031,0.00705737688871,1.0,0.0,0.0,0.0,1.0,0.0,0.0,0.0,1.0,0.0251477050781,-0.560434570312,10.0327368164,0.1,0.0,0.0,0.0,0.1,0.0,0.0,0.0,0.1
1446040711249867860,124,1446040711246807098,robocape,4.40444721519,-1.34258091088,68.9713638175,0.0,10.0,0.0,0.0,0.0,10.0,0.0,0.0,0.0,10.0,-0.00239684498107,0.0199737081756,0.00692421883421,1.0,0.0,0.0,0.0,1.0,0.0,0.0,0.0,1.0,0.0455053710938,-0.646655273438,10.0411193848,0.1,0.0,0.0,0.0,0.1,0.0,0.0,0.0,0.1
1446040711283387443,125,1446040711280277013,robocape,4.39907689141,-1.28141965847,68.548584939,0.0,10.0,0.0,0.0,0.0,10.0,0.0,0.0,0.0,10.0,0.00772316716123,0.0199737081756,0.00692421883421,1.0,0.0,0.0,0.0,1.0,0.0,0.0,0.0,1.0,0.0443078613281,-0.644260253906,10.0518969727,0.1,0.0,0.0,0.0,0.1,0.0,0.0,0.0,0.1
1446040711316977152,126,1446040711313947916,robocape,4.41131613129,-1.22051075044,68.130997308,0.0,10.0,0.0,0.0,0.0,10.0,0.0,0.0,0.0,10.0,0.0170442309765,0.0201068662301,0.00652474467069,1.0,0.0,0.0,0.0,1.0,0.0,0.0,0.0,1.0,0.0443078613281,-0.580792236328,10.0423168945,0.1,0.0,0.0,0.0,0.1,0.0,0.0,0.0,0.1
1446040711349912444,127,1446040711346870899,robocape,4.42176275929,-1.16133435679,67.7210459988,0.0,10.0,0.0,0.0,0.0,10.0,0.0,0.0,0.0,10.0,0.0162452826495,0.0195742340121,0.00785632521573,1.0,0.0,0.0,0.0,1.0,0.0,0.0,0.0,1.0,0.0383203125,-0.526904296875,10.0351318359,0.1,0.0,0.0,0.0,0.1,0.0,0.0,0.0,0.1
1446040711383337985,128,1446040711380192995,robocape,4.41589105669,-1.10173026466,67.3167699803,0.0,10.0,0.0,0.0,0.0,10.0,0.0,0.0,0.0,10.0,0.00772316716123,0.0201068662301,0.00745685105222,1.0,0.0,0.0,0.0,1.0,0.0,0.0,0.0,1.0,0.0275427246094,-0.488583984375,10.0387243652,0.1,0.0,0.0,0.0,0.1,0.0,0.0,0.0,0.1
1446040711416687985,129,1446040711413666009,robocape,4.38768849847,-1.04363049874,66.9190816867,0.0,10.0,0.0,0.0,0.0,10.0,0.0,0.0,0.0,10.0,-0.00399474163512,0.0197073920666,0.00785632521573,1.0,0.0,0.0,0.0,1.0,0.0,0.0,0.0,1.0,0.0395178222656,-0.510139160156,10.0590820312,0.1,0.0,0.0,0.0,0.1,0.0,0.0,0.0,0.1
1446040711449768485,130,1446040711446785926,robocape,4.35784353847,-0.986826032796,66.5254969735,0.0,10.0,0.0,0.0,0.0,10.0,0.0,0.0,0.0,10.0,-0.00492684801665,0.0193079179031,0.0067910607797,1.0,0.0,0.0,0.0,1.0,0.0,0.0,0.0,1.0,0.0359252929688,-0.586779785156,10.0279467773,0.1,0.0,0.0,0.0,0.1,0.0,0.0,0.0,0.1
1446040711483467735,131,1446040711480412960,robocape,4.33965033729,-0.929932211624,66.1380449205,0.0,10.0,0.0,0.0,0.0,10.0,0.0,0.0,0.0,10.0,0.00119842249054,0.0197073920666,0.00745685105222,1.0,0.0,0.0,0.0,1.0,0.0,0.0,0.0,1.0,0.0215551757813,-0.626297607422,10.0435144043,0.1,0.0,0.0,0.0,0.1,0.0,0.0,0.0,0.1
1446040711516837485,132,1446040711513820886,robocape,4.33792473175,-0.873247755005,65.7548949542,0.0,10.0,0.0,0.0,0.0,10.0,0.0,0.0,0.0,10.0,0.00985369603329,0.0198405501211,0.00692421883421,1.0,0.0,0.0,0.0,1.0,0.0,0.0,0.0,1.0,0.0227526855469,-0.620310058594,10.039921875,0.1,0.0,0.0,0.0,0.1,0.0,0.0,0.0,0.1
1446040711550033777,133,1446040711547040939,robocape,4.34544505845,-0.8150843967,65.3774552442,0.0,10.0,0.0,0.0,0.0,10.0,0.0,0.0,0.0,10.0,0.0147805440499,0.0209058145571,0.00732369299772,1.0,0.0,0.0,0.0,1.0,0.0,0.0,0.0,1.0,0.0371228027344,-0.560434570312,10.0327368164,0.1,0.0,0.0,0.0,0.1,0.0,0.0,0.0,0.1
1446040711583303402,134,1446040711580252885,robocape,4.34555152205,-0.75865517348,65.0044553981,0.0,10.0,0.0,0.0,0.0,10.0,0.0,0.0,0.0,10.0,0.0109189604693,0.0202400242846,0.0067910607797,1.0,0.0,0.0,0.0,1.0,0.0,0.0,0.0,1.0,0.01916015625,-0.510139160156,10.0626745605,0.1,0.0,0.0,0.0,0.1,0.0,0.0,0.0,0.1
1446040711616890610,135,1446040711613801002,robocape,4.32561572256,-0.70308660109,64.636990336,0.0,10.0,0.0,0.0,0.0,10.0,0.0,0.0,0.0,10.0,0.000399474163512,0.0201068662301,0.00692421883421,1.0,0.0,0.0,0.0,1.0,0.0,0.0,0.0,1.0,0.0275427246094,-0.500559082031,10.0518969727,0.1,0.0,0.0,0.0,0.1,0.0,0.0,0.0,0.1
1446040711649813777,136,1446040711646704912,robocape,4.29583985521,-0.64893535336,64.2752615695,0.0,10.0,0.0,0.0,0.0,10.0,0.0,0.0,0.0,10.0,-0.00479368996214,0.0197073920666,0.00745685105222,1.0,0.0,0.0,0.0,1.0,0.0,0.0,0.0,1.0,0.0371228027344,-0.544866943359,10.0530944824,0.1,0.0,0.0,0.0,0.1,0.0,0.0,0.0,0.1
1446040711683580402,137,1446040711680454969,robocape,4.27300073794,-0.595547693604,63.9178045319,0.0,10.0,0.0,0.0,0.0,10.0,0.0,0.0,0.0,10.0,-0.00119842249054,0.0195742340121,0.00719053494321,1.0,0.0,0.0,0.0,1.0,0.0,0.0,0.0,1.0,0.0179626464844,-0.637075195313,10.0387243652,0.1,0.0,0.0,0.0,0.1,0.0,0.0,0.0,0.1
1446040711716966152,138,1446040711713701963,robocape,4.27121931232,-0.541305829243,63.564200672,0.0,10.0,0.0,0.0,0.0,10.0,0.0,0.0,0.0,10.0,0.00985369603329,0.0202400242846,0.0067910607797,1.0,0.0,0.0,0.0,1.0,0.0,0.0,0.0,1.0,0.0251477050781,-0.665815429688,10.0423168945,0.1,0.0,0.0,0.0,0.1,0.0,0.0,0.0,0.1
1446040711749882735,139,1446040711746649980,robocape,4.29113842097,-0.48768952865,63.2146253334,0.0,10.0,0.0,0.0,0.0,10.0,0.0,0.0,0.0,10.0,0.0213052887206,0.0201068662301,0.0066579027252,1.0,0.0,0.0,0.0,1.0,0.0,0.0,0.0,1.0,0.0299377441406,-0.604742431641,10.0530944824,0.1,0.0,0.0,0.0,0.1,0.0,0.0,0.0,0.1
1446040711783489152,140,1446040711780384063,robocape,4.31266189479,-0.432212133538,62.8698806732,0.0,10.0,0.0,0.0,0.0,10.0,0.0,0.0,0.0,10.0,0.0222373951022,0.0213052887206,0.0067910607797,1.0,0.0,0.0,0.0,1.0,0.0,0.0,0.0,1.0,0.0239501953125,-0.484991455078,10.0315393066,0.1,0.0,0.0,0.0,0.1,0.0,0.0,0.0,0.1
1446040711821420944,141,1446040711818291902,robocape,4.29864391169,-0.380833616925,62.5303103157,0.0,10.0,0.0,0.0,0.0,10.0,0.0,0.0,0.0,10.0,0.00359526747161,0.0194410759576,0.00705737688871,1.0,0.0,0.0,0.0,1.0,0.0,0.0,0.0,1.0,0.0335302734375,-0.428708496094,10.0626745605,0.1,0.0,0.0,0.0,0.1,0.0,0.0,0.0,0.1
1446040711850068902,142,1446040711846637010,robocape,4.25636334909,-0.331025191181,62.1952977729,0.0,10.0,0.0,0.0,0.0,10.0,0.0,0.0,0.0,10.0,-0.0113184346328,0.0189084437396,0.00692421883421,1.0,0.0,0.0,0.0,1.0,0.0,0.0,0.0,1.0,0.0263452148438,-0.480201416016,10.0566870117,0.1,0.0,0.0,0.0,0.1,0.0,0.0,0.0,0.1
1446040711883567860,143,1446040711880392074,robocape,4.21096848838,-0.282314971307,61.8650887103,0.0,10.0,0.0,0.0,0.0,10.0,0.0,0.0,0.0,10.0,-0.0130494893414,0.0186421276306,0.00732369299772,1.0,0.0,0.0,0.0,1.0,0.0,0.0,0.0,1.0,0.0275427246094,-0.495769042969,10.0830322266,0.1,0.0,0.0,0.0,0.1,0.0,0.0,0.0,0.1
1446040711916951027,144,1446040711913908958,robocape,4.19208023174,-0.231703549558,61.5379896549,0.0,10.0,0.0,0.0,0.0,10.0,0.0,0.0,0.0,10.0,0.000798948327024,0.0198405501211,0.0067910607797,1.0,0.0,0.0,0.0,1.0,0.0,0.0,0.0,1.0,0.0227526855469,-0.714913330078,10.060279541,0.1,0.0,0.0,0.0,0.1,0.0,0.0,0.0,0.1
1446040711949855694,145,1446040711946762084,robocape,4.20487346535,-0.181393136281,61.2139002152,0.0,10.0,0.0,0.0,0.0,10.0,0.0,0.0,0.0,10.0,0.01744370514,0.0198405501211,0.00639158661619,1.0,0.0,0.0,0.0,1.0,0.0,0.0,0.0,1.0,0.0299377441406,-0.638272705078,10.0542919922,0.1,0.0,0.0,0.0,0.1,0.0,0.0,0.0,0.1
1446040711983336860,146,1446040711980309963,robocape,4.23144400222,-0.129747954631,60.8950334328,0.0,10.0,0.0,0.0,0.0,10.0,0.0,0.0,0.0,10.0,0.0247673981377,0.0207726565026,0.00732369299772,1.0,0.0,0.0,0.0,1.0,0.0,0.0,0.0,1.0,0.0419128417969,-0.547261962891,10.0303417969,0.1,0.0,0.0,0.0,0.1,0.0,0.0,0.0,0.1
1446040712016911027,147,1446040712013709068,robocape,4.24398613903,-0.0809274740785,60.5792188418,0.0,10.0,0.0,0.0,0.0,10.0,0.0,0.0,0.0,10.0,0.01744370514,0.0194410759576,0.0066579027252,1.0,0.0,0.0,0.0,1.0,0.0,0.0,0.0,1.0,0.0347277832031,-0.45984375,10.019564209,0.1,0.0,0.0,0.0,0.1,0.0,0.0,0.0,0.1
1446040712049842777,148,1446040712046776056,robocape,4.21903564543,-0.0336098981219,60.2679830009,0.0,10.0,0.0,0.0,0.0,10.0,0.0,0.0,0.0,10.0,-0.00226368692657,0.0189084437396,0.0067910607797,1.0,0.0,0.0,0.0,1.0,0.0,0.0,0.0,1.0,0.0299377441406,-0.467028808594,10.0662670898,0.1,0.0,0.0,0.0,0.1,0.0,0.0,0.0,0.1
1446040712083330069,149,1446040712080276012,robocape,4.17901695719,0.0131753386676,59.9613219812,0.0,10.0,0.0,0.0,0.0,10.0,0.0,0.0,0.0,10.0,-0.0102531701968,0.0189084437396,0.00719053494321,1.0,0.0,0.0,0.0,1.0,0.0,0.0,0.0,1.0,0.0251477050781,-0.55564453125,10.0578845215,0.1,0.0,0.0,0.0,0.1,0.0,0.0,0.0,0.1
1446040712116539236,150,1446040712113507986,robocape,4.14906482538,0.059864155043,59.6572632125,0.0,10.0,0.0,0.0,0.0,10.0,0.0,0.0,0.0,10.0,-0.00506000607115,0.0190416017941,0.00652474467069,1.0,0.0,0.0,0.0,1.0,0.0,0.0,0.0,1.0,0.0371228027344,-0.645457763672,10.0483044434,0.1,0.0,0.0,0.0,0.1,0.0,0.0,0.0,0.1
1446040712150089569,151,1446040712146939992,robocape,4.14274138418,0.10813685806,59.3575602699,0.0,10.0,0.0,0.0,0.0,10.0,0.0,0.0,0.0,10.0,0.00732369299772,0.0201068662301,0.00719053494321,1.0,0.0,0.0,0.0,1.0,0.0,0.0,0.0,1.0,0.0359252929688,-0.661025390625,10.0411193848,0.1,0.0,0.0,0.0,0.1,0.0,0.0,0.0,0.1
1446040712185105527,152,1446040712181968927,robocape,4.1554142833,0.156143750674,59.060569105,0.0,10.0,0.0,0.0,0.0,10.0,0.0,0.0,0.0,10.0,0.0173105470855,0.0201068662301,0.0067910607797,1.0,0.0,0.0,0.0,1.0,0.0,0.0,0.0,1.0,0.0311352539063,-0.592767333984,10.0279467773,0.1,0.0,0.0,0.0,0.1,0.0,0.0,0.0,0.1
1446040712216769152,153,1446040712213676929,robocape,4.16876344908,0.203749507086,58.7680357698,0.0,10.0,0.0,0.0,0.0,10.0,0.0,0.0,0.0,10.0,0.017710021249,0.0201068662301,0.00745685105222,1.0,0.0,0.0,0.0,1.0,0.0,0.0,0.0,1.0,0.0431103515625,-0.504151611328,10.0542919922,0.1,0.0,0.0,0.0,0.1,0.0,0.0,0.0,0.1
1446040712249913694,154,1446040712246674060,robocape,4.15803051443,0.249453246172,58.4791978481,0.0,10.0,0.0,0.0,0.0,10.0,0.0,0.0,0.0,10.0,0.00506000607115,0.0193079179031,0.00745685105222,1.0,0.0,0.0,0.0,1.0,0.0,0.0,0.0,1.0,0.0155676269531,-0.483793945313,10.0387243652,0.1,0.0,0.0,0.0,0.1,0.0,0.0,0.0,0.1
1446040712283676111,155,1446040712280467033,robocape,4.12813636977,0.295264282182,58.1938448896,0.0,10.0,0.0,0.0,0.0,10.0,0.0,0.0,0.0,10.0,-0.00506000607115,0.0195742340121,0.00732369299772,1.0,0.0,0.0,0.0,1.0,0.0,0.0,0.0,1.0,0.0371228027344,-0.525706787109,10.055489502,0.1,0.0,0.0,0.0,0.1,0.0,0.0,0.0,0.1
1446040712316909944,156,1446040712313827037,robocape,4.09510055213,0.340417010805,57.9118186732,0.0,10.0,0.0,0.0,0.0,10.0,0.0,0.0,0.0,10.0,-0.0067910607797,0.0194410759576,0.00732369299772,1.0,0.0,0.0,0.0,1.0,0.0,0.0,0.0,1.0,0.0359252929688,-0.597557373047,10.060279541,0.1,0.0,0.0,0.0,0.1,0.0,0.0,0.0,0.1
1446040712349903402,157,1446040712346621990,robocape,4.07614625085,0.386070755954,57.631717633,0.0,10.0,0.0,0.0,0.0,10.0,0.0,0.0,0.0,10.0,0.000532632218016,0.0198405501211,0.00652474467069,1.0,0.0,0.0,0.0,1.0,0.0,0.0,0.0,1.0,0.0347277832031,-0.645457763672,10.0459094238,0.1,0.0,0.0,0.0,0.1,0.0,0.0,0.0,0.1
1446040712383697986,158,1446040712380390882,robocape,4.07776735695,0.432180252361,57.35457408,0.0,10.0,0.0,0.0,0.0,10.0,0.0,0.0,0.0,10.0,0.0113184346328,0.0202400242846,0.00652474467069,1.0,0.0,0.0,0.0,1.0,0.0,0.0,0.0,1.0,0.0311352539063,-0.621507568359,10.0650695801,0.1,0.0,0.0,0.0,0.1,0.0,0.0,0.0,0.1
1446040712416918277,159,1446040712413840055,robocape,4.08848176589,0.47819091056,57.0812453693,0.0,10.0,0.0,0.0,0.0,10.0,0.0,0.0,0.0,10.0,0.016112124595,0.0203731823391,0.00705737688871,1.0,0.0,0.0,0.0,1.0,0.0,0.0,0.0,1.0,0.0299377441406,-0.559237060547,10.0518969727,0.1,0.0,0.0,0.0,0.1,0.0,0.0,0.0,0.1
1446040712449836944,160,1446040712446751117,robocape,4.08778405052,0.522686480928,56.8102992156,0.0,10.0,0.0,0.0,0.0,10.0,0.0,0.0,0.0,10.0,0.0101200121423,0.0197073920666,0.00652474467069,1.0,0.0,0.0,0.0,1.0,0.0,0.0,0.0,1.0,0.0335302734375,-0.507744140625,10.0255517578,0.1,0.0,0.0,0.0,0.1,0.0,0.0,0.0,0.1
1446040712483397152,161,1446040712479994058,robocape,4.06989652564,0.567020824203,56.5434166582,0.0,10.0,0.0,0.0,0.0,10.0,0.0,0.0,0.0,10.0,0.00106526443603,0.0198405501211,0.00705737688871,1.0,0.0,0.0,0.0,1.0,0.0,0.0,0.0,1.0,0.0299377441406,-0.516126708984,10.0471069336,0.1,0.0,0.0,0.0,0.1,0.0,0.0,0.0,0.1
1446040712516935736,162,1446040712513603925,robocape,4.04199168849,0.608974569953,56.2795108744,0.0,10.0,0.0,0.0,0.0,10.0,0.0,0.0,0.0,10.0,-0.00426105774413,0.0187752856851,0.00705737688871,1.0,0.0,0.0,0.0,1.0,0.0,0.0,0.0,1.0,0.0371228027344,-0.554447021484,10.0674645996,0.1,0.0,0.0,0.0,0.1,0.0,0.0,0.0,0.1
1446040712549981986,163,1446040712546919107,robocape,4.01979374351,0.652136094777,56.0183375974,0.0,10.0,0.0,0.0,0.0,10.0,0.0,0.0,0.0,10.0,-0.00133158054504,0.0195742340121,0.00692421883421,1.0,0.0,0.0,0.0,1.0,0.0,0.0,0.0,1.0,0.0359252929688,-0.605939941406,10.0459094238,0.1,0.0,0.0,0.0,0.1,0.0,0.0,0.0,0.1
1446040712583607902,164,1446040712580136060,robocape,4.01162234396,0.695780120895,55.7596962405,0.0,10.0,0.0,0.0,0.0,10.0,0.0,0.0,0.0,10.0,0.00599211245268,0.0199737081756,0.0067910607797,1.0,0.0,0.0,0.0,1.0,0.0,0.0,0.0,1.0,0.0431103515625,-0.626297607422,10.0590820312,0.1,0.0,0.0,0.0,0.1,0.0,0.0,0.0,0.1
1446040712616863569,165,1446040712613723993,robocape,4.01589496719,0.739648017608,55.5039459933,0.0,10.0,0.0,0.0,0.0,10.0,0.0,0.0,0.0,10.0,0.0125168571234,0.0202400242846,0.00692421883421,1.0,0.0,0.0,0.0,1.0,0.0,0.0,0.0,1.0,0.0359252929688,-0.595162353516,10.0219592285,0.1,0.0,0.0,0.0,0.1,0.0,0.0,0.0,0.1
1446040712649701819,166,1446040712646615982,robocape,4.01915517945,0.783311381896,55.2501921943,0.0,10.0,0.0,0.0,0.0,10.0,0.0,0.0,0.0,10.0,0.0119842249054,0.0202400242846,0.00639158661619,1.0,0.0,0.0,0.0,1.0,0.0,0.0,0.0,1.0,0.0251477050781,-0.548459472656,10.0255517578,0.1,0.0,0.0,0.0,0.1,0.0,0.0,0.0,0.1
1446040712684106361,167,1446040712680660963,robocape,4.01052905866,0.825855248367,55.0000699063,0.0,10.0,0.0,0.0,0.0,10.0,0.0,0.0,0.0,10.0,0.00572579634367,0.0198405501211,0.00692421883421,1.0,0.0,0.0,0.0,1.0,0.0,0.0,0.0,1.0,0.0335302734375,-0.513731689453,10.0734521484,0.1,0.0,0.0,0.0,0.1,0.0,0.0,0.0,0.1
1446040712717575444,168,1446040712714365005,robocape,3.98956640086,0.867213735699,54.7541248185,0.0,10.0,0.0,0.0,0.0,10.0,0.0,0.0,0.0,10.0,-0.000798948327024,0.0194410759576,0.00785632521573,1.0,0.0,0.0,0.0,1.0,0.0,0.0,0.0,1.0,0.0263452148438,-0.553249511719,10.0447119141,0.1,0.0,0.0,0.0,0.1,0.0,0.0,0.0,0.1
1446040712749906611,169,1446040712746684074,robocape,3.96618954295,0.908539136758,54.5106401965,0.0,10.0,0.0,0.0,0.0,10.0,0.0,0.0,0.0,10.0,-0.00213052887206,0.0195742340121,0.00772316716123,1.0,0.0,0.0,0.0,1.0,0.0,0.0,0.0,1.0,0.0239501953125,-0.599952392578,10.0542919922,0.1,0.0,0.0,0.0,0.1,0.0,0.0,0.0,0.1
1446040712783465028,170,1446040712780031919,robocape,3.95255135523,0.94938702924,54.2689956092,0.0,10.0,0.0,0.0,0.0,10.0,0.0,0.0,0.0,10.0,0.00292947719909,0.0194410759576,0.00732369299772,1.0,0.0,0.0,0.0,1.0,0.0,0.0,0.0,1.0,0.0335302734375,-0.617915039063,10.0351318359,0.1,0.0,0.0,0.0,0.1,0.0,0.0,0.0,0.1
1446040712822605694,171,1446040712819499015,robocape,3.95341434303,0.991022788513,54.0295758251,0.0,10.0,0.0,0.0,0.0,10.0,0.0,0.0,0.0,10.0,0.0105194863058,0.0199737081756,0.00719053494321,1.0,0.0,0.0,0.0,1.0,0.0,0.0,0.0,1.0,0.0299377441406,-0.595162353516,10.039921875,0.1,0.0,0.0,0.0,0.1,0.0,0.0,0.0,0.1
1446040712849988611,172,1446040712846653938,robocape,3.95733109149,1.03270624633,53.7922357999,0.0,10.0,0.0,0.0,0.0,10.0,0.0,0.0,0.0,10.0,0.0121173829599,0.0201068662301,0.00692421883421,1.0,0.0,0.0,0.0,1.0,0.0,0.0,0.0,1.0,0.0347277832031,-0.565224609375,10.055489502,0.1,0.0,0.0,0.0,0.1,0.0,0.0,0.0,0.1
1446040712883681153,173,1446040712880202054,robocape,3.95492802936,1.07370011916,53.5566006811,0.0,10.0,0.0,0.0,0.0,10.0,0.0,0.0,0.0,10.0,0.00878843159726,0.0198405501211,0.00639158661619,1.0,0.0,0.0,0.0,1.0,0.0,0.0,0.0,1.0,0.0275427246094,-0.530496826172,10.0351318359,0.1,0.0,0.0,0.0,0.1,0.0,0.0,0.0,0.1
1446040712916985653,174,1446040712913945913,robocape,3.94092190287,1.11395340757,53.3230967145,0.0,10.0,0.0,0.0,0.0,10.0,0.0,0.0,0.0,10.0,0.00266316109008,0.0195742340121,0.00612527050718,1.0,0.0,0.0,0.0,1.0,0.0,0.0,0.0,1.0,0.0263452148438,-0.522114257812,10.0506994629,0.1,0.0,0.0,0.0,0.1,0.0,0.0,0.0,0.1
1446040712949726403,175,1446040712946757078,robocape,3.92144314465,1.15407243989,53.0934722016,0.0,10.0,0.0,0.0,0.0,10.0,0.0,0.0,0.0,10.0,-0.000266316109008,0.0197073920666,0.00705737688871,1.0,0.0,0.0,0.0,1.0,0.0,0.0,0.0,1.0,0.0263452148438,-0.554447021484,10.0506994629,0.1,0.0,0.0,0.0,0.1,0.0,0.0,0.0,0.1
1446040712983445403,176,1446040712980155944,robocape,3.90611684996,1.1937665975,52.865109441,0.0,10.0,0.0,0.0,0.0,10.0,0.0,0.0,0.0,10.0,0.00186421276306,0.0195742340121,0.00639158661619,1.0,0.0,0.0,0.0,1.0,0.0,0.0,0.0,1.0,0.0347277832031,-0.602347412109,10.0471069336,0.1,0.0,0.0,0.0,0.1,0.0,0.0,0.0,0.1
1446040713016723153,177,1446040713013470888,robocape,3.89822366423,1.23393286456,52.6396232156,0.0,10.0,0.0,0.0,0.0,10.0,0.0,0.0,0.0,10.0,0.00572579634367,0.0199737081756,0.0067910607797,1.0,0.0,0.0,0.0,1.0,0.0,0.0,0.0,1.0,0.0335302734375,-0.586779785156,10.0614770508,0.1,0.0,0.0,0.0,0.1,0.0,0.0,0.0,0.1
1446040713049713819,178,1446040713046744108,robocape,3.8979801589,1.2748886301,52.4163782135,0.0,10.0,0.0,0.0,0.0,10.0,0.0,0.0,0.0,10.0,0.00972053797879,0.0205063403936,0.0067910607797,1.0,0.0,0.0,0.0,1.0,0.0,0.0,0.0,1.0,0.0443078613281,-0.576002197266,10.0411193848,0.1,0.0,0.0,0.0,0.1,0.0,0.0,0.0,0.1
1446040713083542528,179,1446040713080060005,robocape,3.89523920589,1.3140656525,52.1957146172,0.0,10.0,0.0,0.0,0.0,10.0,0.0,0.0,0.0,10.0,0.00838895743375,0.0197073920666,0.00705737688871,1.0,0.0,0.0,0.0,1.0,0.0,0.0,0.0,1.0,0.0431103515625,-0.543669433594,10.0339343262,0.1,0.0,0.0,0.0,0.1,0.0,0.0,0.0,0.1
1446040713117338903,180,1446040713114227056,robocape,3.88671776406,1.35328186188,51.977119077,0.0,10.0,0.0,0.0,0.0,10.0,0.0,0.0,0.0,10.0,0.00532632218016,0.0198405501211,0.00692421883421,1.0,0.0,0.0,0.0,1.0,0.0,0.0,0.0,1.0,0.0299377441406,-0.55564453125,10.0315393066,0.1,0.0,0.0,0.0,0.1,0.0,0.0,0.0,0.1
1446040713149761861,181,1446040713146756887,robocape,3.86991012258,1.39176669668,51.7605387466,0.0,10.0,0.0,0.0,0.0,10.0,0.0,0.0,0.0,10.0,0.000932106381528,0.0195742340121,0.0067910607797,1.0,0.0,0.0,0.0,1.0,0.0,0.0,0.0,1.0,0.0383203125,-0.573607177734,10.0435144043,0.1,0.0,0.0,0.0,0.1,0.0,0.0,0.0,0.1
1446040713183659736,182,1446040713180167913,robocape,3.85321318972,1.42919218464,51.5468575213,0.0,10.0,0.0,0.0,0.0,10.0,0.0,0.0,0.0,10.0,0.000932106381528,0.0191747598486,0.00732369299772,1.0,0.0,0.0,0.0,1.0,0.0,0.0,0.0,1.0,0.0203576660156,-0.571212158203,10.0854272461,0.1,0.0,0.0,0.0,0.1,0.0,0.0,0.0,0.1
1446040713216779111,183,1446040713213654994,robocape,3.8429367954,1.46871070745,51.3349111687,0.0,10.0,0.0,0.0,0.0,10.0,0.0,0.0,0.0,10.0,0.00426105774413,0.0203731823391,0.00705737688871,1.0,0.0,0.0,0.0,1.0,0.0,0.0,0.0,1.0,0.0251477050781,-0.596359863281,10.0590820312,0.1,0.0,0.0,0.0,0.1,0.0,0.0,0.0,0.1
1446040713249885236,184,1446040713246686935,robocape,3.84208486391,1.50733344152,51.1240590211,0.0,10.0,0.0,0.0,0.0,10.0,0.0,0.0,0.0,10.0,0.00918790576077,0.0199737081756,0.00652474467069,1.0,0.0,0.0,0.0,1.0,0.0,0.0,0.0,1.0,0.0299377441406,-0.589174804688,10.0542919922,0.1,0.0,0.0,0.0,0.1,0.0,0.0,0.0,0.1
1446040713283557569,185,1446040713280061960,robocape,3.8415170964,1.54602564921,50.9150470925,0.0,10.0,0.0,0.0,0.0,10.0,0.0,0.0,0.0,10.0,0.00932106381528,0.0201068662301,0.00639158661619,1.0,0.0,0.0,0.0,1.0,0.0,0.0,0.0,1.0,0.0383203125,-0.55564453125,10.0411193848,0.1,0.0,0.0,0.0,0.1,0.0,0.0,0.0,0.1
1446040713317028486,186,1446040713313785076,robocape,3.83566512181,1.58452667704,50.7078875458,0.0,10.0,0.0,0.0,0.0,10.0,0.0,0.0,0.0,10.0,0.00652474467069,0.0201068662301,0.00625842856169,1.0,0.0,0.0,0.0,1.0,0.0,0.0,0.0,1.0,0.028740234375,-0.538879394531,10.0518969727,0.1,0.0,0.0,0.0,0.1,0.0,0.0,0.0,0.1
1446040713349877069,187,1446040713346647977,robocape,3.82357106047,1.62139797178,50.5045541143,0.0,10.0,0.0,0.0,0.0,10.0,0.0,0.0,0.0,10.0,0.0031957933081,0.0194410759576,0.00745685105222,1.0,0.0,0.0,0.0,1.0,0.0,0.0,0.0,1.0,0.0263452148438,-0.531694335938,10.0231567383,0.1,0.0,0.0,0.0,0.1,0.0,0.0,0.0,0.1
1446040713383732111,188,1446040713380225896,robocape,3.80877197505,1.65934004168,50.3030382152,0.0,10.0,0.0,0.0,0.0,10.0,0.0,0.0,0.0,10.0,0.00173105470855,0.0201068662301,0.00732369299772,1.0,0.0,0.0,0.0,1.0,0.0,0.0,0.0,1.0,0.0179626464844,-0.578397216797,10.0459094238,0.1,0.0,0.0,0.0,0.1,0.0,0.0,0.0,0.1
1446040713416845611,189,1446040713413670063,robocape,3.79785460718,1.69610041897,50.1029116369,0.0,10.0,0.0,0.0,0.0,10.0,0.0,0.0,0.0,10.0,0.00372842552611,0.0195742340121,0.00705737688871,1.0,0.0,0.0,0.0,1.0,0.0,0.0,0.0,1.0,0.0311352539063,-0.587977294922,10.0614770508,0.1,0.0,0.0,0.0,0.1,0.0,0.0,0.0,0.1
1446040713449694903,190,1446040713446691036,robocape,3.79358378582,1.73297735641,49.9039861365,0.0,10.0,0.0,0.0,0.0,10.0,0.0,0.0,0.0,10.0,0.00719053494321,0.0197073920666,0.0066579027252,1.0,0.0,0.0,0.0,1.0,0.0,0.0,0.0,1.0,0.0215551757813,-0.59396484375,10.0387243652,0.1,0.0,0.0,0.0,0.1,0.0,0.0,0.0,0.1
1446040713483460528,191,1446040713480173110,robocape,3.79190644092,1.76911707251,49.7074859904,0.0,10.0,0.0,0.0,0.0,10.0,0.0,0.0,0.0,10.0,0.00852211548825,0.0194410759576,0.00705737688871,1.0,0.0,0.0,0.0,1.0,0.0,0.0,0.0,1.0,0.0335302734375,-0.543669433594,10.0566870117,0.1,0.0,0.0,0.0,0.1,0.0,0.0,0.0,0.1
1446040713517142778,192,1446040713513657093,robocape,3.78851092096,1.80553202443,49.5134776527,0.0,10.0,0.0,0.0,0.0,10.0,0.0,0.0,0.0,10.0,0.00759000910673,0.0197073920666,0.00745685105222,1.0,0.0,0.0,0.0,1.0,0.0,0.0,0.0,1.0,0.0167651367188,-0.540076904297,10.0435144043,0.1,0.0,0.0,0.0,0.1,0.0,0.0,0.0,0.1
1446040713549832861,193,1446040713546837091,robocape,3.77832127919,1.84254873578,49.320947239,0.0,10.0,0.0,0.0,0.0,10.0,0.0,0.0,0.0,10.0,0.00399474163512,0.0201068662301,0.00719053494321,1.0,0.0,0.0,0.0,1.0,0.0,0.0,0.0,1.0,0.0263452148438,-0.541274414062,10.0447119141,0.1,0.0,0.0,0.0,0.1,0.0,0.0,0.0,0.1
1446040713583321278,194,1446040713580075025,robocape,3.76540865414,1.87866358524,49.1295372335,0.0,10.0,0.0,0.0,0.0,10.0,0.0,0.0,0.0,10.0,0.00253000303558,0.0197073920666,0.0067910607797,1.0,0.0,0.0,0.0,1.0,0.0,0.0,0.0,1.0,0.0335302734375,-0.570014648438,10.0506994629,0.1,0.0,0.0,0.0,0.1,0.0,0.0,0.0,0.1
1446040713616590986,195,1446040713613542079,robocape,3.75258583673,1.91457370004,48.9400772207,0.0,10.0,0.0,0.0,0.0,10.0,0.0,0.0,0.0,10.0,0.00253000303558,0.0197073920666,0.00692421883421,1.0,0.0,0.0,0.0,1.0,0.0,0.0,0.0,1.0,0.0299377441406,-0.581989746094,10.0375268555,0.1,0.0,0.0,0.0,0.1,0.0,0.0,0.0,0.1
1446040713649764653,196,1446040713646801948,robocape,3.74567877761,1.95052741089,48.7527103791,0.0,10.0,0.0,0.0,0.0,10.0,0.0,0.0,0.0,10.0,0.00559263828917,0.0198405501211,0.00719053494321,1.0,0.0,0.0,0.0,1.0,0.0,0.0,0.0,1.0,0.0383203125,-0.590372314453,10.0638720703,0.1,0.0,0.0,0.0,0.1,0.0,0.0,0.0,0.1
1446040713683509486,197,1446040713680233955,robocape,3.74184684233,1.98563701985,48.5659134294,0.0,10.0,0.0,0.0,0.0,10.0,0.0,0.0,0.0,10.0,0.00719053494321,0.0194410759576,0.00652474467069,1.0,0.0,0.0,0.0,1.0,0.0,0.0,0.0,1.0,0.0383203125,-0.5748046875,10.055489502,0.1,0.0,0.0,0.0,0.1,0.0,0.0,0.0,0.1
1446040713716651153,198,1446040713713536977,robocape,3.73861150282,2.02145916483,48.3825213654,0.0,10.0,0.0,0.0,0.0,10.0,0.0,0.0,0.0,10.0,0.00745685105222,0.0199737081756,0.00759000910673,1.0,0.0,0.0,0.0,1.0,0.0,0.0,0.0,1.0,0.0335302734375,-0.553249511719,10.0339343262,0.1,0.0,0.0,0.0,0.1,0.0,0.0,0.0,0.1
1446040713749835570,199,1446040713746648073,robocape,3.73085233829,2.0561485683,48.2001200733,0.0,10.0,0.0,0.0,0.0,10.0,0.0,0.0,0.0,10.0,0.00506000607115,0.0194410759576,0.00719053494321,1.0,0.0,0.0,0.0,1.0,0.0,0.0,0.0,1.0,0.0323327636719,-0.541274414062,10.0339343262,0.1,0.0,0.0,0.0,0.1,0.0,0.0,0.0,0.1
1446040713785664570,200,1446040713782344102,robocape,3.71933589597,2.09024516876,48.0182870912,0.0,10.0,0.0,0.0,0.0,10.0,0.0,0.0,0.0,10.0,0.00306263525359,0.0191747598486,0.00652474467069,1.0,0.0,0.0,0.0,1.0,0.0,0.0,0.0,1.0,0.0359252929688,-0.570014648438,10.0662670898,0.1,0.0,0.0,0.0,0.1,0.0,0.0,0.0,0.1
1446040713822499778,201,1446040713819324016,robocape,3.70764728694,2.12366881835,47.8380294049,0.0,10.0,0.0,0.0,0.0,10.0,0.0,0.0,0.0,10.0,0.00292947719909,0.0189084437396,0.00652474467069,1.0,0.0,0.0,0.0,1.0,0.0,0.0,0.0,1.0,0.0419128417969,-0.570014648438,10.060279541,0.1,0.0,0.0,0.0,0.1,0.0,0.0,0.0,0.1
1446040713849934195,202,1446040713846613883,robocape,3.6998603012,2.15762634935,47.6602022907,0.0,10.0,0.0,0.0,0.0,10.0,0.0,0.0,0.0,10.0,0.00492684801665,0.0193079179031,0.00705737688871,1.0,0.0,0.0,0.0,1.0,0.0,0.0,0.0,1.0,0.0227526855469,-0.578397216797,10.0578845215,0.1,0.0,0.0,0.0,0.1,0.0,0.0,0.0,0.1
1446040713883567236,203,1446040713880198955,robocape,3.69541874556,2.19222281315,47.4835128902,0.0,10.0,0.0,0.0,0.0,10.0,0.0,0.0,0.0,10.0,0.0066579027252,0.0197073920666,0.0067910607797,1.0,0.0,0.0,0.0,1.0,0.0,0.0,0.0,1.0,0.0383203125,-0.577199707031,10.0578845215,0.1,0.0,0.0,0.0,0.1,0.0,0.0,0.0,0.1
1446040713916812070,204,1446040713913773059,robocape,3.69308470886,2.226836896,47.3094118374,0.0,10.0,0.0,0.0,0.0,10.0,0.0,0.0,0.0,10.0,0.00772316716123,0.0198405501211,0.00745685105222,1.0,0.0,0.0,0.0,1.0,0.0,0.0,0.0,1.0,0.0443078613281,-0.568817138672,10.0614770508,0.1,0.0,0.0,0.0,0.1,0.0,0.0,0.0,0.1
1446040713949793070,205,1446040713946808099,robocape,3.68749206775,2.2610774722,47.1364035627,0.0,10.0,0.0,0.0,0.0,10.0,0.0,0.0,0.0,10.0,0.00599211245268,0.0197073920666,0.00719053494321,1.0,0.0,0.0,0.0,1.0,0.0,0.0,0.0,1.0,0.0455053710938,-0.558039550781,10.0518969727,0.1,0.0,0.0,0.0,0.1,0.0,0.0,0.0,0.1
1446040713983266195,206,1446040713980114936,robocape,3.67993121746,2.29541677707,46.9649095347,0.0,10.0,0.0,0.0,0.0,10.0,0.0,0.0,0.0,10.0,0.00492684801665,0.0198405501211,0.00719053494321,1.0,0.0,0.0,0.0,1.0,0.0,0.0,0.0,1.0,0.0431103515625,-0.560434570312,10.0375268555,0.1,0.0,0.0,0.0,0.1,0.0,0.0,0.0,0.1
1446040714016997653,207,1446040714013881921,robocape,3.67013013593,2.32916191896,46.7940187426,0.0,10.0,0.0,0.0,0.0,10.0,0.0,0.0,0.0,10.0,0.00372842552611,0.0195742340121,0.0066579027252,1.0,0.0,0.0,0.0,1.0,0.0,0.0,0.0,1.0,0.0371228027344,-0.576002197266,10.055489502,0.1,0.0,0.0,0.0,0.1,0.0,0.0,0.0,0.1
1446040714049945361,208,1446040714046943902,robocape,3.66093445441,2.36344679384,46.6254641314,0.0,10.0,0.0,0.0,0.0,10.0,0.0,0.0,0.0,10.0,0.00399474163512,0.0199737081756,0.00719053494321,1.0,0.0,0.0,0.0,1.0,0.0,0.0,0.0,1.0,0.0311352539063,-0.572409667969,10.0411193848,0.1,0.0,0.0,0.0,0.1,0.0,0.0,0.0,0.1
1446040714083569403,209,1446040714080291032,robocape,3.65481926365,2.39765122774,46.4574523443,0.0,10.0,0.0,0.0,0.0,10.0,0.0,0.0,0.0,10.0,0.00559263828917,0.0199737081756,0.0066579027252,1.0,0.0,0.0,0.0,1.0,0.0,0.0,0.0,1.0,0.0371228027344,-0.579594726562,10.0471069336,0.1,0.0,0.0,0.0,0.1,0.0,0.0,0.0,0.1
1446040714116823612,210,1446040714113538980,robocape,3.65231326747,2.43220303455,46.2910615547,0.0,10.0,0.0,0.0,0.0,10.0,0.0,0.0,0.0,10.0,0.00745685105222,0.0202400242846,0.0067910607797,1.0,0.0,0.0,0.0,1.0,0.0,0.0,0.0,1.0,0.0455053710938,-0.556842041016,10.0099841309,0.1,0.0,0.0,0.0,0.1,0.0,0.0,0.0,0.1
1446040714149794278,211,1446040714146724939,robocape,3.6493376183,2.46536567134,46.1257858317,0.0,10.0,0.0,0.0,0.0,10.0,0.0,0.0,0.0,10.0,0.00719053494321,0.0195742340121,0.0066579027252,1.0,0.0,0.0,0.0,1.0,0.0,0.0,0.0,1.0,0.0371228027344,-0.559237060547,10.0447119141,0.1,0.0,0.0,0.0,0.1,0.0,0.0,0.0,0.1
1446040714183252737,212,1446040714179994106,robocape,3.64340705184,2.49729336732,45.9629278357,0.0,10.0,0.0,0.0,0.0,10.0,0.0,0.0,0.0,10.0,0.00559263828917,0.0190416017941,0.00732369299772,1.0,0.0,0.0,0.0,1.0,0.0,0.0,0.0,1.0,0.0467028808594,-0.553249511719,10.0435144043,0.1,0.0,0.0,0.0,0.1,0.0,0.0,0.0,0.1
1446040714217017445,213,1446040714213788032,robocape,3.63425221129,2.53033064205,45.8017219088,0.0,10.0,0.0,0.0,0.0,10.0,0.0,0.0,0.0,10.0,0.00386158358061,0.0197073920666,0.00745685105222,1.0,0.0,0.0,0.0,1.0,0.0,0.0,0.0,1.0,0.0251477050781,-0.552052001953,10.0459094238,0.1,0.0,0.0,0.0,0.1,0.0,0.0,0.0,0.1
1446040714250275820,214,1446040714246917963,robocape,3.62516708394,2.56373329824,45.6418668263,0.0,10.0,0.0,0.0,0.0,10.0,0.0,0.0,0.0,10.0,0.00386158358061,0.0199737081756,0.00745685105222,1.0,0.0,0.0,0.0,1.0,0.0,0.0,0.0,1.0,0.028740234375,-0.570014648438,10.0435144043,0.1,0.0,0.0,0.0,0.1,0.0,0.0,0.0,0.1
1446040714283293695,215,1446040714280081987,robocape,3.61812981916,2.59684646855,45.4819994948,0.0,10.0,0.0,0.0,0.0,10.0,0.0,0.0,0.0,10.0,0.00492684801665,0.0198405501211,0.0066579027252,1.0,0.0,0.0,0.0,1.0,0.0,0.0,0.0,1.0,0.0443078613281,-0.573607177734,10.0578845215,0.1,0.0,0.0,0.0,0.1,0.0,0.0,0.0,0.1
1446040714316916195,216,1446040714313664913,robocape,3.61448444036,2.62999673424,45.3244970106,0.0,10.0,0.0,0.0,0.0,10.0,0.0,0.0,0.0,10.0,0.0066579027252,0.0199737081756,0.00732369299772,1.0,0.0,0.0,0.0,1.0,0.0,0.0,0.0,1.0,0.028740234375,-0.568817138672,10.0578845215,0.1,0.0,0.0,0.0,0.1,0.0,0.0,0.0,0.1
1446040714350098320,217,1446040714346868038,robocape,3.61161538118,2.66333790761,45.167415148,0.0,10.0,0.0,0.0,0.0,10.0,0.0,0.0,0.0,10.0,0.00705737688871,0.0201068662301,0.0067910607797,1.0,0.0,0.0,0.0,1.0,0.0,0.0,0.0,1.0,0.028740234375,-0.556842041016,10.0339343262,0.1,0.0,0.0,0.0,0.1,0.0,0.0,0.0,0.1
1446040714383621153,218,1446040714380248069,robocape,3.60649605265,2.69557004706,45.0111332787,0.0,10.0,0.0,0.0,0.0,10.0,0.0,0.0,0.0,10.0,0.00585895439817,0.0195742340121,0.00652474467069,1.0,0.0,0.0,0.0,1.0,0.0,0.0,0.0,1.0,0.0371228027344,-0.560434570312,10.0614770508,0.1,0.0,0.0,0.0,0.1,0.0,0.0,0.0,0.1
1446040714417137320,219,1446040714413924932,robocape,3.59967527181,2.72789274865,44.8565616975,0.0,10.0,0.0,0.0,0.0,10.0,0.0,0.0,0.0,10.0,0.00492684801665,0.0197073920666,0.0067910607797,1.0,0.0,0.0,0.0,1.0,0.0,0.0,0.0,1.0,0.0335302734375,-0.55564453125,10.0471069336,0.1,0.0,0.0,0.0,0.1,0.0,0.0,0.0,0.1
1446040714449963278,220,1446040714446978092,robocape,3.59114213031,2.76033859368,44.7032476045,0.0,10.0,0.0,0.0,0.0,10.0,0.0,0.0,0.0,10.0,0.00399474163512,0.0198405501211,0.0067910607797,1.0,0.0,0.0,0.0,1.0,0.0,0.0,0.0,1.0,0.0359252929688,-0.572409667969,10.0722546387,0.1,0.0,0.0,0.0,0.1,0.0,0.0,0.0,0.1
1446040714483199403,221,1446040714479944944,robocape,3.58468300149,2.79218581175,44.5506752122,0.0,10.0,0.0,0.0,0.0,10.0,0.0,0.0,0.0,10.0,0.00506000607115,0.0195742340121,0.00652474467069,1.0,0.0,0.0,0.0,1.0,0.0,0.0,0.0,1.0,0.0311352539063,-0.571212158203,10.024354248,0.1,0.0,0.0,0.0,0.1,0.0,0.0,0.0,0.1
1446040714517199987,222,1446040714513639926,robocape,3.5803258719,2.82387818551,44.3997257202,0.0,10.0,0.0,0.0,0.0,10.0,0.0,0.0,0.0,10.0,0.00612527050718,0.0195742340121,0.0067910607797,1.0,0.0,0.0,0.0,1.0,0.0,0.0,0.0,1.0,0.01916015625,-0.581989746094,10.0351318359,0.1,0.0,0.0,0.0,0.1,0.0,0.0,0.0,0.1
1446040714550322112,223,1446040714547190904,robocape,3.57753926683,2.85520007286,44.2499388913,0.0,10.0,0.0,0.0,0.0,10.0,0.0,0.0,0.0,10.0,0.00692421883421,0.0194410759576,0.0067910607797,1.0,0.0,0.0,0.0,1.0,0.0,0.0,0.0,1.0,0.0371228027344,-0.565224609375,10.0267492676,0.1,0.0,0.0,0.0,0.1,0.0,0.0,0.0,0.1
1446040714583205153,224,1446040714579921007,robocape,3.57304445603,2.88712952907,44.1018086356,0.0,10.0,0.0,0.0,0.0,10.0,0.0,0.0,0.0,10.0,0.00599211245268,0.0198405501211,0.00705737688871,1.0,0.0,0.0,0.0,1.0,0.0,0.0,0.0,1.0,0.0179626464844,-0.554447021484,10.0375268555,0.1,0.0,0.0,0.0,0.1,0.0,0.0,0.0,0.1
1446040714617331945,225,1446040714613878011,robocape,3.5665750526,2.91944417669,43.9548699977,0.0,10.0,0.0,0.0,0.0,10.0,0.0,0.0,0.0,10.0,0.00492684801665,0.0201068662301,0.00705737688871,1.0,0.0,0.0,0.0,1.0,0.0,0.0,0.0,1.0,0.0407153320313,-0.556842041016,10.0590820312,0.1,0.0,0.0,0.0,0.1,0.0,0.0,0.0,0.1
1446040714649737153,226,1446040714646640062,robocape,3.55888699246,2.95114786853,43.8088340386,0.0,10.0,0.0,0.0,0.0,10.0,0.0,0.0,0.0,10.0,0.00426105774413,0.0198405501211,0.00692421883421,1.0,0.0,0.0,0.0,1.0,0.0,0.0,0.0,1.0,0.0239501953125,-0.558039550781,10.0674645996,0.1,0.0,0.0,0.0,0.1,0.0,0.0,0.0,0.1
1446040714683423445,227,1446040714680071115,robocape,3.55099750696,2.98199060441,43.6636682992,0.0,10.0,0.0,0.0,0.0,10.0,0.0,0.0,0.0,10.0,0.00412789968962,0.0194410759576,0.0067910607797,1.0,0.0,0.0,0.0,1.0,0.0,0.0,0.0,1.0,0.0407153320313,-0.578397216797,10.0375268555,0.1,0.0,0.0,0.0,0.1,0.0,0.0,0.0,0.1
1446040714717134820,228,1446040714713507890,robocape,3.54526524874,3.01361318115,43.5211783479,0.0,10.0,0.0,0.0,0.0,10.0,0.0,0.0,0.0,10.0,0.00519316412565,0.0199737081756,0.00772316716123,1.0,0.0,0.0,0.0,1.0,0.0,0.0,0.0,1.0,0.0407153320313,-0.573607177734,10.0674645996,0.1,0.0,0.0,0.0,0.1,0.0,0.0,0.0,0.1
1446040714749908487,229,1446040714746663093,robocape,3.54058096645,3.04490295126,43.3793196606,0.0,10.0,0.0,0.0,0.0,10.0,0.0,0.0,0.0,10.0,0.00572579634367,0.0198405501211,0.00745685105222,1.0,0.0,0.0,0.0,1.0,0.0,0.0,0.0,1.0,0.0335302734375,-0.566422119141,10.039921875,0.1,0.0,0.0,0.0,0.1,0.0,0.0,0.0,0.1
1446040714783384320,230,1446040714779898881,robocape,3.53667846465,3.07714390342,43.2379261879,0.0,10.0,0.0,0.0,0.0,10.0,0.0,0.0,0.0,10.0,0.00612527050718,0.0203731823391,0.00705737688871,1.0,0.0,0.0,0.0,1.0,0.0,0.0,0.0,1.0,0.0407153320313,-0.558039550781,10.0506994629,0.1,0.0,0.0,0.0,0.1,0.0,0.0,0.0,0.1
1446040714822227320,231,1446040714819091081,robocape,3.53053285806,3.10827512793,43.0973479553,0.0,10.0,0.0,0.0,0.0,10.0,0.0,0.0,0.0,10.0,0.00492684801665,0.0198405501211,0.00692421883421,1.0,0.0,0.0,0.0,1.0,0.0,0.0,0.0,1.0,0.0371228027344,-0.55564453125,10.0255517578,0.1,0.0,0.0,0.0,0.1,0.0,0.0,0.0,0.1
1446040714851128029,232,1446040714847784042,robocape,3.52320688426,3.13873802666,42.9584678687,0.0,10.0,0.0,0.0,0.0,10.0,0.0,0.0,0.0,10.0,0.00426105774413,0.0195742340121,0.00732369299772,1.0,0.0,0.0,0.0,1.0,0.0,0.0,0.0,1.0,0.0239501953125,-0.561632080078,10.0291442871,0.1,0.0,0.0,0.0,0.1,0.0,0.0,0.0,0.1
1446040714883696570,233,1446040714880373001,robocape,3.51642628365,3.16836783266,42.8201481546,0.0,10.0,0.0,0.0,0.0,10.0,0.0,0.0,0.0,10.0,0.00452737385313,0.0191747598486,0.00705737688871,1.0,0.0,0.0,0.0,1.0,0.0,0.0,0.0,1.0,0.0335302734375,-0.570014648438,10.0279467773,0.1,0.0,0.0,0.0,0.1,0.0,0.0,0.0,0.1
1446040714917613820,234,1446040714913927078,robocape,3.50992741999,3.19946096464,42.6822707142,0.0,10.0,0.0,0.0,0.0,10.0,0.0,0.0,0.0,10.0,0.00466053190764,0.0199737081756,0.0066579027252,1.0,0.0,0.0,0.0,1.0,0.0,0.0,0.0,1.0,0.0323327636719,-0.567619628906,10.0447119141,0.1,0.0,0.0,0.0,0.1,0.0,0.0,0.0,0.1
1446040714949889195,235,1446040714946887016,robocape,3.50503503819,3.22913224626,42.5460035398,0.0,10.0,0.0,0.0,0.0,10.0,0.0,0.0,0.0,10.0,0.00545948023466,0.0193079179031,0.00705737688871,1.0,0.0,0.0,0.0,1.0,0.0,0.0,0.0,1.0,0.0323327636719,-0.581989746094,10.039921875,0.1,0.0,0.0,0.0,0.1,0.0,0.0,0.0,0.1
1446040714983230362,236,1446040714979973077,robocape,3.50097568875,3.25841646389,42.411165657,0.0,10.0,0.0,0.0,0.0,10.0,0.0,0.0,0.0,10.0,0.00585895439817,0.0191747598486,0.00732369299772,1.0,0.0,0.0,0.0,1.0,0.0,0.0,0.0,1.0,0.0227526855469,-0.5748046875,10.060279541,0.1,0.0,0.0,0.0,0.1,0.0,0.0,0.0,0.1
1446040715017283862,237,1446040715013643026,robocape,3.49694476585,3.28890039724,42.2769388056,0.0,10.0,0.0,0.0,0.0,10.0,0.0,0.0,0.0,10.0,0.00585895439817,0.0198405501211,0.00705737688871,1.0,0.0,0.0,0.0,1.0,0.0,0.0,0.0,1.0,0.0347277832031,-0.560434570312,10.0518969727,0.1,0.0,0.0,0.0,0.1,0.0,0.0,0.0,0.1
1446040715049712070,238,1446040715046720027,robocape,3.49169515343,3.31953456738,42.143713251,0.0,10.0,0.0,0.0,0.0,10.0,0.0,0.0,0.0,10.0,0.00519316412565,0.0199737081756,0.00705737688871,1.0,0.0,0.0,0.0,1.0,0.0,0.0,0.0,1.0,0.0419128417969,-0.565224609375,10.0279467773,0.1,0.0,0.0,0.0,0.1,0.0,0.0,0.0,0.1
1446040715083162737,239,1446040715079933881,robocape,3.48501039713,3.34976146115,42.0121163594,0.0,10.0,0.0,0.0,0.0,10.0,0.0,0.0,0.0,10.0,0.00439421579863,0.0198405501211,0.00745685105222,1.0,0.0,0.0,0.0,1.0,0.0,0.0,0.0,1.0,0.0347277832031,-0.553249511719,10.0471069336,0.1,0.0,0.0,0.0,0.1,0.0,0.0,0.0,0.1
1446040715117365029,240,1446040715113814115,robocape,3.4791070972,3.37943222909,41.8807808189,0.0,10.0,0.0,0.0,0.0,10.0,0.0,0.0,0.0,10.0,0.00479368996214,0.0195742340121,0.00705737688871,1.0,0.0,0.0,0.0,1.0,0.0,0.0,0.0,1.0,0.0407153320313,-0.573607177734,10.0255517578,0.1,0.0,0.0,0.0,0.1,0.0,0.0,0.0,0.1
1446040715150023612,241,1446040715146836042,robocape,3.47429472029,3.40998305097,41.7508756265,0.0,10.0,0.0,0.0,0.0,10.0,0.0,0.0,0.0,10.0,0.00532632218016,0.0201068662301,0.00732369299772,1.0,0.0,0.0,0.0,1.0,0.0,0.0,0.0,1.0,0.0335302734375,-0.571212158203,10.0459094238,0.1,0.0,0.0,0.0,0.1,0.0,0.0,0.0,0.1
1446040715183283904,242,1446040715179964065,robocape,3.47000277193,3.44023257692,41.6212234884,0.0,10.0,0.0,0.0,0.0,10.0,0.0,0.0,0.0,10.0,0.00559263828917,0.0199737081756,0.00692421883421,1.0,0.0,0.0,0.0,1.0,0.0,0.0,0.0,1.0,0.0299377441406,-0.573607177734,10.0219592285,0.1,0.0,0.0,0.0,0.1,0.0,0.0,0.0,0.1
1446040715217141695,243,1446040715213733911,robocape,3.46651851853,3.47089110235,41.4925163312,0.0,10.0,0.0,0.0,0.0,10.0,0.0,0.0,0.0,10.0,0.00599211245268,0.0202400242846,0.00692421883421,1.0,0.0,0.0,0.0,1.0,0.0,0.0,0.0,1.0,0.0311352539063,-0.568817138672,10.0518969727,0.1,0.0,0.0,0.0,0.1,0.0,0.0,0.0,0.1
1446040715249857904,244,1446040715246583938,robocape,3.46207587733,3.50042337743,41.364904586,0.0,10.0,0.0,0.0,0.0,10.0,0.0,0.0,0.0,10.0,0.00545948023466,0.0197073920666,0.00705737688871,1.0,0.0,0.0,0.0,1.0,0.0,0.0,0.0,1.0,0.0275427246094,-0.562829589844,10.0662670898,0.1,0.0,0.0,0.0,0.1,0.0,0.0,0.0,0.1
1446040715283231612,245,1446040715279932022,robocape,3.45718724737,3.53035030455,41.2384448101,0.0,10.0,0.0,0.0,0.0,10.0,0.0,0.0,0.0,10.0,0.00519316412565,0.0199737081756,0.00719053494321,1.0,0.0,0.0,0.0,1.0,0.0,0.0,0.0,1.0,0.0251477050781,-0.567619628906,10.0674645996,0.1,0.0,0.0,0.0,0.1,0.0,0.0,0.0,0.1
1446040715317259529,246,1446040715313972949,robocape,3.45235939108,3.55991269706,41.1130863465,0.0,10.0,0.0,0.0,0.0,10.0,0.0,0.0,0.0,10.0,0.00519316412565,0.0198405501211,0.00732369299772,1.0,0.0,0.0,0.0,1.0,0.0,0.0,0.0,1.0,0.0443078613281,-0.567619628906,10.0423168945,0.1,0.0,0.0,0.0,0.1,0.0,0.0,0.0,0.1
1446040715349929779,247,1446040715346684932,robocape,3.44727647688,3.58843826109,40.9876725153,0.0,10.0,0.0,0.0,0.0,10.0,0.0,0.0,0.0,10.0,0.00506000607115,0.0193079179031,0.0067910607797,1.0,0.0,0.0,0.0,1.0,0.0,0.0,0.0,1.0,0.0431103515625,-0.556842041016,10.0435144043,0.1,0.0,0.0,0.0,0.1,0.0,0.0,0.0,0.1
1446040715383703195,248,1446040715380394935,robocape,3.44278875322,3.61758296984,40.8638343379,0.0,10.0,0.0,0.0,0.0,10.0,0.0,0.0,0.0,10.0,0.00532632218016,0.0197073920666,0.00719053494321,1.0,0.0,0.0,0.0,1.0,0.0,0.0,0.0,1.0,0.0335302734375,-0.568817138672,10.0339343262,0.1,0.0,0.0,0.0,0.1,0.0,0.0,0.0,0.1
1446040715417246154,249,1446040715413973093,robocape,3.43909560086,3.64640235878,40.7406185838,0.0,10.0,0.0,0.0,0.0,10.0,0.0,0.0,0.0,10.0,0.00572579634367,0.0195742340121,0.00705737688871,1.0,0.0,0.0,0.0,1.0,0.0,0.0,0.0,1.0,0.0419128417969,-0.558039550781,10.0650695801,0.1,0.0,0.0,0.0,0.1,0.0,0.0,0.0,0.1
1446040715450032570,250,1446040715447022914,robocape,3.43466286483,3.67592596571,40.6178496004,0.0,10.0,0.0,0.0,0.0,10.0,0.0,0.0,0.0,10.0,0.00532632218016,0.0199737081756,0.0067910607797,1.0,0.0,0.0,0.0,1.0,0.0,0.0,0.0,1.0,0.0323327636719,-0.562829589844,10.0578845215,0.1,0.0,0.0,0.0,0.1,0.0,0.0,0.0,0.1
1446040715483182696,251,1446040715480004072,robocape,3.42954107482,3.70431398688,40.4963300268,0.0,10.0,0.0,0.0,0.0,10.0,0.0,0.0,0.0,10.0,0.00492684801665,0.0194410759576,0.00705737688871,1.0,0.0,0.0,0.0,1.0,0.0,0.0,0.0,1.0,0.0251477050781,-0.55564453125,10.0530944824,0.1,0.0,0.0,0.0,0.1,0.0,0.0,0.0,0.1
1446040715517090987,252,1446040715513638973,robocape,3.42442750975,3.73089661784,40.374893162,0.0,10.0,0.0,0.0,0.0,10.0,0.0,0.0,0.0,10.0,0.00492684801665,0.0185089695761,0.0066579027252,1.0,0.0,0.0,0.0,1.0,0.0,0.0,0.0,1.0,0.028740234375,-0.558039550781,10.0614770508,0.1,0.0,0.0,0.0,0.1,0.0,0.0,0.0,0.1
1446040715549764279,253,1446040715546658992,robocape,3.4201943336,3.76034948833,40.2555384982,0.0,10.0,0.0,0.0,0.0,10.0,0.0,0.0,0.0,10.0,0.00532632218016,0.0201068662301,0.00732369299772,1.0,0.0,0.0,0.0,1.0,0.0,0.0,0.0,1.0,0.0335302734375,-0.567619628906,10.0339343262,0.1,0.0,0.0,0.0,0.1,0.0,0.0,0.0,0.1
1446040715583231237,254,1446040715579997062,robocape,3.41803136073,3.78845175251,40.1369265348,0.0,10.0,0.0,0.0,0.0,10.0,0.0,0.0,0.0,10.0,0.00639158661619,0.0194410759576,0.00732369299772,1.0,0.0,0.0,0.0,1.0,0.0,0.0,0.0,1.0,0.0323327636719,-0.571212158203,10.0866247559,0.1,0.0,0.0,0.0,0.1,0.0,0.0,0.0,0.1
1446040715617111987,255,1446040715613794088,robocape,3.41432217537,3.81756775404,40.0180543542,0.0,10.0,0.0,0.0,0.0,10.0,0.0,0.0,0.0,10.0,0.00559263828917,0.0199737081756,0.0066579027252,1.0,0.0,0.0,0.0,1.0,0.0,0.0,0.0,1.0,0.0347277832031,-0.581989746094,10.0483044434,0.1,0.0,0.0,0.0,0.1,0.0,0.0,0.0,0.1
1446040715649782821,256,1446040715646625041,robocape,3.41120218704,3.84553691649,39.9006063378,0.0,10.0,0.0,0.0,0.0,10.0,0.0,0.0,0.0,10.0,0.00585895439817,0.0194410759576,0.00705737688871,1.0,0.0,0.0,0.0,1.0,0.0,0.0,0.0,1.0,0.0335302734375,-0.562829589844,10.0638720703,0.1,0.0,0.0,0.0,0.1,0.0,0.0,0.0,0.1
1446040715683337529,257,1446040715680053949,robocape,3.40665977473,3.87386258459,39.7848754248,0.0,10.0,0.0,0.0,0.0,10.0,0.0,0.0,0.0,10.0,0.00506000607115,0.0197073920666,0.00759000910673,1.0,0.0,0.0,0.0,1.0,0.0,0.0,0.0,1.0,0.01916015625,-0.566422119141,10.0375268555,0.1,0.0,0.0,0.0,0.1,0.0,0.0,0.0,0.1
1446040715716710821,258,1446040715713556051,robocape,3.40206755792,3.90272998165,39.6683708403,0.0,10.0,0.0,0.0,0.0,10.0,0.0,0.0,0.0,10.0,0.00506000607115,0.0199737081756,0.0066579027252,1.0,0.0,0.0,0.0,1.0,0.0,0.0,0.0,1.0,0.0323327636719,-0.566422119141,10.0518969727,0.1,0.0,0.0,0.0,0.1,0.0,0.0,0.0,0.1
1446040715750431196,259,1446040715747014999,robocape,3.39677400194,3.93099082368,39.5528464587,0.0,10.0,0.0,0.0,0.0,10.0,0.0,0.0,0.0,10.0,0.00466053190764,0.0197073920666,0.0067910607797,1.0,0.0,0.0,0.0,1.0,0.0,0.0,0.0,1.0,0.0275427246094,-0.567619628906,10.0530944824,0.1,0.0,0.0,0.0,0.1,0.0,0.0,0.0,0.1
1446040715783185112,260,1446040715779937982,robocape,3.39335789646,3.95885062507,39.4389650736,0.0,10.0,0.0,0.0,0.0,10.0,0.0,0.0,0.0,10.0,0.00559263828917,0.0195742340121,0.00732369299772,1.0,0.0,0.0,0.0,1.0,0.0,0.0,0.0,1.0,0.0347277832031,-0.572409667969,10.0674645996,0.1,0.0,0.0,0.0,0.1,0.0,0.0,0.0,0.1
1446040715822874987,261,1446040715819555997,robocape,3.3907168528,3.98742480178,39.3254162492,0.0,10.0,0.0,0.0,0.0,10.0,0.0,0.0,0.0,10.0,0.00599211245268,0.0199737081756,0.00705737688871,1.0,0.0,0.0,0.0,1.0,0.0,0.0,0.0,1.0,0.0299377441406,-0.584384765625,10.0315393066,0.1,0.0,0.0,0.0,0.1,0.0,0.0,0.0,0.1
1446040715850090362,262,1446040715846687078,robocape,3.38783166148,4.01519468398,39.2121308809,0.0,10.0,0.0,0.0,0.0,10.0,0.0,0.0,0.0,10.0,0.00585895439817,0.0195742340121,0.0067910607797,1.0,0.0,0.0,0.0,1.0,0.0,0.0,0.0,1.0,0.0335302734375,-0.573607177734,10.0363293457,0.1,0.0,0.0,0.0,0.1,0.0,0.0,0.0,0.1
1446040715883706071,263,1446040715880336999,robocape,3.38446512948,4.04265170667,39.0993530987,0.0,10.0,0.0,0.0,0.0,10.0,0.0,0.0,0.0,10.0,0.00559263828917,0.0194410759576,0.0066579027252,1.0,0.0,0.0,0.0,1.0,0.0,0.0,0.0,1.0,0.0407153320313,-0.562829589844,10.0542919922,0.1,0.0,0.0,0.0,0.1,0.0,0.0,0.0,0.1
1446040715916988362,264,1446040715913939952,robocape,3.38091581705,4.06974628396,38.987751036,0.0,10.0,0.0,0.0,0.0,10.0,0.0,0.0,0.0,10.0,0.00545948023466,0.0193079179031,0.00692421883421,1.0,0.0,0.0,0.0,1.0,0.0,0.0,0.0,1.0,0.0371228027344,-0.558039550781,10.0483044434,0.1,0.0,0.0,0.0,0.1,0.0,0.0,0.0,0.1
1446040715953877029,265,1446040715950870037,robocape,3.37633844919,4.09809791575,38.8760329234,0.0,10.0,0.0,0.0,0.0,10.0,0.0,0.0,0.0,10.0,0.00492684801665,0.0199737081756,0.00639158661619,1.0,0.0,0.0,0.0,1.0,0.0,0.0,0.0,1.0,0.0299377441406,-0.559237060547,10.0255517578,0.1,0.0,0.0,0.0,0.1,0.0,0.0,0.0,0.1
1446040715983044571,266,1446040715979953050,robocape,3.37283242902,4.12559629923,38.7652221685,0.0,10.0,0.0,0.0,0.0,10.0,0.0,0.0,0.0,10.0,0.00545948023466,0.0195742340121,0.00652474467069,1.0,0.0,0.0,0.0,1.0,0.0,0.0,0.0,1.0,0.0323327636719,-0.573607177734,10.0303417969,0.1,0.0,0.0,0.0,0.1,0.0,0.0,0.0,0.1
1446040716017252654,267,1446040716014131069,robocape,3.36947239015,4.15264880133,38.6566941477,0.0,10.0,0.0,0.0,0.0,10.0,0.0,0.0,0.0,10.0,0.00545948023466,0.0194410759576,0.00745685105222,1.0,0.0,0.0,0.0,1.0,0.0,0.0,0.0,1.0,0.0419128417969,-0.565224609375,10.039921875,0.1,0.0,0.0,0.0,0.1,0.0,0.0,0.0,0.1
1446040716049737696,268,1446040716046755075,robocape,3.36685323463,4.17969672292,38.5479544016,0.0,10.0,0.0,0.0,0.0,10.0,0.0,0.0,0.0,10.0,0.00585895439817,0.0194410759576,0.00692421883421,1.0,0.0,0.0,0.0,1.0,0.0,0.0,0.0,1.0,0.0359252929688,-0.558039550781,10.0626745605,0.1,0.0,0.0,0.0,0.1,0.0,0.0,0.0,0.1
1446040716082937821,269,1446040716079935073,robocape,3.36376764479,4.20768398996,38.4399564933,0.0,10.0,0.0,0.0,0.0,10.0,0.0,0.0,0.0,10.0,0.00559263828917,0.0199737081756,0.00692421883421,1.0,0.0,0.0,0.0,1.0,0.0,0.0,0.0,1.0,0.0263452148438,-0.560434570312,10.0518969727,0.1,0.0,0.0,0.0,0.1,0.0,0.0,0.0,0.1
1446040716116724571,270,1446040716113615989,robocape,3.3604677664,4.23559659683,38.3326459506,0.0,10.0,0.0,0.0,0.0,10.0,0.0,0.0,0.0,10.0,0.00545948023466,0.0199737081756,0.00692421883421,1.0,0.0,0.0,0.0,1.0,0.0,0.0,0.0,1.0,0.0239501953125,-0.567619628906,10.0411193848,0.1,0.0,0.0,0.0,0.1,0.0,0.0,0.0,0.1
1446040716149773404,271,1446040716146594047,robocape,3.35566999414,4.26244003582,38.2257505048,0.0,10.0,0.0,0.0,0.0,10.0,0.0,0.0,0.0,10.0,0.00466053190764,0.0194410759576,0.0067910607797,1.0,0.0,0.0,0.0,1.0,0.0,0.0,0.0,1.0,0.0251477050781,-0.568817138672,10.0518969727,0.1,0.0,0.0,0.0,0.1,0.0,0.0,0.0,0.1
1446040716183530904,272,1446040716180234909,robocape,3.35248634331,4.29042602482,38.1202568832,0.0,10.0,0.0,0.0,0.0,10.0,0.0,0.0,0.0,10.0,0.00545948023466,0.0201068662301,0.00719053494321,1.0,0.0,0.0,0.0,1.0,0.0,0.0,0.0,1.0,0.0311352539063,-0.572409667969,10.055489502,0.1,0.0,0.0,0.0,0.1,0.0,0.0,0.0,0.1
1446040716216921529,273,1446040716213829994,robocape,3.35007009536,4.31837285243,38.0149679799,0.0,10.0,0.0,0.0,0.0,10.0,0.0,0.0,0.0,10.0,0.00585895439817,0.0201068662301,0.00692421883421,1.0,0.0,0.0,0.0,1.0,0.0,0.0,0.0,1.0,0.0443078613281,-0.564027099609,10.0674645996,0.1,0.0,0.0,0.0,0.1,0.0,0.0,0.0,0.1
1446040716249838196,274,1446040716246582031,robocape,3.34848164291,4.34596102274,37.9107764825,0.0,10.0,0.0,0.0,0.0,10.0,0.0,0.0,0.0,10.0,0.00625842856169,0.0199737081756,0.00719053494321,1.0,0.0,0.0,0.0,1.0,0.0,0.0,0.0,1.0,0.028740234375,-0.568817138672,10.0459094238,0.1,0.0,0.0,0.0,0.1,0.0,0.0,0.0,0.1
1446040716283267488,275,1446040716279887914,robocape,3.3468954926,4.3737656395,37.8067911275,0.0,10.0,0.0,0.0,0.0,10.0,0.0,0.0,0.0,10.0,0.00625842856169,0.0201068662301,0.00692421883421,1.0,0.0,0.0,0.0,1.0,0.0,0.0,0.0,1.0,0.0335302734375,-0.579594726562,10.0459094238,0.1,0.0,0.0,0.0,0.1,0.0,0.0,0.0,0.1
1446040716317326196,276,1446040716314280033,robocape,3.34374037746,4.40082545694,37.7022882531,0.0,10.0,0.0,0.0,0.0,10.0,0.0,0.0,0.0,10.0,0.00545948023466,0.0197073920666,0.00625842856169,1.0,0.0,0.0,0.0,1.0,0.0,0.0,0.0,1.0,0.0371228027344,-0.566422119141,10.0495019531,0.1,0.0,0.0,0.0,0.1,0.0,0.0,0.0,0.1
1446040716350015279,277,1446040716346759080,robocape,3.34119437923,4.4269903153,37.5993045891,0.0,10.0,0.0,0.0,0.0,10.0,0.0,0.0,0.0,10.0,0.00572579634367,0.0193079179031,0.0067910607797,1.0,0.0,0.0,0.0,1.0,0.0,0.0,0.0,1.0,0.0467028808594,-0.567619628906,10.039921875,0.1,0.0,0.0,0.0,0.1,0.0,0.0,0.0,0.1
1446040716384127488,278,1446040716380800008,robocape,3.33875265014,4.45378014428,37.49789863,0.0,10.0,0.0,0.0,0.0,10.0,0.0,0.0,0.0,10.0,0.00572579634367,0.0197073920666,0.00732369299772,1.0,0.0,0.0,0.0,1.0,0.0,0.0,0.0,1.0,0.0371228027344,-0.571212158203,10.0375268555,0.1,0.0,0.0,0.0,0.1,0.0,0.0,0.0,0.1
1446040716416938154,279,1446040716413764953,robocape,3.33631235591,4.47952560476,37.3966151115,0.0,10.0,0.0,0.0,0.0,10.0,0.0,0.0,0.0,10.0,0.00572579634367,0.0191747598486,0.00705737688871,1.0,0.0,0.0,0.0,1.0,0.0,0.0,0.0,1.0,0.0227526855469,-0.556842041016,10.0339343262,0.1,0.0,0.0,0.0,0.1,0.0,0.0,0.0,0.1
1446040716449933738,280,1446040716446842908,robocape,3.33360657247,4.50576395244,37.2952902711,0.0,10.0,0.0,0.0,0.0,10.0,0.0,0.0,0.0,10.0,0.00559263828917,0.0194410759576,0.0066579027252,1.0,0.0,0.0,0.0,1.0,0.0,0.0,0.0,1.0,0.0299377441406,-0.560434570312,10.0506994629,0.1,0.0,0.0,0.0,0.1,0.0,0.0,0.0,0.1
1446040716482934946,281,1446040716479953050,robocape,3.33048370722,4.53315024781,37.1953230529,0.0,10.0,0.0,0.0,0.0,10.0,0.0,0.0,0.0,10.0,0.00532632218016,0.0201068662301,0.00705737688871,1.0,0.0,0.0,0.0,1.0,0.0,0.0,0.0,1.0,0.0359252929688,-0.561632080078,10.0423168945,0.1,0.0,0.0,0.0,0.1,0.0,0.0,0.0,0.1
1446040716516860446,282,1446040716513820886,robocape,3.32737832656,4.55896839936,37.0956668368,0.0,10.0,0.0,0.0,0.0,10.0,0.0,0.0,0.0,10.0,0.00532632218016,0.0193079179031,0.00692421883421,1.0,0.0,0.0,0.0,1.0,0.0,0.0,0.0,1.0,0.0383203125,-0.567619628906,10.0614770508,0.1,0.0,0.0,0.0,0.1,0.0,0.0,0.0,0.1
1446040716550074613,283,1446040716546885013,robocape,3.32456598719,4.58548176487,36.9966438991,0.0,10.0,0.0,0.0,0.0,10.0,0.0,0.0,0.0,10.0,0.00545948023466,0.0197073920666,0.00692421883421,1.0,0.0,0.0,0.0,1.0,0.0,0.0,0.0,1.0,0.0251477050781,-0.573607177734,10.0662670898,0.1,0.0,0.0,0.0,0.1,0.0,0.0,0.0,0.1
1446040716583074696,284,1446040716580060005,robocape,3.32151966641,4.61194717254,36.8979886677,0.0,10.0,0.0,0.0,0.0,10.0,0.0,0.0,0.0,10.0,0.00532632218016,0.0197073920666,0.0067910607797,1.0,0.0,0.0,0.0,1.0,0.0,0.0,0.0,1.0,0.0251477050781,-0.571212158203,10.0255517578,0.1,0.0,0.0,0.0,0.1,0.0,0.0,0.0,0.1
1446040716616870946,285,1446040716613257884,robocape,3.31901824356,4.63885385129,36.7999433201,0.0,10.0,0.0,0.0,0.0,10.0,0.0,0.0,0.0,10.0,0.00559263828917,0.0199737081756,0.0067910607797,1.0,0.0,0.0,0.0,1.0,0.0,0.0,0.0,1.0,0.0263452148438,-0.578397216797,10.0231567383,0.1,0.0,0.0,0.0,0.1,0.0,0.0,0.0,0.1
1446040716650143613,286,1446040716646879911,robocape,3.3157741188,4.66571206298,36.7022568364,0.0,10.0,0.0,0.0,0.0,10.0,0.0,0.0,0.0,10.0,0.00519316412565,0.0199737081756,0.0066579027252,1.0,0.0,0.0,0.0,1.0,0.0,0.0,0.0,1.0,0.0359252929688,-0.55564453125,10.0542919922,0.1,0.0,0.0,0.0,0.1,0.0,0.0,0.0,0.1
1446040716682920363,287,1446040716679939985,robocape,3.31357864947,4.69149436965,36.6051018865,0.0,10.0,0.0,0.0,0.0,10.0,0.0,0.0,0.0,10.0,0.00572579634367,0.0194410759576,0.0066579027252,1.0,0.0,0.0,0.0,1.0,0.0,0.0,0.0,1.0,0.0263452148438,-0.567619628906,10.0590820312,0.1,0.0,0.0,0.0,0.1,0.0,0.0,0.0,0.1
1446040716717046321,288,1446040716713366031,robocape,3.3104589541,4.71817540198,36.5092570322,0.0,10.0,0.0,0.0,0.0,10.0,0.0,0.0,0.0,10.0,0.00519316412565,0.0199737081756,0.00705737688871,1.0,0.0,0.0,0.0,1.0,0.0,0.0,0.0,1.0,0.0299377441406,-0.576002197266,10.0219592285,0.1,0.0,0.0,0.0,0.1,0.0,0.0,0.0,0.1
1446040716750150363,289,1446040716746774911,robocape,3.30757321884,4.74357956671,36.4132338812,0.0,10.0,0.0,0.0,0.0,10.0,0.0,0.0,0.0,10.0,0.00532632218016,0.0193079179031,0.0066579027252,1.0,0.0,0.0,0.0,1.0,0.0,0.0,0.0,1.0,0.0347277832031,-0.571212158203,10.024354248,0.1,0.0,0.0,0.0,0.1,0.0,0.0,0.0,0.1
1446040716783084071,290,1446040716780014991,robocape,3.3060467656,4.76988453648,36.3185004751,0.0,10.0,0.0,0.0,0.0,10.0,0.0,0.0,0.0,10.0,0.00599211245268,0.0198405501211,0.00705737688871,1.0,0.0,0.0,0.0,1.0,0.0,0.0,0.0,1.0,0.0359252929688,-0.571212158203,10.0291442871,0.1,0.0,0.0,0.0,0.1,0.0,0.0,0.0,0.1
1446040716822220154,291,1446040716818821907,robocape,3.30370370065,4.79722405753,36.2232207496,0.0,10.0,0.0,0.0,0.0,10.0,0.0,0.0,0.0,10.0,0.00559263828917,0.0203731823391,0.00639158661619,1.0,0.0,0.0,0.0,1.0,0.0,0.0,0.0,1.0,0.0263452148438,-0.573607177734,10.0506994629,0.1,0.0,0.0,0.0,0.1,0.0,0.0,0.0,0.1
1446040716850068946,292,1446040716846554994,robocape,3.29918424289,4.823924604,36.1294015373,0.0,10.0,0.0,0.0,0.0,10.0,0.0,0.0,0.0,10.0,0.00439421579863,0.0201068662301,0.00692421883421,1.0,0.0,0.0,0.0,1.0,0.0,0.0,0.0,1.0,0.0311352539063,-0.580792236328,10.0878222656,0.1,0.0,0.0,0.0,0.1,0.0,0.0,0.0,0.1
1446040716883631821,293,1446040716880060911,robocape,3.29622287543,4.84955070698,36.0360762024,0.0,10.0,0.0,0.0,0.0,10.0,0.0,0.0,0.0,10.0,0.00519316412565,0.0195742340121,0.00692421883421,1.0,0.0,0.0,0.0,1.0,0.0,0.0,0.0,1.0,0.0431103515625,-0.568817138672,10.0542919922,0.1,0.0,0.0,0.0,0.1,0.0,0.0,0.0,0.1
1446040716917010655,294,1446040716913326978,robocape,3.29407804182,4.87611167036,35.9435602214,0.0,10.0,0.0,0.0,0.0,10.0,0.0,0.0,0.0,10.0,0.00559263828917,0.0201068662301,0.00705737688871,1.0,0.0,0.0,0.0,1.0,0.0,0.0,0.0,1.0,0.0335302734375,-0.566422119141,10.0435144043,0.1,0.0,0.0,0.0,0.1,0.0,0.0,0.0,0.1
1446040716950003030,295,1446040716946835041,robocape,3.29065884862,4.90138093634,35.8510686827,0.0,10.0,0.0,0.0,0.0,10.0,0.0,0.0,0.0,10.0,0.00492684801665,0.0194410759576,0.0067910607797,1.0,0.0,0.0,0.0,1.0,0.0,0.0,0.0,1.0,0.028740234375,-0.579594726562,10.060279541,0.1,0.0,0.0,0.0,0.1,0.0,0.0,0.0,0.1
1446040716983670113,296,1446040716980696916,robocape,3.288076822,4.92782207727,35.7596185457,0.0,10.0,0.0,0.0,0.0,10.0,0.0,0.0,0.0,10.0,0.00532632218016,0.0201068662301,0.00705737688871,1.0,0.0,0.0,0.0,1.0,0.0,0.0,0.0,1.0,0.0239501953125,-0.567619628906,10.0303417969,0.1,0.0,0.0,0.0,0.1,0.0,0.0,0.0,0.1
1446040717016957280,297,1446040717013364076,robocape,3.28614548695,4.95308927831,35.6700275525,0.0,10.0,0.0,0.0,0.0,10.0,0.0,0.0,0.0,10.0,0.00559263828917,0.0195742340121,0.00785632521573,1.0,0.0,0.0,0.0,1.0,0.0,0.0,0.0,1.0,0.0359252929688,-0.5748046875,10.0506994629,0.1,0.0,0.0,0.0,0.1,0.0,0.0,0.0,0.1
1446040717050023530,298,1446040717046705007,robocape,3.28407615402,4.97819989925,35.5788639973,0.0,10.0,0.0,0.0,0.0,10.0,0.0,0.0,0.0,10.0,0.00559263828917,0.0194410759576,0.0066579027252,1.0,0.0,0.0,0.0,1.0,0.0,0.0,0.0,1.0,0.0431103515625,-0.568817138672,10.0686621094,0.1,0.0,0.0,0.0,0.1,0.0,0.0,0.0,0.1
1446040717082975238,299,1446040717079999923,robocape,3.28030273011,5.00296704362,35.4886757851,0.0,10.0,0.0,0.0,0.0,10.0,0.0,0.0,0.0,10.0,0.00466053190764,0.0193079179031,0.00692421883421,1.0,0.0,0.0,0.0,1.0,0.0,0.0,0.0,1.0,0.0407153320313,-0.573607177734,10.0506994629,0.1,0.0,0.0,0.0,0.1,0.0,0.0,0.0,0.1
1446040717117482946,300,1446040717113605976,robocape,3.2789472671,5.02936301608,35.4002160625,0.0,10.0,0.0,0.0,0.0,10.0,0.0,0.0,0.0,10.0,0.00585895439817,0.0202400242846,0.00759000910673,1.0,0.0,0.0,0.0,1.0,0.0,0.0,0.0,1.0,0.0203576660156,-0.567619628906,10.0447119141,0.1,0.0,0.0,0.0,0.1,0.0,0.0,0.0,0.1
1446040717150170905,301,1446040717146816015,robocape,3.27676079206,5.0540154192,35.3110298829,0.0,10.0,0.0,0.0,0.0,10.0,0.0,0.0,0.0,10.0,0.00545948023466,0.0193079179031,0.00692421883421,1.0,0.0,0.0,0.0,1.0,0.0,0.0,0.0,1.0,0.0407153320313,-0.561632080078,10.055489502,0.1,0.0,0.0,0.0,0.1,0.0,0.0,0.0,0.1
1446040717182949488,302,1446040717179959058,robocape,3.27560099528,5.0783781798,35.2220994465,0.0,10.0,0.0,0.0,0.0,10.0,0.0,0.0,0.0,10.0,0.00599211245268,0.0191747598486,0.0067910607797,1.0,0.0,0.0,0.0,1.0,0.0,0.0,0.0,1.0,0.0359252929688,-0.560434570312,10.0626745605,0.1,0.0,0.0,0.0,0.1,0.0,0.0,0.0,0.1
1446040717216682780,303,1446040717213356971,robocape,3.27299098725,5.10341209722,35.1341673793,0.0,10.0,0.0,0.0,0.0,10.0,0.0,0.0,0.0,10.0,0.00519316412565,0.0195742340121,0.00705737688871,1.0,0.0,0.0,0.0,1.0,0.0,0.0,0.0,1.0,0.0275427246094,-0.562829589844,10.0387243652,0.1,0.0,0.0,0.0,0.1,0.0,0.0,0.0,0.1
1446040717250363821,304,1446040717246978998,robocape,3.26992695614,5.12837357663,35.0469587072,0.0,10.0,0.0,0.0,0.0,10.0,0.0,0.0,0.0,10.0,0.00492684801665,0.0195742340121,0.00719053494321,1.0,0.0,0.0,0.0,1.0,0.0,0.0,0.0,1.0,0.028740234375,-0.566422119141,10.0435144043,0.1,0.0,0.0,0.0,0.1,0.0,0.0,0.0,0.1
1446040717283064946,305,1446040717280014991,robocape,3.26656458986,5.1530952875,34.9592998489,0.0,10.0,0.0,0.0,0.0,10.0,0.0,0.0,0.0,10.0,0.00479368996214,0.0194410759576,0.0066579027252,1.0,0.0,0.0,0.0,1.0,0.0,0.0,0.0,1.0,0.0299377441406,-0.564027099609,10.0459094238,0.1,0.0,0.0,0.0,0.1,0.0,0.0,0.0,0.1
1446040717316809696,306,1446040717313510894,robocape,3.26450711831,5.17877408352,34.8721630756,0.0,10.0,0.0,0.0,0.0,10.0,0.0,0.0,0.0,10.0,0.00545948023466,0.0199737081756,0.0066579027252,1.0,0.0,0.0,0.0,1.0,0.0,0.0,0.0,1.0,0.0311352539063,-0.564027099609,10.0363293457,0.1,0.0,0.0,0.0,0.1,0.0,0.0,0.0,0.1
1446040717349997905,307,1446040717346617937,robocape,3.26304480549,5.20333494078,34.7861566669,0.0,10.0,0.0,0.0,0.0,10.0,0.0,0.0,0.0,10.0,0.00572579634367,0.0194410759576,0.00705737688871,1.0,0.0,0.0,0.0,1.0,0.0,0.0,0.0,1.0,0.028740234375,-0.568817138672,10.0423168945,0.1,0.0,0.0,0.0,0.1,0.0,0.0,0.0,0.1
1446040717383414571,308,1446040717379913091,robocape,3.26135937892,5.22809606567,34.7006349873,0.0,10.0,0.0,0.0,0.0,10.0,0.0,0.0,0.0,10.0,0.00559263828917,0.0195742340121,0.00705737688871,1.0,0.0,0.0,0.0,1.0,0.0,0.0,0.0,1.0,0.0299377441406,-0.573607177734,10.0495019531,0.1,0.0,0.0,0.0,0.1,0.0,0.0,0.0,0.1
1446040717416804405,309,1446040717413549900,robocape,3.25947190978,5.25329260811,34.6158356788,0.0,10.0,0.0,0.0,0.0,10.0,0.0,0.0,0.0,10.0,0.00545948023466,0.0198405501211,0.00719053494321,1.0,0.0,0.0,0.0,1.0,0.0,0.0,0.0,1.0,0.0299377441406,-0.570014648438,10.0411193848,0.1,0.0,0.0,0.0,0.1,0.0,0.0,0.0,0.1
1446040717450084030,310,1446040717446764945,robocape,3.25649817019,5.27801460439,34.5303226822,0.0,10.0,0.0,0.0,0.0,10.0,0.0,0.0,0.0,10.0,0.00492684801665,0.0195742340121,0.00652474467069,1.0,0.0,0.0,0.0,1.0,0.0,0.0,0.0,1.0,0.0263452148438,-0.567619628906,10.0542919922,0.1,0.0,0.0,0.0,0.1,0.0,0.0,0.0,0.1
1446040717482973738,311,1446040717479990959,robocape,3.25381121297,5.30268370176,34.4452731491,0.0,10.0,0.0,0.0,0.0,10.0,0.0,0.0,0.0,10.0,0.00506000607115,0.0195742340121,0.00652474467069,1.0,0.0,0.0,0.0,1.0,0.0,0.0,0.0,1.0,0.0335302734375,-0.579594726562,10.0686621094,0.1,0.0,0.0,0.0,0.1,0.0,0.0,0.0,0.1
1446040717516587988,312,1446040717513422012,robocape,3.25170460307,5.32726634817,34.3611462459,0.0,10.0,0.0,0.0,0.0,10.0,0.0,0.0,0.0,10.0,0.00532632218016,0.0195742340121,0.0067910607797,1.0,0.0,0.0,0.0,1.0,0.0,0.0,0.0,1.0,0.0455053710938,-0.562829589844,10.0674645996,0.1,0.0,0.0,0.0,0.1,0.0,0.0,0.0,0.1
1446040717550208738,313,1446040717546627044,robocape,3.25107009008,5.3531294198,34.2765912512,0.0,10.0,0.0,0.0,0.0,10.0,0.0,0.0,0.0,10.0,0.00612527050718,0.0202400242846,0.00625842856169,1.0,0.0,0.0,0.0,1.0,0.0,0.0,0.0,1.0,0.0371228027344,-0.567619628906,10.0363293457,0.1,0.0,0.0,0.0,0.1,0.0,0.0,0.0,0.1
1446040717583039405,314,1446040717580051898,robocape,3.2497825254,5.37836439886,34.1934017208,0.0,10.0,0.0,0.0,0.0,10.0,0.0,0.0,0.0,10.0,0.00572579634367,0.0199737081756,0.0067910607797,1.0,0.0,0.0,0.0,1.0,0.0,0.0,0.0,1.0,0.0203576660156,-0.565224609375,10.0315393066,0.1,0.0,0.0,0.0,0.1,0.0,0.0,0.0,0.1
1446040717616703155,315,1446040717613339900,robocape,3.24854477087,5.40403487983,34.1109112272,0.0,10.0,0.0,0.0,0.0,10.0,0.0,0.0,0.0,10.0,0.00572579634367,0.0202400242846,0.00692421883421,1.0,0.0,0.0,0.0,1.0,0.0,0.0,0.0,1.0,0.0275427246094,-0.573607177734,10.0327368164,0.1,0.0,0.0,0.0,0.1,0.0,0.0,0.0,0.1
1446040717649971405,316,1446040717646601915,robocape,3.24682407743,5.42838778173,34.0288106666,0.0,10.0,0.0,0.0,0.0,10.0,0.0,0.0,0.0,10.0,0.00545948023466,0.0195742340121,0.00692421883421,1.0,0.0,0.0,0.0,1.0,0.0,0.0,0.0,1.0,0.0347277832031,-0.571212158203,10.080637207,0.1,0.0,0.0,0.0,0.1,0.0,0.0,0.0,0.1
1446040717683451030,317,1446040717680314064,robocape,3.24466777632,5.4526560902,33.9476145255,0.0,10.0,0.0,0.0,0.0,10.0,0.0,0.0,0.0,10.0,0.00519316412565,0.0195742340121,0.00719053494321,1.0,0.0,0.0,0.0,1.0,0.0,0.0,0.0,1.0,0.0359252929688,-0.568817138672,10.0495019531,0.1,0.0,0.0,0.0,0.1,0.0,0.0,0.0,0.1
1446040717716369613,318,1446040717713283061,robocape,3.24389587437,5.47756413577,33.8678069696,0.0,10.0,0.0,0.0,0.0,10.0,0.0,0.0,0.0,10.0,0.00585895439817,0.0199737081756,0.00772316716123,1.0,0.0,0.0,0.0,1.0,0.0,0.0,0.0,1.0,0.0347277832031,-0.572409667969,10.019564209,0.1,0.0,0.0,0.0,0.1,0.0,0.0,0.0,0.1
1446040717750211655,319,1446040717746856927,robocape,3.24257833818,5.50221927249,33.7877146338,0.0,10.0,0.0,0.0,0.0,10.0,0.0,0.0,0.0,10.0,0.00559263828917,0.0198405501211,0.00732369299772,1.0,0.0,0.0,0.0,1.0,0.0,0.0,0.0,1.0,0.0323327636719,-0.570014648438,10.0435144043,0.1,0.0,0.0,0.0,0.1,0.0,0.0,0.0,0.1
1446040717782987280,320,1446040717779956102,robocape,3.24230283159,5.52707665232,33.708051238,0.0,10.0,0.0,0.0,0.0,10.0,0.0,0.0,0.0,10.0,0.00612527050718,0.0199737081756,0.00732369299772,1.0,0.0,0.0,0.0,1.0,0.0,0.0,0.0,1.0,0.0311352539063,-0.558039550781,10.0495019531,0.1,0.0,0.0,0.0,0.1,0.0,0.0,0.0,0.1
1446040717822965113,321,1446040717819181919,robocape,3.24177535462,5.55139519687,33.6285536559,0.0,10.0,0.0,0.0,0.0,10.0,0.0,0.0,0.0,10.0,0.00599211245268,0.0197073920666,0.00719053494321,1.0,0.0,0.0,0.0,1.0,0.0,0.0,0.0,1.0,0.0395178222656,-0.568817138672,10.0506994629,0.1,0.0,0.0,0.0,0.1,0.0,0.0,0.0,0.1
1446040717849942072,322,1446040717846622943,robocape,3.2397075498,5.57519338903,33.5489909845,0.0,10.0,0.0,0.0,0.0,10.0,0.0,0.0,0.0,10.0,0.00519316412565,0.0194410759576,0.00692421883421,1.0,0.0,0.0,0.0,1.0,0.0,0.0,0.0,1.0,0.0311352539063,-0.554447021484,10.075847168,0.1,0.0,0.0,0.0,0.1,0.0,0.0,0.0,0.1
1446040717883316405,323,1446040717879874944,robocape,3.23720915845,5.60017263602,33.470363686,0.0,10.0,0.0,0.0,0.0,10.0,0.0,0.0,0.0,10.0,0.00492684801665,0.0201068662301,0.00719053494321,1.0,0.0,0.0,0.0,1.0,0.0,0.0,0.0,1.0,0.009580078125,-0.549656982422,10.0506994629,0.1,0.0,0.0,0.0,0.1,0.0,0.0,0.0,0.1
1446040717916645988,324,1446040717913450956,robocape,3.23471737329,5.6246121313,33.3918902869,0.0,10.0,0.0,0.0,0.0,10.0,0.0,0.0,0.0,10.0,0.00492684801665,0.0198405501211,0.00705737688871,1.0,0.0,0.0,0.0,1.0,0.0,0.0,0.0,1.0,0.0407153320313,-0.573607177734,10.0375268555,0.1,0.0,0.0,0.0,0.1,0.0,0.0,0.0,0.1
1446040717949986697,325,1446040717946691036,robocape,3.23269587151,5.64880060799,33.3131102672,0.0,10.0,0.0,0.0,0.0,10.0,0.0,0.0,0.0,10.0,0.00519316412565,0.0197073920666,0.0066579027252,1.0,0.0,0.0,0.0,1.0,0.0,0.0,0.0,1.0,0.0299377441406,-0.573607177734,10.0411193848,0.1,0.0,0.0,0.0,0.1,0.0,0.0,0.0,0.1
1446040717982975238,326,1446040717979995012,robocape,3.23305096695,5.67288956421,33.2354296461,0.0,10.0,0.0,0.0,0.0,10.0,0.0,0.0,0.0,10.0,0.00639158661619,0.0197073920666,0.00705737688871,1.0,0.0,0.0,0.0,1.0,0.0,0.0,0.0,1.0,0.0215551757813,-0.573607177734,10.0590820312,0.1,0.0,0.0,0.0,0.1,0.0,0.0,0.0,0.1
1446040718016379738,327,1446040718013380050,robocape,3.23144421136,5.69664415785,33.1586138266,0.0,10.0,0.0,0.0,0.0,10.0,0.0,0.0,0.0,10.0,0.00532632218016,0.0195742340121,0.00732369299772,1.0,0.0,0.0,0.0,1.0,0.0,0.0,0.0,1.0,0.0251477050781,-0.565224609375,10.0435144043,0.1,0.0,0.0,0.0,0.1,0.0,0.0,0.0,0.1
1446040718050918238,328,1446040718047532081,robocape,3.22965423643,5.71955928494,33.0826300308,0.0,10.0,0.0,0.0,0.0,10.0,0.0,0.0,0.0,10.0,0.00519316412565,0.0191747598486,0.00759000910673,1.0,0.0,0.0,0.0,1.0,0.0,0.0,0.0,1.0,0.0311352539063,-0.568817138672,10.0459094238,0.1,0.0,0.0,0.0,0.1,0.0,0.0,0.0,0.1
1446040718083011447,329,1446040718080008983,robocape,3.22759362379,5.7422110773,33.006558246,0.0,10.0,0.0,0.0,0.0,10.0,0.0,0.0,0.0,10.0,0.00506000607115,0.0190416017941,0.00732369299772,1.0,0.0,0.0,0.0,1.0,0.0,0.0,0.0,1.0,0.0335302734375,-0.568817138672,10.0375268555,0.1,0.0,0.0,0.0,0.1,0.0,0.0,0.0,0.1
1446040718116498905,330,1446040718113493919,robocape,3.22653450142,5.76611651982,32.9304546558,0.0,10.0,0.0,0.0,0.0,10.0,0.0,0.0,0.0,10.0,0.00559263828917,0.0197073920666,0.00705737688871,1.0,0.0,0.0,0.0,1.0,0.0,0.0,0.0,1.0,0.0371228027344,-0.579594726562,10.0638720703,0.1,0.0,0.0,0.0,0.1,0.0,0.0,0.0,0.1
1446040718149821405,331,1446040718146646976,robocape,3.22593796932,5.7892687063,32.8540027553,0.0,10.0,0.0,0.0,0.0,10.0,0.0,0.0,0.0,10.0,0.00585895439817,0.0193079179031,0.0066579027252,1.0,0.0,0.0,0.0,1.0,0.0,0.0,0.0,1.0,0.0383203125,-0.584384765625,10.0674645996,0.1,0.0,0.0,0.0,0.1,0.0,0.0,0.0,0.1
1446040718183205197,332,1446040718180141925,robocape,3.22596710705,5.81331876938,32.7789149156,0.0,10.0,0.0,0.0,0.0,10.0,0.0,0.0,0.0,10.0,0.00612527050718,0.0198405501211,0.00719053494321,1.0,0.0,0.0,0.0,1.0,0.0,0.0,0.0,1.0,0.0407153320313,-0.584384765625,10.0471069336,0.1,0.0,0.0,0.0,0.1,0.0,0.0,0.0,0.1
1446040718216569572,333,1446040718213483095,robocape,3.2259708125,5.83659870996,32.7037069173,0.0,10.0,0.0,0.0,0.0,10.0,0.0,0.0,0.0,10.0,0.00612527050718,0.0194410759576,0.00692421883421,1.0,0.0,0.0,0.0,1.0,0.0,0.0,0.0,1.0,0.0395178222656,-0.572409667969,10.0447119141,0.1,0.0,0.0,0.0,0.1,0.0,0.0,0.0,0.1
1446040718249866697,334,1446040718246623992,robocape,3.22473330887,5.8610975536,32.6289335216,0.0,10.0,0.0,0.0,0.0,10.0,0.0,0.0,0.0,10.0,0.00545948023466,0.0201068662301,0.00692421883421,1.0,0.0,0.0,0.0,1.0,0.0,0.0,0.0,1.0,0.0323327636719,-0.564027099609,10.0411193848,0.1,0.0,0.0,0.0,0.1,0.0,0.0,0.0,0.1
1446040718283061780,335,1446040718279998064,robocape,3.22277941757,5.88401528756,32.5547101517,0.0,10.0,0.0,0.0,0.0,10.0,0.0,0.0,0.0,10.0,0.00506000607115,0.0193079179031,0.00705737688871,1.0,0.0,0.0,0.0,1.0,0.0,0.0,0.0,1.0,0.0167651367188,-0.566422119141,10.0483044434,0.1,0.0,0.0,0.0,0.1,0.0,0.0,0.0,0.1
1446040718316664739,336,1446040718313602924,robocape,3.22136258486,5.9076470402,32.4808869439,0.0,10.0,0.0,0.0,0.0,10.0,0.0,0.0,0.0,10.0,0.00532632218016,0.0197073920666,0.00705737688871,1.0,0.0,0.0,0.0,1.0,0.0,0.0,0.0,1.0,0.0311352539063,-0.564027099609,10.0327368164,0.1,0.0,0.0,0.0,0.1,0.0,0.0,0.0,0.1
1446040718349748405,337,1446040718346632957,robocape,3.22022450859,5.93098064656,32.4074203436,0.0,10.0,0.0,0.0,0.0,10.0,0.0,0.0,0.0,10.0,0.00545948023466,0.0195742340121,0.00705737688871,1.0,0.0,0.0,0.0,1.0,0.0,0.0,0.0,1.0,0.028740234375,-0.581989746094,10.039921875,0.1,0.0,0.0,0.0,0.1,0.0,0.0,0.0,0.1
1446040718383331197,338,1446040718379968881,robocape,3.21968834765,5.95396563249,32.3350114456,0.0,10.0,0.0,0.0,0.0,10.0,0.0,0.0,0.0,10.0,0.00572579634367,0.0194410759576,0.00745685105222,1.0,0.0,0.0,0.0,1.0,0.0,0.0,0.0,1.0,0.0383203125,-0.567619628906,10.0375268555,0.1,0.0,0.0,0.0,0.1,0.0,0.0,0.0,0.1
1446040718416370655,339,1446040718413305997,robocape,3.2183697271,5.97744682078,32.2625146789,0.0,10.0,0.0,0.0,0.0,10.0,0.0,0.0,0.0,10.0,0.00532632218016,0.0197073920666,0.00719053494321,1.0,0.0,0.0,0.0,1.0,0.0,0.0,0.0,1.0,0.0371228027344,-0.577199707031,10.0339343262,0.1,0.0,0.0,0.0,0.1,0.0,0.0,0.0,0.1
1446040718449735405,340,1446040718446651935,robocape,3.21661678097,6.00084873593,32.1908473912,0.0,10.0,0.0,0.0,0.0,10.0,0.0,0.0,0.0,10.0,0.00506000607115,0.0197073920666,0.00745685105222,1.0,0.0,0.0,0.0,1.0,0.0,0.0,0.0,1.0,0.0311352539063,-0.565224609375,10.0459094238,0.1,0.0,0.0,0.0,0.1,0.0,0.0,0.0,0.1
1446040718483088405,341,1446040718480133056,robocape,3.21583301384,6.02425748942,32.1188237233,0.0,10.0,0.0,0.0,0.0,10.0,0.0,0.0,0.0,10.0,0.00559263828917,0.0197073920666,0.00705737688871,1.0,0.0,0.0,0.0,1.0,0.0,0.0,0.0,1.0,0.0239501953125,-0.570014648438,10.0363293457,0.1,0.0,0.0,0.0,0.1,0.0,0.0,0.0,0.1
1446040718516322447,342,1446040718513310909,robocape,3.21410598823,6.04733501207,32.0476169327,0.0,10.0,0.0,0.0,0.0,10.0,0.0,0.0,0.0,10.0,0.00506000607115,0.0195742340121,0.00732369299772,1.0,0.0,0.0,0.0,1.0,0.0,0.0,0.0,1.0,0.028740234375,-0.585582275391,10.0495019531,0.1,0.0,0.0,0.0,0.1,0.0,0.0,0.0,0.1
1446040718549964739,343,1446040718546951055,robocape,3.21205429581,6.06993241277,31.9757972694,0.0,10.0,0.0,0.0,0.0,10.0,0.0,0.0,0.0,10.0,0.00492684801665,0.0193079179031,0.0067910607797,1.0,0.0,0.0,0.0,1.0,0.0,0.0,0.0,1.0,0.0239501953125,-0.567619628906,10.0435144043,0.1,0.0,0.0,0.0,0.1,0.0,0.0,0.0,0.1
1446040718583305280,344,1446040718580302000,robocape,3.21314593418,6.09294148511,31.905044387,0.0,10.0,0.0,0.0,0.0,10.0,0.0,0.0,0.0,10.0,0.00652474467069,0.0195742340121,0.00719053494321,1.0,0.0,0.0,0.0,1.0,0.0,0.0,0.0,1.0,0.0263452148438,-0.570014648438,10.0459094238,0.1,0.0,0.0,0.0,0.1,0.0,0.0,0.0,0.1
1446040718616278030,345,1446040718613272905,robocape,3.2133755436,6.1162472064,31.833471026,0.0,10.0,0.0,0.0,0.0,10.0,0.0,0.0,0.0,10.0,0.00612527050718,0.0197073920666,0.00652474467069,1.0,0.0,0.0,0.0,1.0,0.0,0.0,0.0,1.0,0.0203576660156,-0.55564453125,10.060279541,0.1,0.0,0.0,0.0,0.1,0.0,0.0,0.0,0.1
1446040718649900364,346,1446040718646811962,robocape,3.21364802148,6.13873517399,31.7624496076,0.0,10.0,0.0,0.0,0.0,10.0,0.0,0.0,0.0,10.0,0.00612527050718,0.0193079179031,0.0066579027252,1.0,0.0,0.0,0.0,1.0,0.0,0.0,0.0,1.0,0.0359252929688,-0.570014648438,10.0255517578,0.1,0.0,0.0,0.0,0.1,0.0,0.0,0.0,0.1
1446040718683004905,347,1446040718680025100,robocape,3.21247217982,6.16215844473,31.692288666,0.0,10.0,0.0,0.0,0.0,10.0,0.0,0.0,0.0,10.0,0.00532632218016,0.0198405501211,0.00692421883421,1.0,0.0,0.0,0.0,1.0,0.0,0.0,0.0,1.0,0.028740234375,-0.568817138672,10.0447119141,0.1,0.0,0.0,0.0,0.1,0.0,0.0,0.0,0.1
1446040718716484905,348,1446040718713361024,robocape,3.21157468042,6.18579059335,31.6224742987,0.0,10.0,0.0,0.0,0.0,10.0,0.0,0.0,0.0,10.0,0.00545948023466,0.0199737081756,0.00692421883421,1.0,0.0,0.0,0.0,1.0,0.0,0.0,0.0,1.0,0.028740234375,-0.558039550781,10.0315393066,0.1,0.0,0.0,0.0,0.1,0.0,0.0,0.0,0.1
1446040718749898072,349,1446040718746793985,robocape,3.21155715607,6.20855196477,31.5539052683,0.0,10.0,0.0,0.0,0.0,10.0,0.0,0.0,0.0,10.0,0.00585895439817,0.0195742340121,0.00745685105222,1.0,0.0,0.0,0.0,1.0,0.0,0.0,0.0,1.0,0.0323327636719,-0.571212158203,10.0674645996,0.1,0.0,0.0,0.0,0.1,0.0,0.0,0.0,0.1
1446040718783030405,350,1446040718779972076,robocape,3.21199520157,6.23182872624,31.4849753865,0.0,10.0,0.0,0.0,0.0,10.0,0.0,0.0,0.0,10.0,0.00612527050718,0.0198405501211,0.00705737688871,1.0,0.0,0.0,0.0,1.0,0.0,0.0,0.0,1.0,0.0299377441406,-0.560434570312,10.075847168,0.1,0.0,0.0,0.0,0.1,0.0,0.0,0.0,0.1
1446040718820803614,351,1446040718817621946,robocape,3.21136271942,6.25460962228,31.4156490272,0.0,10.0,0.0,0.0,0.0,10.0,0.0,0.0,0.0,10.0,0.00559263828917,0.0195742340121,0.0066579027252,1.0,0.0,0.0,0.0,1.0,0.0,0.0,0.0,1.0,0.0395178222656,-0.559237060547,10.0710571289,0.1,0.0,0.0,0.0,0.1,0.0,0.0,0.0,0.1
1446040718854641239,352,1446040718851443052,robocape,3.20983851291,6.27728011018,31.3476001563,0.0,10.0,0.0,0.0,0.0,10.0,0.0,0.0,0.0,10.0,0.00506000607115,0.0195742340121,0.00719053494321,1.0,0.0,0.0,0.0,1.0,0.0,0.0,0.0,1.0,0.0311352539063,-0.561632080078,10.0375268555,0.1,0.0,0.0,0.0,0.1,0.0,0.0,0.0,0.1
1446040718883329155,353,1446040718880022048,robocape,3.2080862965,6.30016157605,31.2798845168,0.0,10.0,0.0,0.0,0.0,10.0,0.0,0.0,0.0,10.0,0.00492684801665,0.0197073920666,0.00719053494321,1.0,0.0,0.0,0.0,1.0,0.0,0.0,0.0,1.0,0.0251477050781,-0.567619628906,10.0614770508,0.1,0.0,0.0,0.0,0.1,0.0,0.0,0.0,0.1
1446040718916489364,354,1446040718913289070,robocape,3.20676323933,6.32231227967,31.2115110255,0.0,10.0,0.0,0.0,0.0,10.0,0.0,0.0,0.0,10.0,0.00519316412565,0.0193079179031,0.0066579027252,1.0,0.0,0.0,0.0,1.0,0.0,0.0,0.0,1.0,0.0311352539063,-0.579594726562,10.0662670898,0.1,0.0,0.0,0.0,0.1,0.0,0.0,0.0,0.1
1446040718950040197,355,1446040718946822881,robocape,3.20650704688,6.34541631984,31.1437333554,0.0,10.0,0.0,0.0,0.0,10.0,0.0,0.0,0.0,10.0,0.00572579634367,0.0198405501211,0.0067910607797,1.0,0.0,0.0,0.0,1.0,0.0,0.0,0.0,1.0,0.0335302734375,-0.553249511719,10.0566870117,0.1,0.0,0.0,0.0,0.1,0.0,0.0,0.0,0.1
1446040718983071156,356,1446040718980103969,robocape,3.20682889614,6.36819149377,31.0767352569,0.0,10.0,0.0,0.0,0.0,10.0,0.0,0.0,0.0,10.0,0.00599211245268,0.0197073920666,0.00705737688871,1.0,0.0,0.0,0.0,1.0,0.0,0.0,0.0,1.0,0.0143701171875,-0.567619628906,10.0674645996,0.1,0.0,0.0,0.0,0.1,0.0,0.0,0.0,0.1
1446040719016357447,357,1446040719013348102,robocape,3.2069175721,6.3911784896,31.0100619875,0.0,10.0,0.0,0.0,0.0,10.0,0.0,0.0,0.0,10.0,0.00585895439817,0.0198405501211,0.00705737688871,1.0,0.0,0.0,0.0,1.0,0.0,0.0,0.0,1.0,0.0143701171875,-0.571212158203,10.0471069336,0.1,0.0,0.0,0.0,0.1,0.0,0.0,0.0,0.1
1446040719052238572,358,1446040719048702001,robocape,3.20649114383,6.41338381201,30.9434345283,0.0,10.0,0.0,0.0,0.0,10.0,0.0,0.0,0.0,10.0,0.00559263828917,0.0194410759576,0.00692421883421,1.0,0.0,0.0,0.0,1.0,0.0,0.0,0.0,1.0,0.0299377441406,-0.571212158203,10.0351318359,0.1,0.0,0.0,0.0,0.1,0.0,0.0,0.0,0.1
1446040719085918572,359,1446040719082459926,robocape,3.20482174006,6.43655997934,30.8771615653,0.0,10.0,0.0,0.0,0.0,10.0,0.0,0.0,0.0,10.0,0.00492684801665,0.0199737081756,0.00692421883421,1.0,0.0,0.0,0.0,1.0,0.0,0.0,0.0,1.0,0.0359252929688,-0.565224609375,10.060279541,0.1,0.0,0.0,0.0,0.1,0.0,0.0,0.0,0.1
1446040719121346947,360,1446040719118113994,robocape,3.20345492838,6.45942397395,30.8114212827,0.0,10.0,0.0,0.0,0.0,10.0,0.0,0.0,0.0,10.0,0.00506000607115,0.0198405501211,0.00705737688871,1.0,0.0,0.0,0.0,1.0,0.0,0.0,0.0,1.0,0.0359252929688,-0.564027099609,10.0542919922,0.1,0.0,0.0,0.0,0.1,0.0,0.0,0.0,0.1
1446040719153666572,361,1446040719150067090,robocape,3.2023131535,6.48228120255,30.7455098044,0.0,10.0,0.0,0.0,0.0,10.0,0.0,0.0,0.0,10.0,0.00519316412565,0.0198405501211,0.0067910607797,1.0,0.0,0.0,0.0,1.0,0.0,0.0,0.0,1.0,0.0359252929688,-0.566422119141,10.0734521484,0.1,0.0,0.0,0.0,0.1,0.0,0.0,0.0,0.1
1446040719185093114,362,1446040719181891918,robocape,3.2026909167,6.50561975661,30.6796802326,0.0,10.0,0.0,0.0,0.0,10.0,0.0,0.0,0.0,10.0,0.00599211245268,0.0201068662301,0.0066579027252,1.0,0.0,0.0,0.0,1.0,0.0,0.0,0.0,1.0,0.028740234375,-0.572409667969,10.0411193848,0.1,0.0,0.0,0.0,0.1,0.0,0.0,0.0,0.1
1446040719217947072,363,1446040719214770078,robocape,3.20209672064,6.52814184215,30.6143630573,0.0,10.0,0.0,0.0,0.0,10.0,0.0,0.0,0.0,10.0,0.00545948023466,0.0197073920666,0.0067910607797,1.0,0.0,0.0,0.0,1.0,0.0,0.0,0.0,1.0,0.0311352539063,-0.553249511719,10.0506994629,0.1,0.0,0.0,0.0,0.1,0.0,0.0,0.0,0.1
1446040719251130822,364,1446040719247934103,robocape,3.20149755755,6.55064143231,30.5491078974,0.0,10.0,0.0,0.0,0.0,10.0,0.0,0.0,0.0,10.0,0.00545948023466,0.0197073920666,0.0066579027252,1.0,0.0,0.0,0.0,1.0,0.0,0.0,0.0,1.0,0.0263452148438,-0.560434570312,10.0518969727,0.1,0.0,0.0,0.0,0.1,0.0,0.0,0.0,0.1
1446040719284249031,365,1446040719281110048,robocape,3.19978191125,6.57250973473,30.4853211588,0.0,10.0,0.0,0.0,0.0,10.0,0.0,0.0,0.0,10.0,0.00479368996214,0.0194410759576,0.00732369299772,1.0,0.0,0.0,0.0,1.0,0.0,0.0,0.0,1.0,0.0335302734375,-0.553249511719,10.0423168945,0.1,0.0,0.0,0.0,0.1,0.0,0.0,0.0,0.1
1446040719317737864,366,1446040719314546108,robocape,3.19913186035,6.59457449289,30.4220694758,0.0,10.0,0.0,0.0,0.0,10.0,0.0,0.0,0.0,10.0,0.00532632218016,0.0195742340121,0.00745685105222,1.0,0.0,0.0,0.0,1.0,0.0,0.0,0.0,1.0,0.0419128417969,-0.562829589844,10.0303417969,0.1,0.0,0.0,0.0,0.1,0.0,0.0,0.0,0.1
1446040719351306447,367,1446040719348045110,robocape,3.19816987553,6.61665241621,30.3583936111,0.0,10.0,0.0,0.0,0.0,10.0,0.0,0.0,0.0,10.0,0.00519316412565,0.0195742340121,0.00705737688871,1.0,0.0,0.0,0.0,1.0,0.0,0.0,0.0,1.0,0.0239501953125,-0.567619628906,10.0351318359,0.1,0.0,0.0,0.0,0.1,0.0,0.0,0.0,0.1
1446040719384259781,368,1446040719380703926,robocape,3.19692960202,6.64074634,30.2946118247,0.0,10.0,0.0,0.0,0.0,10.0,0.0,0.0,0.0,10.0,0.00506000607115,0.0206394984481,0.0067910607797,1.0,0.0,0.0,0.0,1.0,0.0,0.0,0.0,1.0,0.0299377441406,-0.566422119141,10.0518969727,0.1,0.0,0.0,0.0,0.1,0.0,0.0,0.0,0.1
1446040719417965156,369,1446040719414757013,robocape,3.19768325619,6.66407349372,30.2306052958,0.0,10.0,0.0,0.0,0.0,10.0,0.0,0.0,0.0,10.0,0.00612527050718,0.0202400242846,0.00652474467069,1.0,0.0,0.0,0.0,1.0,0.0,0.0,0.0,1.0,0.0359252929688,-0.566422119141,10.0459094238,0.1,0.0,0.0,0.0,0.1,0.0,0.0,0.0,0.1
1446040719451187447,370,1446040719447957992,robocape,3.19734477743,6.68649819206,30.168286859,0.0,10.0,0.0,0.0,0.0,10.0,0.0,0.0,0.0,10.0,0.00545948023466,0.0198405501211,0.00732369299772,1.0,0.0,0.0,0.0,1.0,0.0,0.0,0.0,1.0,0.028740234375,-0.573607177734,10.060279541,0.1,0.0,0.0,0.0,0.1,0.0,0.0,0.0,0.1
1446040719484888239,371,1446040719481630086,robocape,3.19744903856,6.70792560799,30.105493231,0.0,10.0,0.0,0.0,0.0,10.0,0.0,0.0,0.0,10.0,0.00572579634367,0.0193079179031,0.00692421883421,1.0,0.0,0.0,0.0,1.0,0.0,0.0,0.0,1.0,0.0215551757813,-0.570014648438,10.060279541,0.1,0.0,0.0,0.0,0.1,0.0,0.0,0.0,0.1
1446040719517771656,372,1446040719514532089,robocape,3.19785488711,6.72980430751,30.0432386201,0.0,10.0,0.0,0.0,0.0,10.0,0.0,0.0,0.0,10.0,0.00585895439817,0.0195742340121,0.00705737688871,1.0,0.0,0.0,0.0,1.0,0.0,0.0,0.0,1.0,0.0347277832031,-0.564027099609,10.0483044434,0.1,0.0,0.0,0.0,0.1,0.0,0.0,0.0,0.1
1446040719551355906,373,1446040719548218011,robocape,3.19777010899,6.75114064808,29.9812438993,0.0,10.0,0.0,0.0,0.0,10.0,0.0,0.0,0.0,10.0,0.00559263828917,0.0193079179031,0.00705737688871,1.0,0.0,0.0,0.0,1.0,0.0,0.0,0.0,1.0,0.0323327636719,-0.562829589844,10.0279467773,0.1,0.0,0.0,0.0,0.1,0.0,0.0,0.0,0.1
1446040719584004406,374,1446040719580804109,robocape,3.19787831963,6.77299792555,29.9188308125,0.0,10.0,0.0,0.0,0.0,10.0,0.0,0.0,0.0,10.0,0.00572579634367,0.0195742340121,0.0066579027252,1.0,0.0,0.0,0.0,1.0,0.0,0.0,0.0,1.0,0.0311352539063,-0.561632080078,10.0339343262,0.1,0.0,0.0,0.0,0.1,0.0,0.0,0.0,0.1
1446040719617980656,375,1446040719614856958,robocape,3.19831106028,6.79402585473,29.85714066,0.0,10.0,0.0,0.0,0.0,10.0,0.0,0.0,0.0,10.0,0.00585895439817,0.0191747598486,0.00692421883421,1.0,0.0,0.0,0.0,1.0,0.0,0.0,0.0,1.0,0.0275427246094,-0.570014648438,10.0435144043,0.1,0.0,0.0,0.0,0.1,0.0,0.0,0.0,0.1
1446040719654847239,376,1446040719651609897,robocape,3.19879126425,6.8155063345,29.795982733,0.0,10.0,0.0,0.0,0.0,10.0,0.0,0.0,0.0,10.0,0.00585895439817,0.0194410759576,0.00705737688871,1.0,0.0,0.0,0.0,1.0,0.0,0.0,0.0,1.0,0.0251477050781,-0.570014648438,10.0447119141,0.1,0.0,0.0,0.0,0.1,0.0,0.0,0.0,0.1
1446040719686712156,377,1446040719683633089,robocape,3.20002498201,6.83772536308,29.7348848942,0.0,10.0,0.0,0.0,0.0,10.0,0.0,0.0,0.0,10.0,0.00625842856169,0.0198405501211,0.00692421883421,1.0,0.0,0.0,0.0,1.0,0.0,0.0,0.0,1.0,0.0203576660156,-0.566422119141,10.0518969727,0.1,0.0,0.0,0.0,0.1,0.0,0.0,0.0,0.1
1446040719720608989,378,1446040719717386007,robocape,3.20048499868,6.85967167213,29.6738101184,0.0,10.0,0.0,0.0,0.0,10.0,0.0,0.0,0.0,10.0,0.00585895439817,0.0197073920666,0.0067910607797,1.0,0.0,0.0,0.0,1.0,0.0,0.0,0.0,1.0,0.0131726074219,-0.570014648438,10.039921875,0.1,0.0,0.0,0.0,0.1,0.0,0.0,0.0,0.1
1446040719750789239,379,1446040719747718095,robocape,3.20183432707,6.8815110471,29.6139553948,0.0,10.0,0.0,0.0,0.0,10.0,0.0,0.0,0.0,10.0,0.00625842856169,0.0197073920666,0.00732369299772,1.0,0.0,0.0,0.0,1.0,0.0,0.0,0.0,1.0,0.0263452148438,-0.578397216797,10.0578845215,0.1,0.0,0.0,0.0,0.1,0.0,0.0,0.0,0.1
1446040719783741948,380,1446040719780635118,robocape,3.20125835514,6.90392317711,29.5529569498,0.0,10.0,0.0,0.0,0.0,10.0,0.0,0.0,0.0,10.0,0.00532632218016,0.0199737081756,0.00652474467069,1.0,0.0,0.0,0.0,1.0,0.0,0.0,0.0,1.0,0.0239501953125,-0.561632080078,10.0566870117,0.1,0.0,0.0,0.0,0.1,0.0,0.0,0.0,0.1
1446040719818754406,381,1446040719815361022,robocape,3.20134819608,6.92595709757,29.4934059006,0.0,10.0,0.0,0.0,0.0,10.0,0.0,0.0,0.0,10.0,0.00559263828917,0.0198405501211,0.00719053494321,1.0,0.0,0.0,0.0,1.0,0.0,0.0,0.0,1.0,0.0263452148438,-0.571212158203,10.0459094238,0.1,0.0,0.0,0.0,0.1,0.0,0.0,0.0,0.1
1446040719851478239,382,1446040719848268985,robocape,3.20156827585,6.94778812998,29.4329097521,0.0,10.0,0.0,0.0,0.0,10.0,0.0,0.0,0.0,10.0,0.00572579634367,0.0197073920666,0.00652474467069,1.0,0.0,0.0,0.0,1.0,0.0,0.0,0.0,1.0,0.028740234375,-0.564027099609,10.0387243652,0.1,0.0,0.0,0.0,0.1,0.0,0.0,0.0,0.1
1446040719883782364,383,1446040719880667924,robocape,3.20281864639,6.96907756859,29.3726534059,0.0,10.0,0.0,0.0,0.0,10.0,0.0,0.0,0.0,10.0,0.00625842856169,0.0194410759576,0.00652474467069,1.0,0.0,0.0,0.0,1.0,0.0,0.0,0.0,1.0,0.0215551757813,-0.565224609375,10.0459094238,0.1,0.0,0.0,0.0,0.1,0.0,0.0,0.0,0.1
1446040719917231989,384,1446040719914145946,robocape,3.20199934477,6.99036725697,29.3121864972,0.0,10.0,0.0,0.0,0.0,10.0,0.0,0.0,0.0,10.0,0.00519316412565,0.0194410759576,0.00625842856169,1.0,0.0,0.0,0.0,1.0,0.0,0.0,0.0,1.0,0.0395178222656,-0.566422119141,10.0495019531,0.1,0.0,0.0,0.0,0.1,0.0,0.0,0.0,0.1
1446040719950477656,385,1446040719947407960,robocape,3.20159419553,7.01102933346,29.2531545274,0.0,10.0,0.0,0.0,0.0,10.0,0.0,0.0,0.0,10.0,0.00532632218016,0.0191747598486,0.00692421883421,1.0,0.0,0.0,0.0,1.0,0.0,0.0,0.0,1.0,0.0383203125,-0.577199707031,10.0303417969,0.1,0.0,0.0,0.0,0.1,0.0,0.0,0.0,0.1
1446040719984730281,386,1446040719981441020,robocape,3.20152181696,7.03237968944,29.1948844475,0.0,10.0,0.0,0.0,0.0,10.0,0.0,0.0,0.0,10.0,0.00545948023466,0.0195742340121,0.00719053494321,1.0,0.0,0.0,0.0,1.0,0.0,0.0,0.0,1.0,0.0371228027344,-0.570014648438,10.0411193848,0.1,0.0,0.0,0.0,0.1,0.0,0.0,0.0,0.1
1446040720017867281,387,1446040720014437913,robocape,3.20166679882,7.05448641835,29.1364157103,0.0,10.0,0.0,0.0,0.0,10.0,0.0,0.0,0.0,10.0,0.00559263828917,0.0199737081756,0.00692421883421,1.0,0.0,0.0,0.0,1.0,0.0,0.0,0.0,1.0,0.0311352539063,-0.561632080078,10.055489502,0.1,0.0,0.0,0.0,0.1,0.0,0.0,0.0,0.1
1446040720053318198,388,1446040720050066947,robocape,3.20166343377,7.07700804911,29.0789351171,0.0,10.0,0.0,0.0,0.0,10.0,0.0,0.0,0.0,10.0,0.00545948023466,0.0202400242846,0.00732369299772,1.0,0.0,0.0,0.0,1.0,0.0,0.0,0.0,1.0,0.0275427246094,-0.570014648438,10.0770446777,0.1,0.0,0.0,0.0,0.1,0.0,0.0,0.0,0.1
1446040720086516114,389,1446040720083096027,robocape,3.20094278451,7.09871624983,29.0219106971,0.0,10.0,0.0,0.0,0.0,10.0,0.0,0.0,0.0,10.0,0.00506000607115,0.0198405501211,0.00745685105222,1.0,0.0,0.0,0.0,1.0,0.0,0.0,0.0,1.0,0.0239501953125,-0.576002197266,10.0530944824,0.1,0.0,0.0,0.0,0.1,0.0,0.0,0.0,0.1
1446040720121000239,390,1446040720117806911,robocape,3.20043270278,7.11916042104,28.9645995425,0.0,10.0,0.0,0.0,0.0,10.0,0.0,0.0,0.0,10.0,0.00519316412565,0.0191747598486,0.00719053494321,1.0,0.0,0.0,0.0,1.0,0.0,0.0,0.0,1.0,0.0383203125,-0.568817138672,10.0518969727,0.1,0.0,0.0,0.0,0.1,0.0,0.0,0.0,0.1
