%time,field.header.seq,field.header.stamp,field.header.frame_id,field.orientation.x,field.orientation.y,field.orientation.z,field.orientation.w,field.orientation_covariance0,field.orientation_covariance1,field.orientation_covariance2,field.orientation_covariance3,field.orientation_covariance4,field.orientation_covariance5,field.orientation_covariance6,field.orientation_covariance7,field.orientation_covariance8,field.angular_velocity.x,field.angular_velocity.y,field.angular_velocity.z,field.angular_velocity_covariance0,field.angular_velocity_covariance1,field.angular_velocity_covariance2,field.angular_velocity_covariance3,field.angular_velocity_covariance4,field.angular_velocity_covariance5,field.angular_velocity_covariance6,field.angular_velocity_covariance7,field.angular_velocity_covariance8,field.linear_acceleration.x,field.linear_acceleration.y,field.linear_acceleration.z,field.linear_acceleration_covariance0,field.linear_acceleration_covariance1,field.linear_acceleration_covariance2,field.linear_acceleration_covariance3,field.linear_acceleration_covariance4,field.linear_acceleration_covariance5,field.linear_acceleration_covariance6,field.linear_acceleration_covariance7,field.linear_acceleration_covariance8
1446036228199020010,1,1446036227837923049,robocape,2.02615207273,9.14141790499,2.02615207273,0.0,10.0,0.0,0.0,0.0,10.0,0.0,0.0,0.0,10.0,0.00199737081756,0.0256995045193,0.00692421883421,1.0,0.0,0.0,0.0,1.0,0.0,0.0,0.0,1.0,0.0658630371094,0.658630371094,10.0267492676,0.1,0.0,0.0,0.0,0.1,0.0,0.0,0.0,0.1
1446036228223827301,2,1446036227872811079,robocape,2.03195679512,9.16869863967,2.03195679512,0.0,10.0,0.0,0.0,0.0,10.0,0.0,0.0,0.0,10.0,0.00732369299772,0.0256995045193,0.00772316716123,1.0,0.0,0.0,0.0,1.0,0.0,0.0,0.0,1.0,0.0634680175781,0.643062744141,10.0363293457,0.1,0.0,0.0,0.0,0.1,0.0,0.0,0.0,0.1
1446036228228319468,3,1446036227900473117,robocape,2.04233110474,9.19669552074,2.04233110474,0.0,10.0,0.0,0.0,0.0,10.0,0.0,0.0,0.0,10.0,0.00972053797879,0.0260989786828,0.00772316716123,1.0,0.0,0.0,0.0,1.0,0.0,0.0,0.0,1.0,0.0694555664063,0.665815429688,10.024354248,0.1,0.0,0.0,0.0,0.1,0.0,0.0,0.0,0.1
1446036228233548010,4,1446036227932101011,robocape,2.05376647276,9.22320572011,2.05376647276,0.0,10.0,0.0,0.0,0.0,10.0,0.0,0.0,0.0,10.0,0.0103863282513,0.0253000303558,0.00705737688871,1.0,0.0,0.0,0.0,1.0,0.0,0.0,0.0,1.0,0.0562829589844,0.669407958984,10.024354248,0.1,0.0,0.0,0.0,0.1,0.0,0.0,0.0,0.1
1446036228254933260,5,1446036227964754104,robocape,2.06327964958,9.25089531727,2.06327964958,0.0,10.0,0.0,0.0,0.0,10.0,0.0,0.0,0.0,10.0,0.00932106381528,0.0259658206283,0.00745685105222,1.0,0.0,0.0,0.0,1.0,0.0,0.0,0.0,1.0,0.0550854492188,0.70892578125,10.0063916016,0.1,0.0,0.0,0.0,0.1,0.0,0.0,0.0,0.1
1446036228262864885,6,1446036228001638889,robocape,2.06016210145,9.28087028722,2.06016210145,0.0,10.0,0.0,0.0,0.0,10.0,0.0,0.0,0.0,10.0,0.00279631914458,0.0271642431188,0.0067910607797,1.0,0.0,0.0,0.0,1.0,0.0,0.0,0.0,1.0,0.0634680175781,0.702938232422,10.0506994629,0.1,0.0,0.0,0.0,0.1,0.0,0.0,0.0,0.1
1446036228267963177,7,1446036228030194997,robocape,2.05167518983,9.3092091709,2.05167518983,0.0,10.0,0.0,0.0,0.0,10.0,0.0,0.0,0.0,10.0,-0.000133158054504,0.0263652947918,0.00745685105222,1.0,0.0,0.0,0.0,1.0,0.0,0.0,0.0,1.0,0.0622705078125,0.682580566406,10.0459094238,0.1,0.0,0.0,0.0,0.1,0.0,0.0,0.0,0.1
1446036228268600635,8,1446036228064676046,robocape,2.04451027263,9.33858822805,2.04451027263,0.0,10.0,0.0,0.0,0.0,10.0,0.0,0.0,0.0,10.0,0.00066579027252,0.0268979270098,0.0066579027252,1.0,0.0,0.0,0.0,1.0,0.0,0.0,0.0,1.0,0.05748046875,0.640667724609,10.0219592285,0.1,0.0,0.0,0.0,0.1,0.0,0.0,0.0,0.1
1446036228269074343,9,1446036228097970962,robocape,2.04881020555,9.36555982518,2.04881020555,0.0,10.0,0.0,0.0,0.0,10.0,0.0,0.0,0.0,10.0,0.00652474467069,0.0256995045193,0.00759000910673,1.0,0.0,0.0,0.0,1.0,0.0,0.0,0.0,1.0,0.0490979003906,0.616717529297,10.0147741699,0.1,0.0,0.0,0.0,0.1,0.0,0.0,0.0,0.1
1446036228269117885,10,1446036228135117053,robocape,2.06017807165,9.39200319334,2.06017807165,0.0,10.0,0.0,0.0,0.0,10.0,0.0,0.0,0.0,10.0,0.0102531701968,0.0254331884103,0.00745685105222,1.0,0.0,0.0,0.0,1.0,0.0,0.0,0.0,1.0,0.0526904296875,0.637075195313,10.0135766602,0.1,0.0,0.0,0.0,0.1,0.0,0.0,0.0,0.1
1446036228282623385,11,1446036228176490068,robocape,2.07737096927,9.41891528776,2.07737096927,0.0,10.0,0.0,0.0,0.0,10.0,0.0,0.0,0.0,10.0,0.0133158054504,0.0256995045193,0.00745685105222,1.0,0.0,0.0,0.0,1.0,0.0,0.0,0.0,1.0,0.0526904296875,0.680185546875,10.024354248,0.1,0.0,0.0,0.0,0.1,0.0,0.0,0.0,0.1
1446036228282709177,12,1446036228206219911,robocape,2.0917091562,9.44655663901,2.0917091562,0.0,10.0,0.0,0.0,0.0,10.0,0.0,0.0,0.0,10.0,0.0118510668509,0.0260989786828,0.00732369299772,1.0,0.0,0.0,0.0,1.0,0.0,0.0,0.0,1.0,0.0455053710938,0.695753173828,10.0231567383,0.1,0.0,0.0,0.0,0.1,0.0,0.0,0.0,0.1
1446036228282813593,13,1446036228233787059,robocape,2.10036422411,9.47342519968,2.10036422411,0.0,10.0,0.0,0.0,0.0,10.0,0.0,0.0,0.0,10.0,0.00892158965177,0.0256995045193,0.00705737688871,1.0,0.0,0.0,0.0,1.0,0.0,0.0,0.0,1.0,0.0598754882813,0.699345703125,10.0207617188,0.1,0.0,0.0,0.0,0.1,0.0,0.0,0.0,0.1
1446036228292698802,14,1446036228272579908,robocape,2.10085457854,9.50051377753,2.10085457854,0.0,10.0,0.0,0.0,0.0,10.0,0.0,0.0,0.0,10.0,0.00466053190764,0.0258326625738,0.00692421883421,1.0,0.0,0.0,0.0,1.0,0.0,0.0,0.0,1.0,0.0658630371094,0.690963134766,10.0219592285,0.1,0.0,0.0,0.0,0.1,0.0,0.0,0.0,0.1
1446036228301731218,15,1446036228298353910,robocape,2.09966568585,9.52904106784,2.09966568585,0.0,10.0,0.0,0.0,0.0,10.0,0.0,0.0,0.0,10.0,0.00372842552611,0.0266316109008,0.00719053494321,1.0,0.0,0.0,0.0,1.0,0.0,0.0,0.0,1.0,0.0550854492188,0.67060546875,10.0231567383,0.1,0.0,0.0,0.0,0.1,0.0,0.0,0.0,0.1
1446036228333920927,16,1446036228330687999,robocape,2.10153690123,9.55726997444,2.10153690123,0.0,10.0,0.0,0.0,0.0,10.0,0.0,0.0,0.0,10.0,0.00532632218016,0.0264984528463,0.00719053494321,1.0,0.0,0.0,0.0,1.0,0.0,0.0,0.0,1.0,0.0550854492188,0.657432861328,10.0542919922,0.1,0.0,0.0,0.0,0.1,0.0,0.0,0.0,0.1
1446036228373646385,17,1446036228364459991,robocape,2.10861128184,9.58465804592,2.10861128184,0.0,10.0,0.0,0.0,0.0,10.0,0.0,0.0,0.0,10.0,0.00798948327024,0.0260989786828,0.00759000910673,1.0,0.0,0.0,0.0,1.0,0.0,0.0,0.0,1.0,0.0514929199219,0.649050292969,10.0387243652,0.1,0.0,0.0,0.0,0.1,0.0,0.0,0.0,0.1
1446036228402730010,18,1446036228399431943,robocape,2.11809932585,9.61229808024,2.11809932585,0.0,10.0,0.0,0.0,0.0,10.0,0.0,0.0,0.0,10.0,0.00932106381528,0.0262321367373,0.00719053494321,1.0,0.0,0.0,0.0,1.0,0.0,0.0,0.0,1.0,0.0598754882813,0.693358154297,10.0315393066,0.1,0.0,0.0,0.0,0.1,0.0,0.0,0.0,0.1
1446036228433337593,19,1446036228430041074,robocape,2.12195372895,9.638898406,2.12195372895,0.0,10.0,0.0,0.0,0.0,10.0,0.0,0.0,0.0,10.0,0.00639158661619,0.0256995045193,0.00705737688871,1.0,0.0,0.0,0.0,1.0,0.0,0.0,0.0,1.0,0.0562829589844,0.706530761719,10.0135766602,0.1,0.0,0.0,0.0,0.1,0.0,0.0,0.0,0.1
1446036228465402760,20,1446036228462460994,robocape,2.117401065,9.66622139116,2.117401065,0.0,10.0,0.0,0.0,0.0,10.0,0.0,0.0,0.0,10.0,0.00199737081756,0.0260989786828,0.00692421883421,1.0,0.0,0.0,0.0,1.0,0.0,0.0,0.0,1.0,0.0514929199219,0.70892578125,10.0099841309,0.1,0.0,0.0,0.0,0.1,0.0,0.0,0.0,0.1
1446036228499116260,21,1446036228495889902,robocape,2.10902526749,9.69350979338,2.10902526749,0.0,10.0,0.0,0.0,0.0,10.0,0.0,0.0,0.0,10.0,0.0,0.0260989786828,0.0067910607797,1.0,0.0,0.0,0.0,1.0,0.0,0.0,0.0,1.0,0.0610729980469,0.671802978516,10.0387243652,0.1,0.0,0.0,0.0,0.1,0.0,0.0,0.0,0.1
1446036228532121802,22,1446036228529040098,robocape,2.10118287536,9.72091927826,2.10118287536,0.0,10.0,0.0,0.0,0.0,10.0,0.0,0.0,0.0,10.0,0.000133158054504,0.0262321367373,0.00759000910673,1.0,0.0,0.0,0.0,1.0,0.0,0.0,0.0,1.0,0.0550854492188,0.659827880859,10.0291442871,0.1,0.0,0.0,0.0,0.1,0.0,0.0,0.0,0.1
1446036228565605302,23,1446036228562536001,robocape,2.09848700364,9.74801820929,2.09848700364,0.0,10.0,0.0,0.0,0.0,10.0,0.0,0.0,0.0,10.0,0.00279631914458,0.0260989786828,0.00772316716123,1.0,0.0,0.0,0.0,1.0,0.0,0.0,0.0,1.0,0.0526904296875,0.637075195313,10.0099841309,0.1,0.0,0.0,0.0,0.1,0.0,0.0,0.0,0.1
1446036228598792677,24,1446036228595685005,robocape,2.10604987098,9.77563726723,2.10604987098,0.0,10.0,0.0,0.0,0.0,10.0,0.0,0.0,0.0,10.0,0.00825579937925,0.0263652947918,0.00719053494321,1.0,0.0,0.0,0.0,1.0,0.0,0.0,0.0,1.0,0.0407153320313,0.643062744141,10.0471069336,0.1,0.0,0.0,0.0,0.1,0.0,0.0,0.0,0.1
1446036228632184052,25,1446036228629100084,robocape,2.12303096815,9.8021132804,2.12303096815,0.0,10.0,0.0,0.0,0.0,10.0,0.0,0.0,0.0,10.0,0.0130494893414,0.0258326625738,0.00812264132474,1.0,0.0,0.0,0.0,1.0,0.0,0.0,0.0,1.0,0.0562829589844,0.653840332031,10.0183666992,0.1,0.0,0.0,0.0,0.1,0.0,0.0,0.0,0.1
1446036228665985302,26,1446036228662910938,robocape,2.13795577951,9.82804517249,2.13795577951,0.0,10.0,0.0,0.0,0.0,10.0,0.0,0.0,0.0,10.0,0.0119842249054,0.0255663464648,0.00812264132474,1.0,0.0,0.0,0.0,1.0,0.0,0.0,0.0,1.0,0.0610729980469,0.696950683594,10.0435144043,0.1,0.0,0.0,0.0,0.1,0.0,0.0,0.0,0.1
1446036228699207177,27,1446036228696233034,robocape,2.14512589975,9.85498354986,2.14512589975,0.0,10.0,0.0,0.0,0.0,10.0,0.0,0.0,0.0,10.0,0.00798948327024,0.0260989786828,0.00772316716123,1.0,0.0,0.0,0.0,1.0,0.0,0.0,0.0,1.0,0.0526904296875,0.688568115234,10.0315393066,0.1,0.0,0.0,0.0,0.1,0.0,0.0,0.0,0.1
1446036228732420718,28,1446036228729433059,robocape,2.14751458154,9.88211394814,2.14751458154,0.0,10.0,0.0,0.0,0.0,10.0,0.0,0.0,0.0,10.0,0.00545948023466,0.0262321367373,0.00785632521573,1.0,0.0,0.0,0.0,1.0,0.0,0.0,0.0,1.0,0.0502954101563,0.667012939453,10.0231567383,0.1,0.0,0.0,0.0,0.1,0.0,0.0,0.0,0.1
1446036228765722385,29,1446036228762540102,robocape,2.15084079674,9.90872503782,2.15084079674,0.0,10.0,0.0,0.0,0.0,10.0,0.0,0.0,0.0,10.0,0.00599211245268,0.0259658206283,0.00759000910673,1.0,0.0,0.0,0.0,1.0,0.0,0.0,0.0,1.0,0.0682580566406,0.680185546875,10.0351318359,0.1,0.0,0.0,0.0,0.1,0.0,0.0,0.0,0.1
1446036228798691593,30,1446036228795732021,robocape,2.15366808115,9.93588173957,2.15366808115,0.0,10.0,0.0,0.0,0.0,10.0,0.0,0.0,0.0,10.0,0.00585895439817,0.0262321367373,0.0067910607797,1.0,0.0,0.0,0.0,1.0,0.0,0.0,0.0,1.0,0.0634680175781,0.701740722656,10.0171691895,0.1,0.0,0.0,0.0,0.1,0.0,0.0,0.0,0.1
1446036228832225593,31,1446036228829221010,robocape,2.14863676311,9.9632418164,2.14863676311,0.0,10.0,0.0,0.0,0.0,10.0,0.0,0.0,0.0,10.0,0.00173105470855,0.0263652947918,0.0067910607797,1.0,0.0,0.0,0.0,1.0,0.0,0.0,0.0,1.0,0.0634680175781,0.702938232422,10.0459094238,0.1,0.0,0.0,0.0,0.1,0.0,0.0,0.0,0.1
1446036228865975802,32,1446036228862709045,robocape,2.13897857661,9.99074744575,2.13897857661,0.0,10.0,0.0,0.0,0.0,10.0,0.0,0.0,0.0,10.0,-0.000798948327024,0.0264984528463,0.00732369299772,1.0,0.0,0.0,0.0,1.0,0.0,0.0,0.0,1.0,0.0550854492188,0.658630371094,10.0087866211,0.1,0.0,0.0,0.0,0.1,0.0,0.0,0.0,0.1
1446036228900762843,33,1446036228897639989,robocape,2.14001278334,10.0184624113,2.14001278334,0.0,10.0,0.0,0.0,0.0,10.0,0.0,0.0,0.0,10.0,0.00479368996214,0.0266316109008,0.00732369299772,1.0,0.0,0.0,0.0,1.0,0.0,0.0,0.0,1.0,0.0502954101563,0.613125,10.0267492676,0.1,0.0,0.0,0.0,0.1,0.0,0.0,0.0,0.1
1446036228932116760,34,1446036228929088115,robocape,2.15196284934,10.0441240282,2.15196284934,0.0,10.0,0.0,0.0,0.0,10.0,0.0,0.0,0.0,10.0,0.0105194863058,0.0255663464648,0.00732369299772,1.0,0.0,0.0,0.0,1.0,0.0,0.0,0.0,1.0,0.0526904296875,0.635877685547,10.019564209,0.1,0.0,0.0,0.0,0.1,0.0,0.0,0.0,0.1
1446036228967437260,35,1446036228964345932,robocape,2.17138755249,10.0702127399,2.17138755249,0.0,10.0,0.0,0.0,0.0,10.0,0.0,0.0,0.0,10.0,0.0143810698864,0.0258326625738,0.00772316716123,1.0,0.0,0.0,0.0,1.0,0.0,0.0,0.0,1.0,0.0562829589844,0.6514453125,10.0375268555,0.1,0.0,0.0,0.0,0.1,0.0,0.0,0.0,0.1
1446036228998512135,36,1446036228995528936,robocape,2.19137064861,10.0947251324,2.19137064861,0.0,10.0,0.0,0.0,0.0,10.0,0.0,0.0,0.0,10.0,0.0146473859954,0.0250337142467,0.00798948327024,1.0,0.0,0.0,0.0,1.0,0.0,0.0,0.0,1.0,0.0550854492188,0.696950683594,10.0327368164,0.1,0.0,0.0,0.0,0.1,0.0,0.0,0.0,0.1
1446036229032106260,37,1446036229029017925,robocape,2.20091839647,10.1202909859,2.20091839647,0.0,10.0,0.0,0.0,0.0,10.0,0.0,0.0,0.0,10.0,0.00932106381528,0.0255663464648,0.00719053494321,1.0,0.0,0.0,0.0,1.0,0.0,0.0,0.0,1.0,0.0706530761719,0.738863525391,10.0435144043,0.1,0.0,0.0,0.0,0.1,0.0,0.0,0.0,0.1
1446036229065746427,38,1446036229062525987,robocape,2.19058458594,10.1473461446,2.19058458594,0.0,10.0,0.0,0.0,0.0,10.0,0.0,0.0,0.0,10.0,-0.00106526443603,0.0263652947918,0.00692421883421,1.0,0.0,0.0,0.0,1.0,0.0,0.0,0.0,1.0,0.0514929199219,0.724493408203,10.0267492676,0.1,0.0,0.0,0.0,0.1,0.0,0.0,0.0,0.1
1446036229098686219,39,1446036229095598936,robocape,2.17576307332,10.1745882401,2.17576307332,0.0,10.0,0.0,0.0,0.0,10.0,0.0,0.0,0.0,10.0,-0.0034621094171,0.0264984528463,0.00705737688871,1.0,0.0,0.0,0.0,1.0,0.0,0.0,0.0,1.0,0.067060546875,0.686173095703,10.0123791504,0.1,0.0,0.0,0.0,0.1,0.0,0.0,0.0,0.1
1446036229131952927,40,1446036229128875017,robocape,2.17198411201,10.2015067174,2.17198411201,0.0,10.0,0.0,0.0,0.0,10.0,0.0,0.0,0.0,10.0,0.00226368692657,0.0263652947918,0.00732369299772,1.0,0.0,0.0,0.0,1.0,0.0,0.0,0.0,1.0,0.0694555664063,0.599952392578,10.0483044434,0.1,0.0,0.0,0.0,0.1,0.0,0.0,0.0,0.1
1446036229166073010,41,1446036229162595033,robocape,2.18501695574,10.2283747526,2.18501695574,0.0,10.0,0.0,0.0,0.0,10.0,0.0,0.0,0.0,10.0,0.0110521185238,0.0263652947918,0.00745685105222,1.0,0.0,0.0,0.0,1.0,0.0,0.0,0.0,1.0,0.0634680175781,0.607137451172,10.0459094238,0.1,0.0,0.0,0.0,0.1,0.0,0.0,0.0,0.1
1446036229203773802,42,1446036229195511102,robocape,2.20793477099,10.2543652972,2.20793477099,0.0,10.0,0.0,0.0,0.0,10.0,0.0,0.0,0.0,10.0,0.016112124595,0.0259658206283,0.00825579937925,1.0,0.0,0.0,0.0,1.0,0.0,0.0,0.0,1.0,0.0658630371094,0.680185546875,10.0279467773,0.1,0.0,0.0,0.0,0.1,0.0,0.0,0.0,0.1
1446036229233570302,43,1446036229230318069,robocape,2.21837194008,10.2801465032,2.21837194008,0.0,10.0,0.0,0.0,0.0,10.0,0.0,0.0,0.0,10.0,0.00972053797879,0.0258326625738,0.00745685105222,1.0,0.0,0.0,0.0,1.0,0.0,0.0,0.0,1.0,0.0514929199219,0.732875976563,10.0303417969,0.1,0.0,0.0,0.0,0.1,0.0,0.0,0.0,0.1
1446036229266137760,44,1446036229262558937,robocape,2.21209330191,10.3051098375,2.21209330191,0.0,10.0,0.0,0.0,0.0,10.0,0.0,0.0,0.0,10.0,0.000932106381528,0.0254331884103,0.00759000910673,1.0,0.0,0.0,0.0,1.0,0.0,0.0,0.0,1.0,0.0694555664063,0.732875976563,10.0291442871,0.1,0.0,0.0,0.0,0.1,0.0,0.0,0.0,0.1
1446036229299023885,45,1446036229295687913,robocape,2.20004827388,10.3328683798,2.20004827388,0.0,10.0,0.0,0.0,0.0,10.0,0.0,0.0,0.0,10.0,-0.00199737081756,0.0268979270098,0.00692421883421,1.0,0.0,0.0,0.0,1.0,0.0,0.0,0.0,1.0,0.0598754882813,0.684975585938,10.0387243652,0.1,0.0,0.0,0.0,0.1,0.0,0.0,0.0,0.1
1446036229332117135,46,1446036229328962087,robocape,2.19260572485,10.3593213667,2.19260572485,0.0,10.0,0.0,0.0,0.0,10.0,0.0,0.0,0.0,10.0,0.000399474163512,0.0262321367373,0.00692421883421,1.0,0.0,0.0,0.0,1.0,0.0,0.0,0.0,1.0,0.0526904296875,0.619112548828,10.0435144043,0.1,0.0,0.0,0.0,0.1,0.0,0.0,0.0,0.1
1446036229365763302,47,1446036229362440109,robocape,2.19700762299,10.3853537184,2.19700762299,0.0,10.0,0.0,0.0,0.0,10.0,0.0,0.0,0.0,10.0,0.00639158661619,0.0260989786828,0.00812264132474,1.0,0.0,0.0,0.0,1.0,0.0,0.0,0.0,1.0,0.0467028808594,0.629890136719,10.0231567383,0.1,0.0,0.0,0.0,0.1,0.0,0.0,0.0,0.1
1446036229398781510,48,1446036229395705938,robocape,2.20982006802,10.4119239487,2.20982006802,0.0,10.0,0.0,0.0,0.0,10.0,0.0,0.0,0.0,10.0,0.0109189604693,0.0263652947918,0.00745685105222,1.0,0.0,0.0,0.0,1.0,0.0,0.0,0.0,1.0,0.0658630371094,0.650247802734,10.0207617188,0.1,0.0,0.0,0.0,0.1,0.0,0.0,0.0,0.1
1446036229432011469,49,1446036229428998947,robocape,2.22265566021,10.4366775859,2.22265566021,0.0,10.0,0.0,0.0,0.0,10.0,0.0,0.0,0.0,10.0,0.0109189604693,0.0254331884103,0.00759000910673,1.0,0.0,0.0,0.0,1.0,0.0,0.0,0.0,1.0,0.0443078613281,0.687370605469,10.0183666992,0.1,0.0,0.0,0.0,0.1,0.0,0.0,0.0,0.1
1446036229465771260,50,1446036229462527036,robocape,2.22604660549,10.4626617932,2.22604660549,0.0,10.0,0.0,0.0,0.0,10.0,0.0,0.0,0.0,10.0,0.00599211245268,0.0260989786828,0.00745685105222,1.0,0.0,0.0,0.0,1.0,0.0,0.0,0.0,1.0,0.0634680175781,0.713715820313,10.0363293457,0.1,0.0,0.0,0.0,0.1,0.0,0.0,0.0,0.1
1446036229501928510,51,1446036229498766899,robocape,2.22296354265,10.4881412837,2.22296354265,0.0,10.0,0.0,0.0,0.0,10.0,0.0,0.0,0.0,10.0,0.00266316109008,0.0258326625738,0.00705737688871,1.0,0.0,0.0,0.0,1.0,0.0,0.0,0.0,1.0,0.0682580566406,0.684975585938,10.0063916016,0.1,0.0,0.0,0.0,0.1,0.0,0.0,0.0,0.1
1446036229532299885,52,1446036229529201030,robocape,2.22134857703,10.513772578,2.22134857703,0.0,10.0,0.0,0.0,0.0,10.0,0.0,0.0,0.0,10.0,0.0033289513626,0.0259658206283,0.00759000910673,1.0,0.0,0.0,0.0,1.0,0.0,0.0,0.0,1.0,0.0550854492188,0.647852783203,10.0303417969,0.1,0.0,0.0,0.0,0.1,0.0,0.0,0.0,0.1
1446036229566750719,53,1446036229563518047,robocape,2.22588780419,10.5403560277,2.22588780419,0.0,10.0,0.0,0.0,0.0,10.0,0.0,0.0,0.0,10.0,0.00652474467069,0.0264984528463,0.00772316716123,1.0,0.0,0.0,0.0,1.0,0.0,0.0,0.0,1.0,0.0646655273438,0.639470214844,10.0303417969,0.1,0.0,0.0,0.0,0.1,0.0,0.0,0.0,0.1
1446036229599930344,54,1446036229596878051,robocape,2.23702288123,10.5656417229,2.23702288123,0.0,10.0,0.0,0.0,0.0,10.0,0.0,0.0,0.0,10.0,0.0099868540878,0.0258326625738,0.00772316716123,1.0,0.0,0.0,0.0,1.0,0.0,0.0,0.0,1.0,0.0514929199219,0.664617919922,10.0279467773,0.1,0.0,0.0,0.0,0.1,0.0,0.0,0.0,0.1
1446036229633228260,55,1446036229630223989,robocape,2.24949295565,10.5924570074,2.24949295565,0.0,10.0,0.0,0.0,0.0,10.0,0.0,0.0,0.0,10.0,0.0107858024148,0.0266316109008,0.00719053494321,1.0,0.0,0.0,0.0,1.0,0.0,0.0,0.0,1.0,0.0610729980469,0.677790527344,10.0375268555,0.1,0.0,0.0,0.0,0.1,0.0,0.0,0.0,0.1
1446036229666250802,56,1446036229663074016,robocape,2.25357390482,10.6192258413,2.25357390482,0.0,10.0,0.0,0.0,0.0,10.0,0.0,0.0,0.0,10.0,0.00639158661619,0.0266316109008,0.00719053494321,1.0,0.0,0.0,0.0,1.0,0.0,0.0,0.0,1.0,0.0502954101563,0.70892578125,10.0423168945,0.1,0.0,0.0,0.0,0.1,0.0,0.0,0.0,0.1
1446036229706848927,57,1446036229703501939,robocape,2.24987755995,10.6444082862,2.24987755995,0.0,10.0,0.0,0.0,0.0,10.0,0.0,0.0,0.0,10.0,0.00226368692657,0.0258326625738,0.00745685105222,1.0,0.0,0.0,0.0,1.0,0.0,0.0,0.0,1.0,0.0634680175781,0.693358154297,10.019564209,0.1,0.0,0.0,0.0,0.1,0.0,0.0,0.0,0.1
1446036229733743386,58,1446036229730433940,robocape,2.24217470384,10.6716320229,2.24217470384,0.0,10.0,0.0,0.0,0.0,10.0,0.0,0.0,0.0,10.0,0.000266316109008,0.0268979270098,0.0067910607797,1.0,0.0,0.0,0.0,1.0,0.0,0.0,0.0,1.0,0.0586779785156,0.655037841797,9.99920654297,0.1,0.0,0.0,0.0,0.1,0.0,0.0,0.0,0.1
1446036229767405261,59,1446036229764096021,robocape,2.23834671157,10.6970350846,2.23834671157,0.0,10.0,0.0,0.0,0.0,10.0,0.0,0.0,0.0,10.0,0.00226368692657,0.0259658206283,0.00692421883421,1.0,0.0,0.0,0.0,1.0,0.0,0.0,0.0,1.0,0.0730480957031,0.649050292969,10.0435144043,0.1,0.0,0.0,0.0,0.1,0.0,0.0,0.0,0.1
1446036229800176719,60,1446036229797077894,robocape,2.2411119635,10.7223258091,2.2411119635,0.0,10.0,0.0,0.0,0.0,10.0,0.0,0.0,0.0,10.0,0.00559263828917,0.0259658206283,0.00759000910673,1.0,0.0,0.0,0.0,1.0,0.0,0.0,0.0,1.0,0.067060546875,0.647852783203,10.0207617188,0.1,0.0,0.0,0.0,0.1,0.0,0.0,0.0,0.1
1446036229836250094,61,1446036229832248926,robocape,2.24845113845,10.7475779342,2.24845113845,0.0,10.0,0.0,0.0,0.0,10.0,0.0,0.0,0.0,10.0,0.00798948327024,0.0259658206283,0.00759000910673,1.0,0.0,0.0,0.0,1.0,0.0,0.0,0.0,1.0,0.0610729980469,0.664617919922,10.0183666992,0.1,0.0,0.0,0.0,0.1,0.0,0.0,0.0,0.1
1446036229866451302,62,1446036229863277912,robocape,2.25876334696,10.7732352859,2.25876334696,0.0,10.0,0.0,0.0,0.0,10.0,0.0,0.0,0.0,10.0,0.00945422186978,0.0262321367373,0.00812264132474,1.0,0.0,0.0,0.0,1.0,0.0,0.0,0.0,1.0,0.0538879394531,0.665815429688,10.024354248,0.1,0.0,0.0,0.0,0.1,0.0,0.0,0.0,0.1
1446036229904257844,63,1446036229901004076,robocape,2.27150728646,10.7978768183,2.27150728646,0.0,10.0,0.0,0.0,0.0,10.0,0.0,0.0,0.0,10.0,0.0107858024148,0.0256995045193,0.00785632521573,1.0,0.0,0.0,0.0,1.0,0.0,0.0,0.0,1.0,0.0526904296875,0.67060546875,10.0267492676,0.1,0.0,0.0,0.0,0.1,0.0,0.0,0.0,0.1
1446036229933121427,64,1446036229930052042,robocape,2.28419137533,10.8229983152,2.28419137533,0.0,10.0,0.0,0.0,0.0,10.0,0.0,0.0,0.0,10.0,0.0107858024148,0.0259658206283,0.00772316716123,1.0,0.0,0.0,0.0,1.0,0.0,0.0,0.0,1.0,0.0682580566406,0.665815429688,10.024354248,0.1,0.0,0.0,0.0,0.1,0.0,0.0,0.0,0.1
1446036229970287136,65,1446036229966931104,robocape,2.29392827283,10.8476216213,2.29392827283,0.0,10.0,0.0,0.0,0.0,10.0,0.0,0.0,0.0,10.0,0.00932106381528,0.0256995045193,0.00732369299772,1.0,0.0,0.0,0.0,1.0,0.0,0.0,0.0,1.0,0.0658630371094,0.675395507813,10.0207617188,0.1,0.0,0.0,0.0,0.1,0.0,0.0,0.0,0.1
1446036230004306469,66,1446036230000927925,robocape,2.29819013394,10.8727522486,2.29819013394,0.0,10.0,0.0,0.0,0.0,10.0,0.0,0.0,0.0,10.0,0.00652474467069,0.0259658206283,0.00692421883421,1.0,0.0,0.0,0.0,1.0,0.0,0.0,0.0,1.0,0.0538879394531,0.695753173828,10.0279467773,0.1,0.0,0.0,0.0,0.1,0.0,0.0,0.0,0.1
1446036230036725261,67,1446036230033457994,robocape,2.29640974513,10.8973222762,2.29640974513,0.0,10.0,0.0,0.0,0.0,10.0,0.0,0.0,0.0,10.0,0.0033289513626,0.0256995045193,0.00705737688871,1.0,0.0,0.0,0.0,1.0,0.0,0.0,0.0,1.0,0.0562829589844,0.689765625,10.0063916016,0.1,0.0,0.0,0.0,0.1,0.0,0.0,0.0,0.1
1446036230070334511,68,1446036230066801071,robocape,2.28983115076,10.9238606702,2.28983115076,0.0,10.0,0.0,0.0,0.0,10.0,0.0,0.0,0.0,10.0,0.000798948327024,0.0267647689553,0.00705737688871,1.0,0.0,0.0,0.0,1.0,0.0,0.0,0.0,1.0,0.0694555664063,0.682580566406,10.0171691895,0.1,0.0,0.0,0.0,0.1,0.0,0.0,0.0,0.1
1446036230102114677,69,1446036230098995923,robocape,2.28257955585,10.949155488,2.28257955585,0.0,10.0,0.0,0.0,0.0,10.0,0.0,0.0,0.0,10.0,0.000532632218016,0.0260989786828,0.00652474467069,1.0,0.0,0.0,0.0,1.0,0.0,0.0,0.0,1.0,0.0586779785156,0.655037841797,10.0423168945,0.1,0.0,0.0,0.0,0.1,0.0,0.0,0.0,0.1
1446036230137021719,70,1446036230133776903,robocape,2.28152030046,10.9743058454,2.28152030046,0.0,10.0,0.0,0.0,0.0,10.0,0.0,0.0,0.0,10.0,0.00359526747161,0.0260989786828,0.00745685105222,1.0,0.0,0.0,0.0,1.0,0.0,0.0,0.0,1.0,0.0490979003906,0.637075195313,10.024354248,0.1,0.0,0.0,0.0,0.1,0.0,0.0,0.0,0.1
1446036230170376177,71,1446036230167087078,robocape,2.28836225869,10.9999957406,2.28836225869,0.0,10.0,0.0,0.0,0.0,10.0,0.0,0.0,0.0,10.0,0.00785632521573,0.0263652947918,0.0067910607797,1.0,0.0,0.0,0.0,1.0,0.0,0.0,0.0,1.0,0.05748046875,0.639470214844,10.039921875,0.1,0.0,0.0,0.0,0.1,0.0,0.0,0.0,0.1
1446036230205421094,72,1446036230202234983,robocape,2.29898852977,11.0253203238,2.29898852977,0.0,10.0,0.0,0.0,0.0,10.0,0.0,0.0,0.0,10.0,0.00972053797879,0.0262321367373,0.00745685105222,1.0,0.0,0.0,0.0,1.0,0.0,0.0,0.0,1.0,0.0622705078125,0.6514453125,10.0267492676,0.1,0.0,0.0,0.0,0.1,0.0,0.0,0.0,0.1
1446036230236373511,73,1446036230233216047,robocape,2.30833487699,11.0506042892,2.30833487699,0.0,10.0,0.0,0.0,0.0,10.0,0.0,0.0,0.0,10.0,0.00905474770627,0.0262321367373,0.00745685105222,1.0,0.0,0.0,0.0,1.0,0.0,0.0,0.0,1.0,0.0622705078125,0.681383056641,10.0423168945,0.1,0.0,0.0,0.0,0.1,0.0,0.0,0.0,0.1
1446036230269951927,74,1446036230266906976,robocape,2.31031217709,11.0753419337,2.31031217709,0.0,10.0,0.0,0.0,0.0,10.0,0.0,0.0,0.0,10.0,0.00519316412565,0.0259658206283,0.00745685105222,1.0,0.0,0.0,0.0,1.0,0.0,0.0,0.0,1.0,0.0514929199219,0.688568115234,10.039921875,0.1,0.0,0.0,0.0,0.1,0.0,0.0,0.0,0.1
1446036230301376261,75,1446036230298187971,robocape,2.30738354632,11.100820853,2.30738354632,0.0,10.0,0.0,0.0,0.0,10.0,0.0,0.0,0.0,10.0,0.00266316109008,0.0263652947918,0.00719053494321,1.0,0.0,0.0,0.0,1.0,0.0,0.0,0.0,1.0,0.0490979003906,0.678988037109,10.0147741699,0.1,0.0,0.0,0.0,0.1,0.0,0.0,0.0,0.1
1446036230335395344,76,1446036230331892013,robocape,2.30553113909,11.1249856828,2.30553113909,0.0,10.0,0.0,0.0,0.0,10.0,0.0,0.0,0.0,10.0,0.0031957933081,0.0256995045193,0.00732369299772,1.0,0.0,0.0,0.0,1.0,0.0,0.0,0.0,1.0,0.0550854492188,0.655037841797,10.0590820312,0.1,0.0,0.0,0.0,0.1,0.0,0.0,0.0,0.1
1446036230369281011,77,1446036230366096019,robocape,2.29124801381,11.1460434771,2.29124801381,0.0,10.0,0.0,0.0,0.0,10.0,0.0,0.0,0.0,10.0,-0.00759000910673,0.0254331884103,0.0299605622634,1.0,0.0,0.0,0.0,1.0,0.0,0.0,0.0,1.0,0.067060546875,0.817899169922,10.0255517578,0.1,0.0,0.0,0.0,0.1,0.0,0.0,0.0,0.1
1446036230400902761,78,1446036230397737026,robocape,2.26846693783,11.161322989,2.26846693783,0.0,10.0,0.0,0.0,0.0,10.0,0.0,0.0,0.0,10.0,-0.0225037112112,0.0256995045193,0.085354312937,1.0,0.0,0.0,0.0,1.0,0.0,0.0,0.0,1.0,0.100590820313,1.10410400391,10.0506994629,0.1,0.0,0.0,0.0,0.1,0.0,0.0,0.0,0.1
1446036230435779678,79,1446036230432730913,robocape,2.22996574059,11.1541146118,2.22996574059,0.0,10.0,0.0,0.0,0.0,10.0,0.0,0.0,0.0,10.0,-0.0516653251475,0.0203731823391,0.196408130393,1.0,0.0,0.0,0.0,1.0,0.0,0.0,0.0,1.0,0.270637207031,-0.137713623047,10.1081799316,0.1,0.0,0.0,0.0,0.1,0.0,0.0,0.0,0.1
1446036230468435594,80,1446036230465262889,robocape,2.46502051329,11.1330375117,2.46502051329,0.0,10.0,0.0,0.0,0.0,10.0,0.0,0.0,0.0,10.0,0.0930774800983,0.0130494893414,0.191214966268,1.0,0.0,0.0,0.0,1.0,0.0,0.0,0.0,1.0,0.292192382813,-0.650247802734,9.98723144531,0.1,0.0,0.0,0.0,0.1,0.0,0.0,0.0,0.1
1446036230501103011,81,1446036230498038053,robocape,3.07948191454,11.0979716899,3.07948191454,0.0,10.0,0.0,0.0,0.0,10.0,0.0,0.0,0.0,10.0,0.30599720925,0.00213052887206,0.12090751349,1.0,0.0,0.0,0.0,1.0,0.0,0.0,0.0,1.0,-0.461041259766,0.616717529297,10.0219592285,0.1,0.0,0.0,0.0,0.1,0.0,0.0,0.0,0.1
1446036230532568636,82,1446036230529177904,robocape,3.68662531753,11.0578634639,3.68662531753,0.0,10.0,0.0,0.0,0.0,10.0,0.0,0.0,0.0,10.0,0.291482981309,0.00572579634367,0.184823379651,1.0,0.0,0.0,0.0,1.0,0.0,0.0,0.0,1.0,-0.255069580078,0.505349121094,10.1189575195,0.1,0.0,0.0,0.0,0.1,0.0,0.0,0.0,0.1
1446036230565672511,83,1446036230562556028,robocape,4.42349445688,11.0220812539,4.42349445688,0.0,10.0,0.0,0.0,0.0,10.0,0.0,0.0,0.0,10.0,0.391351522187,-0.00492684801665,0.017710021249,1.0,0.0,0.0,0.0,1.0,0.0,0.0,0.0,1.0,-0.0371228027344,1.88248535156,9.94292358398,0.1,0.0,0.0,0.0,0.1,0.0,0.0,0.0,0.1
1446036230600389136,84,1446036230597295999,robocape,4.92674976461,11.0282155388,4.92674976461,0.0,10.0,0.0,0.0,0.0,10.0,0.0,0.0,0.0,10.0,0.28589034302,0.00825579937925,-0.0727042977592,1.0,0.0,0.0,0.0,1.0,0.0,0.0,0.0,1.0,0.395178222656,2.09923461914,10.0590820312,0.1,0.0,0.0,0.0,0.1,0.0,0.0,0.0,0.1
1446036230633429261,85,1446036230630247116,robocape,5.03979701635,11.0706361156,5.03979701635,0.0,10.0,0.0,0.0,0.0,10.0,0.0,0.0,0.0,10.0,0.0757669330128,0.0300937203179,-0.0422111032778,1.0,0.0,0.0,0.0,1.0,0.0,0.0,0.0,1.0,0.208366699219,3.01053955078,9.8447277832,0.1,0.0,0.0,0.0,0.1,0.0,0.0,0.0,0.1
1446036230666572511,86,1446036230663525104,robocape,4.67294250829,11.1523190693,4.67294250829,0.0,10.0,0.0,0.0,0.0,10.0,0.0,0.0,0.0,10.0,-0.167779148675,0.0458063707494,-0.0893490545722,1.0,0.0,0.0,0.0,1.0,0.0,0.0,0.0,1.0,0.324525146484,2.13036987305,9.97286132813,0.1,0.0,0.0,0.0,0.1,0.0,0.0,0.0,0.1
1446036230699699428,87,1446036230696418046,robocape,4.15069839009,11.2559181651,4.15069839009,0.0,10.0,0.0,0.0,0.0,10.0,0.0,0.0,0.0,10.0,-0.23888554978,0.0525974315291,-0.147272808281,1.0,0.0,0.0,0.0,1.0,0.0,0.0,0.0,1.0,0.24908203125,1.24062011719,10.0087866211,0.1,0.0,0.0,0.0,0.1,0.0,0.0,0.0,0.1
1446036230733212136,88,1446036230730086088,robocape,3.59679635844,11.365347781,3.59679635844,0.0,10.0,0.0,0.0,0.0,10.0,0.0,0.0,0.0,10.0,-0.244345030015,0.052064799311,-0.206927616699,1.0,0.0,0.0,0.0,1.0,0.0,0.0,0.0,1.0,0.0179626464844,0.767603759766,9.98842895508,0.1,0.0,0.0,0.0,0.1,0.0,0.0,0.0,0.1
1446036230766088053,89,1446036230762950897,robocape,3.10360708484,11.4665501867,3.10360708484,0.0,10.0,0.0,0.0,0.0,10.0,0.0,0.0,0.0,10.0,-0.197340236775,0.0436758418773,-0.285490868856,1.0,0.0,0.0,0.0,1.0,0.0,0.0,0.0,1.0,0.0490979003906,0.716110839844,9.96088623047,0.1,0.0,0.0,0.0,0.1,0.0,0.0,0.0,0.1
1446036230798980428,90,1446036230795969009,robocape,2.64694452481,11.5556019776,2.64694452481,0.0,10.0,0.0,0.0,0.0,10.0,0.0,0.0,0.0,10.0,-0.164317039258,0.03488741028,-0.355398847471,1.0,0.0,0.0,0.0,1.0,0.0,0.0,0.0,1.0,-0.105380859375,1.09811645508,9.95609619141,0.1,0.0,0.0,0.0,0.1,0.0,0.0,0.0,0.1
1446036230832564219,91,1446036230829539060,robocape,2.07225324563,11.6121579657,2.07225324563,0.0,10.0,0.0,0.0,0.0,10.0,0.0,0.0,0.0,10.0,-0.232360805109,0.0230363434292,-0.322375649954,1.0,0.0,0.0,0.0,1.0,0.0,0.0,0.0,1.0,0.0586779785156,1.28971801758,9.94771362305,0.1,0.0,0.0,0.0,0.1,0.0,0.0,0.0,0.1
1446036230865774928,92,1446036230862377882,robocape,1.17643422076,11.6270820467,1.17643422076,0.0,10.0,0.0,0.0,0.0,10.0,0.0,0.0,0.0,10.0,-0.433828941574,0.0133158054504,-0.156593872097,1.0,0.0,0.0,0.0,1.0,0.0,0.0,0.0,1.0,0.120948486328,1.31127319336,10.0051940918,0.1,0.0,0.0,0.0,0.1,0.0,0.0,0.0,0.1
1446036230898819261,93,1446036230895817995,robocape,-0.0776493472814,11.6143797182,-0.0776493472814,0.0,10.0,0.0,0.0,0.0,10.0,0.0,0.0,0.0,10.0,-0.67377975579,0.00972053797879,0.0977380120059,1.0,0.0,0.0,0.0,1.0,0.0,0.0,0.0,1.0,0.0946032714844,1.01309326172,9.98723144531,0.1,0.0,0.0,0.0,0.1,0.0,0.0,0.0,0.1
1446036230932614803,94,1446036230929027080,robocape,-1.27473807392,11.6189172352,-1.27473807392,0.0,10.0,0.0,0.0,0.0,10.0,0.0,0.0,0.0,10.0,-0.658732895631,0.0183758115215,0.163251774822,1.0,0.0,0.0,0.0,1.0,0.0,0.0,0.0,1.0,0.0203576660156,-0.270637207031,10.024354248,0.1,0.0,0.0,0.0,0.1,0.0,0.0,0.0,0.1
1446036230966033428,95,1446036230962587118,robocape,-1.92838482392,11.6252768964,-1.92838482392,0.0,10.0,0.0,0.0,0.0,10.0,0.0,0.0,0.0,10.0,-0.343814096729,0.017976337358,0.0106526443603,1.0,0.0,0.0,0.0,1.0,0.0,0.0,0.0,1.0,-0.232316894531,-2.40819213867,10.0099841309,0.1,0.0,0.0,0.0,0.1,0.0,0.0,0.0,0.1
1446036230999024886,96,1446036230995960950,robocape,-2.06967104922,11.6339304889,-2.06967104922,0.0,10.0,0.0,0.0,0.0,10.0,0.0,0.0,0.0,10.0,-0.0737695621952,0.0185089695761,0.00119842249054,1.0,0.0,0.0,0.0,1.0,0.0,0.0,0.0,1.0,0.474213867188,-1.42383911133,10.1165625,0.1,0.0,0.0,0.0,0.1,0.0,0.0,0.0,0.1
1446036231032090636,97,1446036231029019117,robocape,-1.79375742058,11.6771348755,-1.79375742058,0.0,10.0,0.0,0.0,0.0,10.0,0.0,0.0,0.0,10.0,0.162585984549,0.0370179391521,-0.084022732392,1.0,0.0,0.0,0.0,1.0,0.0,0.0,0.0,1.0,0.123343505859,-1.55317016602,9.97645385742,0.1,0.0,0.0,0.0,0.1,0.0,0.0,0.0,0.1
1446036231065954345,98,1446036231062581062,robocape,-1.18043767997,11.7135343904,-1.18043767997,0.0,10.0,0.0,0.0,0.0,10.0,0.0,0.0,0.0,10.0,0.358062008561,0.032490565299,-0.173371786964,1.0,0.0,0.0,0.0,1.0,0.0,0.0,0.0,1.0,0.188009033203,0.324525146484,10.0650695801,0.1,0.0,0.0,0.0,0.1,0.0,0.0,0.0,0.1
1446036231098868386,99,1446036231095810890,robocape,-0.693230888801,11.7376722674,-0.693230888801,0.0,10.0,0.0,0.0,0.0,10.0,0.0,0.0,0.0,10.0,0.296942461544,0.0245010820287,-0.195476024012,1.0,0.0,0.0,0.0,1.0,0.0,0.0,0.0,1.0,-0.135318603516,1.00710571289,9.99202148437,0.1,0.0,0.0,0.0,0.1,0.0,0.0,0.0,0.1
1446036231132301011,100,1446036231129239082,robocape,-0.47208472471,11.7536032677,-0.47208472471,0.0,10.0,0.0,0.0,0.0,10.0,0.0,0.0,0.0,10.0,0.158591242914,0.0193079179031,-0.199071291483,1.0,0.0,0.0,0.0,1.0,0.0,0.0,0.0,1.0,-0.0898132324219,1.31845825195,9.99561401367,0.1,0.0,0.0,0.0,0.1,0.0,0.0,0.0,0.1
1446036231167761095,101,1446036231164594888,robocape,-0.555968754598,11.7644365625,-0.555968754598,0.0,10.0,0.0,0.0,0.0,10.0,0.0,0.0,0.0,10.0,-0.0258326625738,0.017976337358,-0.0788295682663,1.0,0.0,0.0,0.0,1.0,0.0,0.0,0.0,1.0,0.149688720703,1.58670043945,10.0339343262,0.1,0.0,0.0,0.0,0.1,0.0,0.0,0.0,0.1
1446036231203713345,102,1446036231195749044,robocape,-1.02320492187,11.7642662928,-1.02320492187,0.0,10.0,0.0,0.0,0.0,10.0,0.0,0.0,0.0,10.0,-0.241415552816,0.0134489635049,-0.00892158965177,1.0,0.0,0.0,0.0,1.0,0.0,0.0,0.0,1.0,-0.0455053710938,1.28133544922,9.9980090332,0.1,0.0,0.0,0.0,0.1,0.0,0.0,0.0,0.1
1446036231232526720,103,1446036231229507923,robocape,-1.68116686383,11.752124266,-1.68116686383,0.0,10.0,0.0,0.0,0.0,10.0,0.0,0.0,0.0,10.0,-0.335158823186,0.00785632521573,-0.0420779452233,1.0,0.0,0.0,0.0,1.0,0.0,0.0,0.0,1.0,-0.0251477050781,-0.0155676269531,10.1045874023,0.1,0.0,0.0,0.0,0.1,0.0,0.0,0.0,0.1
1446036231266076553,104,1446036231262718915,robocape,-2.1039906495,11.7400420841,-2.1039906495,0.0,10.0,0.0,0.0,0.0,10.0,0.0,0.0,0.0,10.0,-0.200402872028,0.00892158965177,-0.100401173096,1.0,0.0,0.0,0.0,1.0,0.0,0.0,0.0,1.0,0.0347277832031,-0.530496826172,9.99202148437,0.1,0.0,0.0,0.0,0.1,0.0,0.0,0.0,0.1
1446036231298738886,105,1446036231295749902,robocape,-2.39230035817,11.7277884463,-2.39230035817,0.0,10.0,0.0,0.0,0.0,10.0,0.0,0.0,0.0,10.0,-0.140881221665,0.00825579937925,-0.0495347962755,1.0,0.0,0.0,0.0,1.0,0.0,0.0,0.0,1.0,0.0,-0.704135742188,10.0363293457,0.1,0.0,0.0,0.0,0.1,0.0,0.0,0.0,0.1
1446036231332202261,106,1446036231329217910,robocape,-2.50973120141,11.72579829,-2.50973120141,0.0,10.0,0.0,0.0,0.0,10.0,0.0,0.0,0.0,10.0,-0.0557932248372,0.0130494893414,-0.0288952978274,1.0,0.0,0.0,0.0,1.0,0.0,0.0,0.0,1.0,0.192799072266,-0.280217285156,10.0866247559,0.1,0.0,0.0,0.0,0.1,0.0,0.0,0.0,0.1
1446036231366087511,107,1446036231362677097,robocape,-2.77164408292,11.7418619436,-2.77164408292,0.0,10.0,0.0,0.0,0.0,10.0,0.0,0.0,0.0,10.0,-0.159922823459,0.0194410759576,0.106526443603,1.0,0.0,0.0,0.0,1.0,0.0,0.0,0.0,1.0,0.119750976563,-0.599952392578,10.0926123047,0.1,0.0,0.0,0.0,0.1,0.0,0.0,0.0,0.1
1446036231398756178,108,1446036231395755052,robocape,-2.84020671755,11.7727777228,-2.84020671755,0.0,10.0,0.0,0.0,0.0,10.0,0.0,0.0,0.0,10.0,-0.066046395034,0.0256995045193,0.141680169992,1.0,0.0,0.0,0.0,1.0,0.0,0.0,0.0,1.0,0.183218994141,-1.43341918945,9.98363891602,0.1,0.0,0.0,0.0,0.1,0.0,0.0,0.0,0.1
1446036231431923970,109,1446036231428919076,robocape,-2.57831682135,11.836424129,-2.57831682135,0.0,10.0,0.0,0.0,0.0,10.0,0.0,0.0,0.0,10.0,0.115448033255,0.0436758418773,0.10346380835,1.0,0.0,0.0,0.0,1.0,0.0,0.0,0.0,1.0,0.335302734375,-0.844244384766,10.019564209,0.1,0.0,0.0,0.0,0.1,0.0,0.0,0.0,0.1
1446036231468300553,110,1446036231464843034,robocape,-2.05942585953,11.9077511632,-2.05942585953,0.0,10.0,0.0,0.0,0.0,10.0,0.0,0.0,0.0,10.0,0.253532935776,0.0482032157304,0.0892158965177,1.0,0.0,0.0,0.0,1.0,0.0,0.0,0.0,1.0,0.0730480957031,-0.47900390625,10.0411193848,0.1,0.0,0.0,0.0,0.1,0.0,0.0,0.0,0.1
1446036231498669053,111,1446036231495605945,robocape,-1.44008179499,11.9688366539,-1.44008179499,0.0,10.0,0.0,0.0,0.0,10.0,0.0,0.0,0.0,10.0,0.314652482793,0.0439421579863,0.0511326929295,1.0,0.0,0.0,0.0,1.0,0.0,0.0,0.0,1.0,0.0981958007813,0.00119750976563,10.0830322266,0.1,0.0,0.0,0.0,0.1,0.0,0.0,0.0,0.1
1446036231532222095,112,1446036231529010057,robocape,-1.01650663065,12.0138646334,-1.01650663065,0.0,10.0,0.0,0.0,0.0,10.0,0.0,0.0,0.0,10.0,0.209990251953,0.0363521488796,0.0631169178349,1.0,0.0,0.0,0.0,1.0,0.0,0.0,0.0,1.0,-0.201181640625,0.929267578125,9.98244140625,0.1,0.0,0.0,0.0,0.1,0.0,0.0,0.0,0.1
1446036231568405720,113,1446036231564981937,robocape,-0.771271596191,12.1142606087,-0.771271596191,0.0,10.0,0.0,0.0,0.0,10.0,0.0,0.0,0.0,10.0,0.124103306798,0.066312711143,0.0294279300454,1.0,0.0,0.0,0.0,1.0,0.0,0.0,0.0,1.0,-0.0119750976563,0.861009521484,9.99561401367,0.1,0.0,0.0,0.0,0.1,0.0,0.0,0.0,0.1
1446036231599079928,114,1446036231595701932,robocape,-0.712819197973,12.1407046998,-0.712819197973,0.0,10.0,0.0,0.0,0.0,10.0,0.0,0.0,0.0,10.0,0.0264984528463,0.0275637172823,0.0279631914458,1.0,0.0,0.0,0.0,1.0,0.0,0.0,0.0,1.0,0.142503662109,1.05141357422,10.0027990723,0.1,0.0,0.0,0.0,0.1,0.0,0.0,0.0,0.1
1446036231632309720,115,1446036231629113912,robocape,-0.86997695941,12.1582911683,-0.86997695941,0.0,10.0,0.0,0.0,0.0,10.0,0.0,0.0,0.0,10.0,-0.0894822126267,0.0233026595382,0.0416784710597,1.0,0.0,0.0,0.0,1.0,0.0,0.0,0.0,1.0,0.0227526855469,0.792751464844,10.0411193848,0.1,0.0,0.0,0.0,0.1,0.0,0.0,0.0,0.1
1446036231665656053,116,1446036231662441015,robocape,-1.19509822317,12.1671001433,-1.19509822317,0.0,10.0,0.0,0.0,0.0,10.0,0.0,0.0,0.0,10.0,-0.169776519493,0.0187752856851,0.00412789968962,1.0,0.0,0.0,0.0,1.0,0.0,0.0,0.0,1.0,-0.00598754882813,0.537681884766,10.0231567383,0.1,0.0,0.0,0.0,0.1,0.0,0.0,0.0,0.1
1446036231698752345,117,1446036231695559024,robocape,-1.48767503677,12.1741830292,-1.48767503677,0.0,10.0,0.0,0.0,0.0,10.0,0.0,0.0,0.0,10.0,-0.148870704935,0.017976337358,-0.0154463343225,1.0,0.0,0.0,0.0,1.0,0.0,0.0,0.0,1.0,0.0227526855469,-0.188009033203,10.0614770508,0.1,0.0,0.0,0.0,0.1,0.0,0.0,0.0,0.1
1446036231732243886,118,1446036231729202985,robocape,-1.63763947693,12.1875297228,-1.63763947693,0.0,10.0,0.0,0.0,0.0,10.0,0.0,0.0,0.0,10.0,-0.0744353524677,0.0211721306661,-0.0150468601589,1.0,0.0,0.0,0.0,1.0,0.0,0.0,0.0,1.0,0.108973388672,-0.707728271484,10.0578845215,0.1,0.0,0.0,0.0,0.1,0.0,0.0,0.0,0.1
1446036231766000595,119,1446036231762783050,robocape,-1.62490854011,12.2106854769,-1.62490854011,0.0,10.0,0.0,0.0,0.0,10.0,0.0,0.0,0.0,10.0,0.00732369299772,0.0259658206283,0.00106526443603,1.0,0.0,0.0,0.0,1.0,0.0,0.0,0.0,1.0,0.102985839844,-0.599952392578,10.0578845215,0.1,0.0,0.0,0.0,0.1,0.0,0.0,0.0,0.1
1446036231798717678,120,1446036231795727968,robocape,-1.47951544856,12.2419457843,-1.47951544856,0.0,10.0,0.0,0.0,0.0,10.0,0.0,0.0,0.0,10.0,0.0756337749583,0.0299605622634,0.00719053494321,1.0,0.0,0.0,0.0,1.0,0.0,0.0,0.0,1.0,0.102985839844,-0.324525146484,10.0495019531,0.1,0.0,0.0,0.0,0.1,0.0,0.0,0.0,0.1
1446036231832190345,121,1446036231829171895,robocape,-1.27800357892,12.2744047372,-1.27800357892,0.0,10.0,0.0,0.0,0.0,10.0,0.0,0.0,0.0,10.0,0.104529072786,0.0304931944814,0.0103863282513,1.0,0.0,0.0,0.0,1.0,0.0,0.0,0.0,1.0,0.0502954101563,0.0514929199219,10.0411193848,0.1,0.0,0.0,0.0,0.1,0.0,0.0,0.0,0.1
1446036231865384553,122,1446036231862382888,robocape,-1.08865627789,12.3007336293,-1.08865627789,0.0,10.0,0.0,0.0,0.0,10.0,0.0,0.0,0.0,10.0,0.0978711700604,0.0272974011733,0.0125168571234,1.0,0.0,0.0,0.0,1.0,0.0,0.0,0.0,1.0,0.0203576660156,0.449066162109,10.0339343262,0.1,0.0,0.0,0.0,0.1,0.0,0.0,0.0,0.1
1446036231898876637,123,1446036231895855903,robocape,-1.09511509274,12.3258651014,-1.09511509274,0.0,10.0,0.0,0.0,0.0,10.0,0.0,0.0,0.0,10.0,-0.0034621094171,0.0270310850643,0.00705737688871,1.0,0.0,0.0,0.0,1.0,0.0,0.0,0.0,1.0,0.0359252929688,0.609532470703,10.0662670898,0.1,0.0,0.0,0.0,0.1,0.0,0.0,0.0,0.1
1446036231933266512,124,1446036231930197000,robocape,-1.21403508453,12.3525787628,-1.21403508453,0.0,10.0,0.0,0.0,0.0,10.0,0.0,0.0,0.0,10.0,-0.0620516533988,0.0280963495003,0.00519316412565,1.0,0.0,0.0,0.0,1.0,0.0,0.0,0.0,1.0,-0.150886230469,0.355660400391,10.0542919922,0.1,0.0,0.0,0.0,0.1,0.0,0.0,0.0,0.1
1446036231966661262,125,1446036231963623046,robocape,-1.37726451016,12.3827789096,-1.37726451016,0.0,10.0,0.0,0.0,0.0,10.0,0.0,0.0,0.0,10.0,-0.0844222065555,0.0300937203179,0.00066579027252,1.0,0.0,0.0,0.0,1.0,0.0,0.0,0.0,1.0,-0.28740234375,0.009580078125,10.0518969727,0.1,0.0,0.0,0.0,0.1,0.0,0.0,0.0,0.1
1446036231999960220,126,1446036231996953010,robocape,-1.55213256498,12.4006452344,-1.55213256498,0.0,10.0,0.0,0.0,0.0,10.0,0.0,0.0,0.0,10.0,-0.0941427445343,0.0235689756472,0.0162452826495,1.0,0.0,0.0,0.0,1.0,0.0,0.0,0.0,1.0,0.188009033203,0.0634680175781,10.0662670898,0.1,0.0,0.0,0.0,0.1,0.0,0.0,0.0,0.1
1446036232034032762,127,1446036232030699968,robocape,-1.77744852176,12.4086759282,-1.77744852176,0.0,10.0,0.0,0.0,0.0,10.0,0.0,0.0,0.0,10.0,-0.120108565163,0.0185089695761,0.0129163312869,1.0,0.0,0.0,0.0,1.0,0.0,0.0,0.0,1.0,0.434696044922,0.0598754882813,10.0303417969,0.1,0.0,0.0,0.0,0.1,0.0,0.0,0.0,0.1
1446036232066096053,128,1446036232063028097,robocape,-2.03477153519,12.4210906661,-2.03477153519,0.0,10.0,0.0,0.0,0.0,10.0,0.0,0.0,0.0,10.0,-0.135554899485,0.0210389726116,0.00572579634367,1.0,0.0,0.0,0.0,1.0,0.0,0.0,0.0,1.0,-0.0706530761719,-0.340092773437,10.1225500488,0.1,0.0,0.0,0.0,0.1,0.0,0.0,0.0,0.1
1446036232099714512,129,1446036232096151113,robocape,-2.13554307097,12.4320902017,-2.13554307097,0.0,10.0,0.0,0.0,0.0,10.0,0.0,0.0,0.0,10.0,-0.0579237537092,0.0197073920666,0.0249005561922,1.0,0.0,0.0,0.0,1.0,0.0,0.0,0.0,1.0,0.0826281738281,-0.496966552734,10.0375268555,0.1,0.0,0.0,0.0,0.1,0.0,0.0,0.0,0.1
1446036232134021720,130,1446036232130774974,robocape,-2.15514432525,12.459487208,-2.15514432525,0.0,10.0,0.0,0.0,0.0,10.0,0.0,0.0,0.0,10.0,-0.015579492377,0.0282295075548,0.0258326625738,1.0,0.0,0.0,0.0,1.0,0.0,0.0,0.0,1.0,0.211959228516,-0.470621337891,10.0566870117,0.1,0.0,0.0,0.0,0.1,0.0,0.0,0.0,0.1
1446036232170277387,131,1446036232166600942,robocape,-2.06121449968,12.4893952934,-2.06121449968,0.0,10.0,0.0,0.0,0.0,10.0,0.0,0.0,0.0,10.0,0.0414121549507,0.0291616139364,0.0374174133156,1.0,0.0,0.0,0.0,1.0,0.0,0.0,0.0,1.0,0.0371228027344,-0.605939941406,10.0375268555,0.1,0.0,0.0,0.0,0.1,0.0,0.0,0.0,0.1
1446036232204725345,132,1446036232198921918,robocape,-1.85235489858,12.5289039595,-1.85235489858,0.0,10.0,0.0,0.0,0.0,10.0,0.0,0.0,0.0,10.0,0.107991182203,0.0344879361165,0.00958737992429,1.0,0.0,0.0,0.0,1.0,0.0,0.0,0.0,1.0,0.15328125,-0.1916015625,10.003996582,0.1,0.0,0.0,0.0,0.1,0.0,0.0,0.0,0.1
1446036232235755595,133,1446036232231384038,robocape,-1.62515790291,12.5524411065,-1.62515790291,0.0,10.0,0.0,0.0,0.0,10.0,0.0,0.0,0.0,10.0,0.119842249054,0.0260989786828,0.000133158054504,1.0,0.0,0.0,0.0,1.0,0.0,0.0,0.0,1.0,-0.537681884766,0.0431103515625,10.1153649902,0.1,0.0,0.0,0.0,0.1,0.0,0.0,0.0,0.1
1446036232270754053,134,1446036232266392946,robocape,-1.51684336478,12.5963455518,-1.51684336478,0.0,10.0,0.0,0.0,0.0,10.0,0.0,0.0,0.0,10.0,0.0577905956547,0.0371510972066,0.000133158054504,1.0,0.0,0.0,0.0,1.0,0.0,0.0,0.0,1.0,-0.902922363281,0.174836425781,10.2183508301,0.1,0.0,0.0,0.0,0.1,0.0,0.0,0.0,0.1
1446036232304010845,135,1446036232300842046,robocape,-1.5385255699,12.6386379859,-1.5385255699,0.0,10.0,0.0,0.0,0.0,10.0,0.0,0.0,0.0,10.0,-0.0141147537774,0.0364853069341,0.0173105470855,1.0,0.0,0.0,0.0,1.0,0.0,0.0,0.0,1.0,-0.653840332031,0.571212158203,10.3381018066,0.1,0.0,0.0,0.0,0.1,0.0,0.0,0.0,0.1
1446036232336781553,136,1446036232333597898,robocape,-1.64002853878,12.6615887805,-1.64002853878,0.0,10.0,0.0,0.0,0.0,10.0,0.0,0.0,0.0,10.0,-0.0537958540196,0.0264984528463,0.00705737688871,1.0,0.0,0.0,0.0,1.0,0.0,0.0,0.0,1.0,-0.607137451172,0.240699462891,10.0123791504,0.1,0.0,0.0,0.0,0.1,0.0,0.0,0.0,0.1
1446036232370446720,137,1446036232365659952,robocape,-1.79241264806,12.6976681834,-1.79241264806,0.0,10.0,0.0,0.0,0.0,10.0,0.0,0.0,0.0,10.0,-0.0789627263208,0.0336889877895,0.0,1.0,0.0,0.0,0.0,1.0,0.0,0.0,0.0,1.0,-0.718505859375,0.233514404297,10.1033898926,0.1,0.0,0.0,0.0,0.1,0.0,0.0,0.0,0.1
1446036232403123095,138,1446036232399818897,robocape,-1.99674721899,12.7299044309,-1.99674721899,0.0,10.0,0.0,0.0,0.0,10.0,0.0,0.0,0.0,10.0,-0.104529072786,0.031957933081,-0.00825579937925,1.0,0.0,0.0,0.0,1.0,0.0,0.0,0.0,1.0,0.0419128417969,0.0886157226563,9.89861572266,0.1,0.0,0.0,0.0,0.1,0.0,0.0,0.0,0.1
1446036232436681637,139,1446036232433247089,robocape,-2.2349757213,12.7311937207,-2.2349757213,0.0,10.0,0.0,0.0,0.0,10.0,0.0,0.0,0.0,10.0,-0.122904884307,0.0157126504315,-0.00719053494321,1.0,0.0,0.0,0.0,1.0,0.0,0.0,0.0,1.0,0.749641113281,0.468226318359,9.81718505859,0.1,0.0,0.0,0.0,0.1,0.0,0.0,0.0,0.1
1446036232469021595,140,1446036232465691089,robocape,-2.59571977666,12.7144923469,-2.59571977666,0.0,10.0,0.0,0.0,0.0,10.0,0.0,0.0,0.0,10.0,-0.179630215526,0.00732369299772,-0.0422111032778,1.0,0.0,0.0,0.0,1.0,0.0,0.0,0.0,1.0,1.32564331055,0.289797363281,9.9213684082,0.1,0.0,0.0,0.0,0.1,0.0,0.0,0.0,0.1
1446036232503282887,141,1446036232499965906,robocape,-3.1190797865,12.6856149386,-3.1190797865,0.0,10.0,0.0,0.0,0.0,10.0,0.0,0.0,0.0,10.0,-0.265384002626,0.00173105470855,-0.0426105774413,1.0,0.0,0.0,0.0,1.0,0.0,0.0,0.0,1.0,0.729283447266,0.298179931641,9.87227050781,0.1,0.0,0.0,0.0,0.1,0.0,0.0,0.0,0.1
1446036232534833429,142,1446036232531449079,robocape,-3.81473368124,12.6676629218,-3.81473368124,0.0,10.0,0.0,0.0,0.0,10.0,0.0,0.0,0.0,10.0,-0.369779917358,0.00639158661619,0.016112124595,1.0,0.0,0.0,0.0,1.0,0.0,0.0,0.0,1.0,0.984353027344,-0.108973388672,10.0004040527,0.1,0.0,0.0,0.0,0.1,0.0,0.0,0.0,0.1
1446036232569555679,143,1446036232566108942,robocape,-4.43693762018,12.6556574967,-4.43693762018,0.0,10.0,0.0,0.0,0.0,10.0,0.0,0.0,0.0,10.0,-0.325438285208,0.0110521185238,-0.0129163312869,1.0,0.0,0.0,0.0,1.0,0.0,0.0,0.0,1.0,-0.24908203125,-1.76153686523,10.0974023437,0.1,0.0,0.0,0.0,0.1,0.0,0.0,0.0,0.1
1446036232602546929,144,1446036232599277973,robocape,-4.73175633321,12.6564143372,-4.73175633321,0.0,10.0,0.0,0.0,0.0,10.0,0.0,0.0,0.0,10.0,-0.158990717078,0.015845808486,0.00838895743375,1.0,0.0,0.0,0.0,1.0,0.0,0.0,0.0,1.0,-0.445473632813,-1.17475708008,9.98723144531,0.1,0.0,0.0,0.0,0.1,0.0,0.0,0.0,0.1
1446036232635250345,145,1446036232632046937,robocape,-4.79753894339,12.6537404742,-4.79753894339,0.0,10.0,0.0,0.0,0.0,10.0,0.0,0.0,0.0,10.0,-0.0323574072445,0.0150468601589,-0.0207726565026,1.0,0.0,0.0,0.0,1.0,0.0,0.0,0.0,1.0,-0.202379150391,-1.6477734375,10.0435144043,0.1,0.0,0.0,0.0,0.1,0.0,0.0,0.0,0.1
1446036232669441554,146,1446036232666368961,robocape,-4.60792526688,12.6562763531,-4.60792526688,0.0,10.0,0.0,0.0,0.0,10.0,0.0,0.0,0.0,10.0,0.0892158965177,0.0134489635049,0.034088461953,1.0,0.0,0.0,0.0,1.0,0.0,0.0,0.0,1.0,-2.39382202148,-1.1076965332,10.3249291992,0.1,0.0,0.0,0.0,0.1,0.0,0.0,0.0,0.1
1446036232701806095,147,1446036232698365926,robocape,-4.23060942191,12.6584627636,-4.23060942191,0.0,10.0,0.0,0.0,0.0,10.0,0.0,0.0,0.0,10.0,0.207859723081,0.0175768631945,-0.0529969056926,1.0,0.0,0.0,0.0,1.0,0.0,0.0,0.0,1.0,-2.10522216797,-1.55676269531,10.3141516113,0.1,0.0,0.0,0.0,0.1,0.0,0.0,0.0,0.1
1446036232735762804,148,1446036232732705116,robocape,-3.74134541538,12.6794336274,-3.74134541538,0.0,10.0,0.0,0.0,0.0,10.0,0.0,0.0,0.0,10.0,0.241948185034,0.0213052887206,0.0575242795457,1.0,0.0,0.0,0.0,1.0,0.0,0.0,0.0,1.0,-1.4980847168,-0.607137451172,10.0423168945,0.1,0.0,0.0,0.0,0.1,0.0,0.0,0.0,0.1
1446036232768385220,149,1446036232765252113,robocape,-3.3260245976,12.7163027138,-3.3260245976,0.0,10.0,0.0,0.0,0.0,10.0,0.0,0.0,0.0,10.0,0.240749762543,0.0371510972066,-0.105461179167,1.0,0.0,0.0,0.0,1.0,0.0,0.0,0.0,1.0,-2.56865844727,-1.81542480469,10.039921875,0.1,0.0,0.0,0.0,0.1,0.0,0.0,0.0,0.1
1446036232802110637,150,1446036232798860073,robocape,-2.81618757474,12.931531426,-2.81618757474,0.0,10.0,0.0,0.0,0.0,10.0,0.0,0.0,0.0,10.0,0.272441379515,0.127964890378,-0.0199737081756,1.0,0.0,0.0,0.0,1.0,0.0,0.0,0.0,1.0,-1.5711328125,-0.0874182128906,10.4195324707,0.1,0.0,0.0,0.0,0.1,0.0,0.0,0.0,0.1
1446036232834321762,151,1446036232831299066,robocape,-2.60180893786,13.0548729867,-2.60180893786,0.0,10.0,0.0,0.0,0.0,10.0,0.0,0.0,0.0,10.0,0.120641197381,0.0804274649204,-0.0342216200075,1.0,0.0,0.0,0.0,1.0,0.0,0.0,0.0,1.0,-1.63220581055,0.911304931641,10.7320825195,0.1,0.0,0.0,0.0,0.1,0.0,0.0,0.0,0.1
1446036232868791304,152,1446036232865735054,robocape,-2.76920463439,13.0980116699,-2.76920463439,0.0,10.0,0.0,0.0,0.0,10.0,0.0,0.0,0.0,10.0,-0.0812264132474,0.0387489938607,-0.0283626656093,1.0,0.0,0.0,0.0,1.0,0.0,0.0,0.0,1.0,-2.4489074707,0.817899169922,10.1476977539,0.1,0.0,0.0,0.0,0.1,0.0,0.0,0.0,0.1
1446036232901304845,153,1446036232897864103,robocape,-3.31020526558,13.0792407263,-3.31020526558,0.0,10.0,0.0,0.0,0.0,10.0,0.0,0.0,0.0,10.0,-0.277501385586,0.00719053494321,-0.0298274042089,1.0,0.0,0.0,0.0,1.0,0.0,0.0,0.0,1.0,-1.9579284668,0.158071289063,10.0099841309,0.1,0.0,0.0,0.0,0.1,0.0,0.0,0.0,0.1
1446036232934710679,154,1446036232931477069,robocape,-4.34919402013,12.9968748706,-4.34919402013,0.0,10.0,0.0,0.0,0.0,10.0,0.0,0.0,0.0,10.0,-0.592553342543,-0.0347542522255,0.192946020976,1.0,0.0,0.0,0.0,1.0,0.0,0.0,0.0,1.0,-0.405955810547,2.77463012695,9.63636108398,0.1,0.0,0.0,0.0,0.1,0.0,0.0,0.0,0.1
1446036232966955845,155,1446036232963658094,robocape,-5.94150767421,13.0752087808,-5.94150767421,0.0,10.0,0.0,0.0,0.0,10.0,0.0,0.0,0.0,10.0,-0.951813773594,0.0303600364269,0.477371625397,1.0,0.0,0.0,0.0,1.0,0.0,0.0,0.0,1.0,-2.13635742188,2.84648071289,10.6973547363,0.1,0.0,0.0,0.0,0.1,0.0,0.0,0.0,0.1
1446036232999865470,156,1446036232996431112,robocape,-8.73361847168,13.1969599124,-8.73361847168,0.0,10.0,0.0,0.0,0.0,10.0,0.0,0.0,0.0,10.0,-1.72173364474,-0.0110521185238,1.01479753337,1.0,0.0,0.0,0.0,1.0,0.0,0.0,0.0,1.0,-1.58071289063,1.43820922852,9.63636108398,0.1,0.0,0.0,0.0,0.1,0.0,0.0,0.0,0.1
1446036233032962470,157,1446036233029874086,robocape,-12.5099764162,13.187863661,-12.5099764162,0.0,10.0,0.0,0.0,0.0,10.0,0.0,0.0,0.0,10.0,-2.26794798431,-0.123038042362,1.02758070661,1.0,0.0,0.0,0.0,1.0,0.0,0.0,0.0,1.0,-2.04893920898,0.700543212891,8.07121582031,0.1,0.0,0.0,0.0,0.1,0.0,0.0,0.0,0.1
1446036233066123970,158,1446036233063009977,robocape,-17.5059675188,13.2109519774,-17.5059675188,0.0,10.0,0.0,0.0,0.0,10.0,0.0,0.0,0.0,10.0,-2.93160772796,-0.132225948122,0.940229022852,1.0,0.0,0.0,0.0,1.0,0.0,0.0,0.0,1.0,-1.69687133789,1.17355957031,8.47956665039,0.1,0.0,0.0,0.0,0.1,0.0,0.0,0.0,0.1
1446036233099187637,159,1446036233095942020,robocape,-23.2873722362,13.2536225572,-23.2873722362,0.0,10.0,0.0,0.0,0.0,10.0,0.0,0.0,0.0,10.0,-3.3511887577,-0.0873516837546,0.702142421399,1.0,0.0,0.0,0.0,1.0,0.0,0.0,0.0,1.0,-1.22026245117,1.7591418457,7.0473449707,0.1,0.0,0.0,0.0,0.1,0.0,0.0,0.0,0.1
1446036233132333095,160,1446036233129291057,robocape,-30.2225181392,13.0391053054,-30.2225181392,0.0,10.0,0.0,0.0,0.0,10.0,0.0,0.0,0.0,10.0,-4.08102805444,-0.21611552246,0.636495500529,1.0,0.0,0.0,0.0,1.0,0.0,0.0,0.0,1.0,-0.558039550781,2.00702636719,5.03073852539,0.1,0.0,0.0,0.0,0.1,0.0,0.0,0.0,0.1
1446036233165999721,161,1446036233163007974,robocape,-34.676025814,11.2707828584,-34.676025814,0.0,10.0,0.0,0.0,0.0,10.0,0.0,0.0,0.0,10.0,-2.33918754347,-0.315318273065,-1.05314705307,1.0,0.0,0.0,0.0,1.0,0.0,0.0,0.0,1.0,1.18313964844,-19.62,10.8099206543,0.1,0.0,0.0,0.0,0.1,0.0,0.0,0.0,0.1
1446036233204768762,162,1446036233197659969,robocape,-33.9376448584,10.5998367292,-33.9376448584,0.0,10.0,0.0,0.0,0.0,10.0,0.0,0.0,0.0,10.0,0.649012357652,0.27643612115,-1.08710235697,1.0,0.0,0.0,0.0,1.0,0.0,0.0,0.0,1.0,4.75171875,-9.71060668945,7.30241455078,0.1,0.0,0.0,0.0,0.1,0.0,0.0,0.0,0.1
1446036233235362262,163,1446036233232270956,robocape,-33.2755566876,11.2574781153,-33.2755566876,0.0,10.0,0.0,0.0,0.0,10.0,0.0,0.0,0.0,10.0,0.533697482452,0.784300941028,-0.569916473277,1.0,0.0,0.0,0.0,1.0,0.0,0.0,0.0,1.0,-3.45840820313,-1.82021484375,6.99225952148,0.1,0.0,0.0,0.0,0.1,0.0,0.0,0.0,0.1
1446036233266146887,164,1446036233263123035,robocape,-33.1998553579,11.4143454646,-33.1998553579,0.0,10.0,0.0,0.0,0.0,10.0,0.0,0.0,0.0,10.0,0.235822914527,0.609730731574,-0.779107776903,1.0,0.0,0.0,0.0,1.0,0.0,0.0,0.0,1.0,0.01916015625,-4.20206176758,11.2541967773,0.1,0.0,0.0,0.0,0.1,0.0,0.0,0.0,0.1
1446036233298623596,165,1446036233295639038,robocape,-34.0999038297,11.4300302027,-34.0999038297,0.0,10.0,0.0,0.0,0.0,10.0,0.0,0.0,0.0,10.0,-0.397609950749,0.418515765306,-0.551540661755,1.0,0.0,0.0,0.0,1.0,0.0,0.0,0.0,1.0,-0.608334960938,-1.50526977539,8.40651855469,0.1,0.0,0.0,0.0,0.1,0.0,0.0,0.0,0.1
1446036233332223804,166,1446036233329232931,robocape,-34.7275293366,11.4801739259,-34.7275293366,0.0,10.0,0.0,0.0,0.0,10.0,0.0,0.0,0.0,10.0,-0.187220224633,0.559929619189,-0.730904561172,1.0,0.0,0.0,0.0,1.0,0.0,0.0,0.0,1.0,2.59021362305,-4.04518798828,9.55972045898,0.1,0.0,0.0,0.0,0.1,0.0,0.0,0.0,0.1
1446036233365588304,167,1446036233362585067,robocape,-35.3610384818,11.3683125418,-35.3610384818,0.0,10.0,0.0,0.0,0.0,10.0,0.0,0.0,0.0,10.0,-0.222507109076,0.435027364064,-0.678173971589,1.0,0.0,0.0,0.0,1.0,0.0,0.0,0.0,1.0,0.580792236328,-6.74677001953,8.15025146484,0.1,0.0,0.0,0.0,0.1,0.0,0.0,0.0,0.1
1446036233398825471,168,1446036233395814895,robocape,-35.5152147616,11.2274870933,-35.5152147616,0.0,10.0,0.0,0.0,0.0,10.0,0.0,0.0,0.0,10.0,0.0814927293564,0.490554272793,-0.797483588424,1.0,0.0,0.0,0.0,1.0,0.0,0.0,0.0,1.0,0.609532470703,-6.44739257813,8.09277099609,0.1,0.0,0.0,0.0,0.1,0.0,0.0,0.0,0.1
1446036233432183929,169,1446036233429169893,robocape,-35.8754410808,11.4192078398,-35.8754410808,0.0,10.0,0.0,0.0,0.0,10.0,0.0,0.0,0.0,10.0,-0.0812264132474,0.56911752495,-0.580302801528,1.0,0.0,0.0,0.0,1.0,0.0,0.0,0.0,1.0,1.87530029297,-6.55516845703,9.13939453125,0.1,0.0,0.0,0.0,0.1,0.0,0.0,0.0,0.1
1446036233465718346,170,1446036233462656021,robocape,-36.4819992195,11.3060313804,-36.4819992195,0.0,10.0,0.0,0.0,0.0,10.0,0.0,0.0,0.0,10.0,-0.269245586207,0.336090929568,-0.508663768205,1.0,0.0,0.0,0.0,1.0,0.0,0.0,0.0,1.0,0.559237060547,-1.86212768555,7.6257421875,0.1,0.0,0.0,0.0,0.1,0.0,0.0,0.0,0.1
1446036233498889721,171,1446036233495820999,robocape,-36.9438712019,11.119692273,-36.9438712019,0.0,10.0,0.0,0.0,0.0,10.0,0.0,0.0,0.0,10.0,-0.141280695829,0.423975245541,-0.692954515639,1.0,0.0,0.0,0.0,1.0,0.0,0.0,0.0,1.0,0.868194580078,-6.57073608398,8.58854003906,0.1,0.0,0.0,0.0,0.1,0.0,0.0,0.0,0.1
1446036233532352721,172,1446036233529107093,robocape,-37.2148543391,11.0981416184,-37.2148543391,0.0,10.0,0.0,0.0,0.0,10.0,0.0,0.0,0.0,10.0,-0.0545948023466,0.45766423333,-0.588159126744,1.0,0.0,0.0,0.0,1.0,0.0,0.0,0.0,1.0,-1.25139770508,-3.92304199219,8.32868041992,0.1,0.0,0.0,0.0,0.1,0.0,0.0,0.0,0.1
1446036233565458221,173,1446036233562393903,robocape,-37.3880401924,10.6751295122,-37.3880401924,0.0,10.0,0.0,0.0,0.0,10.0,0.0,0.0,0.0,10.0,0.0175768631945,0.323840388554,-0.764327232853,1.0,0.0,0.0,0.0,1.0,0.0,0.0,0.0,1.0,3.4907409668,-6.54199584961,6.09053466797,0.1,0.0,0.0,0.0,0.1,0.0,0.0,0.0,0.1
1446036233598722762,174,1446036233595678091,robocape,-37.675125187,10.6609130676,-37.675125187,0.0,10.0,0.0,0.0,0.0,10.0,0.0,0.0,0.0,10.0,-0.108656972475,0.379500455336,-0.467917403527,1.0,0.0,0.0,0.0,1.0,0.0,0.0,0.0,1.0,1.58670043945,-7.32756225586,8.82205444336,0.1,0.0,0.0,0.0,0.1,0.0,0.0,0.0,0.1
1446036233633974762,175,1446036233630883932,robocape,-37.920833361,10.3539076817,-37.920833361,0.0,10.0,0.0,0.0,0.0,10.0,0.0,0.0,0.0,10.0,-0.0788295682663,0.271908747297,-0.580036485419,1.0,0.0,0.0,0.0,1.0,0.0,0.0,0.0,1.0,0.987945556641,-6.51205810547,8.59213256836,0.1,0.0,0.0,0.0,0.1,0.0,0.0,0.0,0.1
1446036233665499012,176,1446036233662457942,robocape,-37.8974242467,10.4095958446,-37.8974242467,0.0,10.0,0.0,0.0,0.0,10.0,0.0,0.0,0.0,10.0,0.0209058145571,0.279898230567,-0.281496127221,1.0,0.0,0.0,0.0,1.0,0.0,0.0,0.0,1.0,-0.841849365234,-3.5637890625,8.15384399414,0.1,0.0,0.0,0.0,0.1,0.0,0.0,0.0,0.1
1446036233698683429,177,1446036233695657968,robocape,-37.9804973541,10.4063384331,-37.9804973541,0.0,10.0,0.0,0.0,0.0,10.0,0.0,0.0,0.0,10.0,-0.0448742643678,0.245809768614,-0.285224552747,1.0,0.0,0.0,0.0,1.0,0.0,0.0,0.0,1.0,-0.536484375,-5.73726928711,7.35031494141,0.1,0.0,0.0,0.0,0.1,0.0,0.0,0.0,0.1
1446036233732352721,178,1446036233729372024,robocape,-38.0920589259,10.5457158971,-38.0920589259,0.0,10.0,0.0,0.0,0.0,10.0,0.0,0.0,0.0,10.0,-0.0790958843754,0.262853999591,-0.182160218561,1.0,0.0,0.0,0.0,1.0,0.0,0.0,0.0,1.0,1.47054199219,-4.80800170898,8.6987109375,0.1,0.0,0.0,0.0,0.1,0.0,0.0,0.0,0.1
1446036233765566929,179,1446036233762480020,robocape,-38.5154619604,10.5809112742,-38.5154619604,0.0,10.0,0.0,0.0,0.0,10.0,0.0,0.0,0.0,10.0,-0.270577166752,0.198272343156,-0.177899160817,1.0,0.0,0.0,0.0,1.0,0.0,0.0,0.0,1.0,1.95912597656,-9.76688964844,9.30704589844,0.1,0.0,0.0,0.0,0.1,0.0,0.0,0.0,0.1
1446036233798595887,180,1446036233795612096,robocape,-38.5771105292,10.8236112247,-38.5771105292,0.0,10.0,0.0,0.0,0.0,10.0,0.0,0.0,0.0,10.0,-0.105461179167,0.149270179099,0.0532632218016,1.0,0.0,0.0,0.0,1.0,0.0,0.0,0.0,1.0,0.147293701172,-5.52531005859,7.18984863281,0.1,0.0,0.0,0.0,0.1,0.0,0.0,0.0,0.1
1446036233832137804,181,1446036233829138040,robocape,-38.8304034614,10.9895736898,-38.8304034614,0.0,10.0,0.0,0.0,0.0,10.0,0.0,0.0,0.0,10.0,-0.227034482929,0.0930774800983,0.0652474467069,1.0,0.0,0.0,0.0,1.0,0.0,0.0,0.0,1.0,-0.974772949219,-4.57448730469,8.90827514648,0.1,0.0,0.0,0.0,0.1,0.0,0.0,0.0,0.1
1446036233865253429,182,1446036233862205028,robocape,-39.1096646872,11.0158353048,-39.1096646872,0.0,10.0,0.0,0.0,0.0,10.0,0.0,0.0,0.0,10.0,-0.195609182066,0.172306522528,-0.150335443535,1.0,0.0,0.0,0.0,1.0,0.0,0.0,0.0,1.0,2.1495300293,-8.18258422852,5.80672485352,0.1,0.0,0.0,0.0,0.1,0.0,0.0,0.0,0.1
1446036233898632971,183,1446036233895457983,robocape,-39.0573466707,11.1681211019,-39.0573466707,0.0,10.0,0.0,0.0,0.0,10.0,0.0,0.0,0.0,10.0,-0.00745685105222,0.205063403936,-0.0934769542618,1.0,0.0,0.0,0.0,1.0,0.0,0.0,0.0,1.0,-1.87649780273,-7.53233642578,8.047265625,0.1,0.0,0.0,0.0,0.1,0.0,0.0,0.0,0.1
1446036233932698179,184,1446036233929251909,robocape,-38.8019477991,11.3717190075,-38.8019477991,0.0,10.0,0.0,0.0,0.0,10.0,0.0,0.0,0.0,10.0,0.050466902657,0.0408795227327,0.148071756608,1.0,0.0,0.0,0.0,1.0,0.0,0.0,0.0,1.0,-2.42735229492,-4.5601171875,8.88791748047,0.1,0.0,0.0,0.0,0.1,0.0,0.0,0.0,0.1
1446036233965658304,185,1446036233962243080,robocape,-38.7110032737,11.1298741199,-38.7110032737,0.0,10.0,0.0,0.0,0.0,10.0,0.0,0.0,0.0,10.0,0.0280963495003,0.0524642734746,-0.239817656162,1.0,0.0,0.0,0.0,1.0,0.0,0.0,0.0,1.0,-1.73519165039,-6.53002075195,7.93469970703,0.1,0.0,0.0,0.0,0.1,0.0,0.0,0.0,0.1
1446036233998655346,186,1446036233995527029,robocape,-38.4555722626,10.9328887583,-38.4555722626,0.0,10.0,0.0,0.0,0.0,10.0,0.0,0.0,0.0,10.0,0.137685428357,0.109589078857,-0.280297704731,1.0,0.0,0.0,0.0,1.0,0.0,0.0,0.0,1.0,-1.55197265625,-6.35039428711,9.23040527344,0.1,0.0,0.0,0.0,0.1,0.0,0.0,0.0,0.1
1446036234032238888,187,1446036234029014110,robocape,-37.9583921842,10.5176914649,-37.9583921842,0.0,10.0,0.0,0.0,0.0,10.0,0.0,0.0,0.0,10.0,0.335425139295,0.177233370545,-0.564323834988,1.0,0.0,0.0,0.0,1.0,0.0,0.0,0.0,1.0,-0.446671142578,-2.86923339844,8.72146362305,0.1,0.0,0.0,0.0,0.1,0.0,0.0,0.0,0.1
1446036234065509846,188,1446036234062258958,robocape,-37.8234162283,10.0529682892,-37.8234162283,0.0,10.0,0.0,0.0,0.0,10.0,0.0,0.0,0.0,10.0,0.171374416147,0.333427768478,-0.804674123367,1.0,0.0,0.0,0.0,1.0,0.0,0.0,0.0,1.0,0.680185546875,-4.40444091797,8.20773193359,0.1,0.0,0.0,0.0,0.1,0.0,0.0,0.0,0.1
1446036234098622054,189,1446036234095547914,robocape,-38.4374367369,9.57589995248,-38.4374367369,0.0,10.0,0.0,0.0,0.0,10.0,0.0,0.0,0.0,10.0,-0.30866037034,0.241149236707,-0.676576074935,1.0,0.0,0.0,0.0,1.0,0.0,0.0,0.0,1.0,-0.0299377441406,-4.30504760742,10.4770129395,0.1,0.0,0.0,0.0,0.1,0.0,0.0,0.0,0.1
1446036234132251513,190,1446036234129189014,robocape,-39.165783367,9.39997975612,-39.165783367,0.0,10.0,0.0,0.0,0.0,10.0,0.0,0.0,0.0,10.0,-0.300404570961,0.724113500393,-1.00987068536,1.0,0.0,0.0,0.0,1.0,0.0,0.0,0.0,1.0,3.45721069336,-8.74182128906,8.13228881836,0.1,0.0,0.0,0.0,0.1,0.0,0.0,0.0,0.1
1446036234165692096,191,1446036234162532091,robocape,-39.351137829,9.57872722657,-39.351137829,0.0,10.0,0.0,0.0,0.0,10.0,0.0,0.0,0.0,10.0,-0.083756416283,0.515854303148,-0.45646581084,1.0,0.0,0.0,0.0,1.0,0.0,0.0,0.0,1.0,1.65974853516,-5.93366088867,10.5596411133,0.1,0.0,0.0,0.0,0.1,0.0,0.0,0.0,0.1
1446036234205659429,192,1446036234195749044,robocape,-39.4128736403,9.47080501419,-39.4128736403,0.0,10.0,0.0,0.0,0.0,10.0,0.0,0.0,0.0,10.0,-0.0107858024148,0.399207847403,-0.552739084246,1.0,0.0,0.0,0.0,1.0,0.0,0.0,0.0,1.0,0.3065625,-0.147293701172,6.22585327148,0.1,0.0,0.0,0.0,0.1,0.0,0.0,0.0,0.1
1446036234232780679,193,1446036234229307889,robocape,-39.6042310293,9.02496721485,-39.6042310293,0.0,10.0,0.0,0.0,0.0,10.0,0.0,0.0,0.0,10.0,-0.0525974315291,0.437291050991,-0.874848418091,1.0,0.0,0.0,0.0,1.0,0.0,0.0,0.0,1.0,-0.758023681641,-5.28940063477,10.0662670898,0.1,0.0,0.0,0.0,0.1,0.0,0.0,0.0,0.1
1446036234266913721,194,1446036234263649940,robocape,-39.9742095739,8.99545137656,-39.9742095739,0.0,10.0,0.0,0.0,0.0,10.0,0.0,0.0,0.0,10.0,-0.191481282377,0.526640105563,-0.63356602333,1.0,0.0,0.0,0.0,1.0,0.0,0.0,0.0,1.0,-0.741258544922,-7.88440429688,9.6183984375,0.1,0.0,0.0,0.0,0.1,0.0,0.0,0.0,0.1
1446036234298891929,195,1446036234295903921,robocape,-40.4092020906,8.87205854507,-40.4092020906,0.0,10.0,0.0,0.0,0.0,10.0,0.0,0.0,0.0,10.0,-0.235023966199,0.50733218766,-0.679771868243,1.0,0.0,0.0,0.0,1.0,0.0,0.0,0.0,1.0,0.378413085938,-3.76616821289,8.31431030273,0.1,0.0,0.0,0.0,0.1,0.0,0.0,0.0,0.1
1446036234332467429,196,1446036234329441070,robocape,-40.5805378469,8.63905074785,-40.5805378469,0.0,10.0,0.0,0.0,0.0,10.0,0.0,0.0,0.0,10.0,-0.0764327232853,0.526773263618,-0.789227789045,1.0,0.0,0.0,0.0,1.0,0.0,0.0,0.0,1.0,0.176033935547,-4.37330566406,7.71914794922,0.1,0.0,0.0,0.0,0.1,0.0,0.0,0.0,0.1
1446036234365408263,197,1446036234362366914,robocape,-41.0237794565,8.71729605792,-41.0237794565,0.0,10.0,0.0,0.0,0.0,10.0,0.0,0.0,0.0,10.0,-0.257527677411,0.606934412429,-0.62557654006,1.0,0.0,0.0,0.0,1.0,0.0,0.0,0.0,1.0,-0.922082519531,-6.34799926758,10.2913989258,0.1,0.0,0.0,0.0,0.1,0.0,0.0,0.0,0.1
1446036234398919221,198,1446036234395915031,robocape,-41.4430310004,8.61615168017,-41.4430310004,0.0,10.0,0.0,0.0,0.0,10.0,0.0,0.0,0.0,10.0,-0.233426069545,0.653007099287,-0.813995187183,1.0,0.0,0.0,0.0,1.0,0.0,0.0,0.0,1.0,0.107775878906,-3.31470703125,8.29874267578,0.1,0.0,0.0,0.0,0.1,0.0,0.0,0.0,0.1
1446036234432565013,199,1446036234429440975,robocape,-41.5962413024,8.35927176847,-41.5962413024,0.0,10.0,0.0,0.0,0.0,10.0,0.0,0.0,0.0,10.0,-0.0789627263208,0.654338679832,-0.936633755381,1.0,0.0,0.0,0.0,1.0,0.0,0.0,0.0,1.0,3.53265380859,-2.24772583008,7.3994128418,0.1,0.0,0.0,0.0,0.1,0.0,0.0,0.0,0.1
1446036234465673096,200,1446036234462599039,robocape,-41.3877721905,7.9995788641,-41.3877721905,0.0,10.0,0.0,0.0,0.0,10.0,0.0,0.0,0.0,10.0,0.119975407108,0.602140722467,-0.965795369317,1.0,0.0,0.0,0.0,1.0,0.0,0.0,0.0,1.0,1.51365234375,-5.40196655273,7.40899291992,0.1,0.0,0.0,0.0,0.1,0.0,0.0,0.0,0.1
1446036234498887804,201,1446036234495815038,robocape,-41.5769869418,8.185059161,-41.5769869418,0.0,10.0,0.0,0.0,0.0,10.0,0.0,0.0,0.0,10.0,-0.132225948122,0.776577773867,-0.736497199461,1.0,0.0,0.0,0.0,1.0,0.0,0.0,0.0,1.0,2.62733642578,-3.35422485352,10.3800146484,0.1,0.0,0.0,0.0,0.1,0.0,0.0,0.0,0.1
1446036234532637596,202,1446036234529304981,robocape,-41.805910269,7.98913954417,-41.805910269,0.0,10.0,0.0,0.0,0.0,10.0,0.0,0.0,0.0,10.0,-0.160721771786,0.686429770968,-0.936766913435,1.0,0.0,0.0,0.0,1.0,0.0,0.0,0.0,1.0,2.8740234375,-6.20190307617,9.20286254883,0.1,0.0,0.0,0.0,0.1,0.0,0.0,0.0,0.1
1446036234565588763,203,1446036234562482118,robocape,-42.1028422118,7.64560441876,-42.1028422118,0.0,10.0,0.0,0.0,0.0,10.0,0.0,0.0,0.0,10.0,-0.225170270166,0.560595409462,-0.913331095843,1.0,0.0,0.0,0.0,1.0,0.0,0.0,0.0,1.0,3.58893676758,-7.19344116211,5.37202880859,0.1,0.0,0.0,0.0,0.1,0.0,0.0,0.0,0.1
1446036234598891180,204,1446036234595844030,robocape,-41.7657989878,7.53635531857,-41.7657989878,0.0,10.0,0.0,0.0,0.0,10.0,0.0,0.0,0.0,10.0,0.151267549917,0.786564627955,-0.984437496948,1.0,0.0,0.0,0.0,1.0,0.0,0.0,0.0,1.0,0.208366699219,-7.32875976563,10.591973877,0.1,0.0,0.0,0.0,0.1,0.0,0.0,0.0,0.1
1446036234632657638,205,1446036234629359960,robocape,-42.2999568348,6.60204404477,-42.2999568348,0.0,10.0,0.0,0.0,0.0,10.0,0.0,0.0,0.0,10.0,-0.395213105768,0.536493801596,-1.37831902217,1.0,0.0,0.0,0.0,1.0,0.0,0.0,0.0,1.0,4.18529663086,-10.9691894531,10.382409668,0.1,0.0,0.0,0.0,0.1,0.0,0.0,0.0,0.1
1446036234665842346,206,1446036234662828922,robocape,-43.5353394106,6.65991414195,-43.5353394106,0.0,10.0,0.0,0.0,0.0,10.0,0.0,0.0,0.0,10.0,-0.836232582285,1.13716978546,-1.26113993421,1.0,0.0,0.0,0.0,1.0,0.0,0.0,0.0,1.0,2.2644909668,-3.11831542969,3.64761474609,0.1,0.0,0.0,0.0,0.1,0.0,0.0,0.0,0.1
1446036234698816055,207,1446036234695816993,robocape,-42.87162437,6.87229023157,-42.87162437,0.0,10.0,0.0,0.0,0.0,10.0,0.0,0.0,0.0,10.0,0.287088765511,1.14529242679,-1.11613081285,1.0,0.0,0.0,0.0,1.0,0.0,0.0,0.0,1.0,0.512534179688,-5.34688110352,12.3786584473,0.1,0.0,0.0,0.0,0.1,0.0,0.0,0.0,0.1
1446036234732792013,208,1446036234729460000,robocape,-42.6612983541,6.9968556291,-42.6612983541,0.0,10.0,0.0,0.0,0.0,10.0,0.0,0.0,0.0,10.0,0.0034621094171,0.414254707562,-0.399074689348,1.0,0.0,0.0,0.0,1.0,0.0,0.0,0.0,1.0,0.152083740234,-1.72680908203,7.22457641602,0.1,0.0,0.0,0.0,0.1,0.0,0.0,0.0,0.1
1446036234765851221,209,1446036234762698888,robocape,-42.8094801435,7.05507940694,-42.8094801435,0.0,10.0,0.0,0.0,0.0,10.0,0.0,0.0,0.0,10.0,-0.212253938879,0.471512670999,-0.526906421672,1.0,0.0,0.0,0.0,1.0,0.0,0.0,0.0,1.0,-0.488583984375,-2.71116210938,7.37546264648,0.1,0.0,0.0,0.0,0.1,0.0,0.0,0.0,0.1
1446036234798738430,210,1446036234795747041,robocape,-42.9007005429,6.75433530349,-42.9007005429,0.0,10.0,0.0,0.0,0.0,10.0,0.0,0.0,0.0,10.0,-0.189750227668,0.359526747161,-0.688826615949,1.0,0.0,0.0,0.0,1.0,0.0,0.0,0.0,1.0,0.639470214844,-7.35510498047,9.04479125977,0.1,0.0,0.0,0.0,0.1,0.0,0.0,0.0,0.1
1446036234832144013,211,1446036234829107999,robocape,-42.8708071502,6.90985073793,-42.8708071502,0.0,10.0,0.0,0.0,0.0,10.0,0.0,0.0,0.0,10.0,-0.113716978546,0.374307291211,-0.341816725912,1.0,0.0,0.0,0.0,1.0,0.0,0.0,0.0,1.0,0.963995361328,-3.89669677734,8.52746704102,0.1,0.0,0.0,0.0,0.1,0.0,0.0,0.0,0.1
1446036234865538680,212,1446036234862464904,robocape,-42.6436658716,6.52008400494,-42.6436658716,0.0,10.0,0.0,0.0,0.0,10.0,0.0,0.0,0.0,10.0,-0.0099868540878,0.313320902248,-0.710265062724,1.0,0.0,0.0,0.0,1.0,0.0,0.0,0.0,1.0,2.27526855469,-6.56834106445,7.23535400391,0.1,0.0,0.0,0.0,0.1,0.0,0.0,0.0,0.1
1446036234898572971,213,1446036234895570039,robocape,-42.628878862,6.51061035192,-42.628878862,0.0,10.0,0.0,0.0,0.0,10.0,0.0,0.0,0.0,10.0,-0.133557528667,0.386824148334,-0.500674284935,1.0,0.0,0.0,0.0,1.0,0.0,0.0,0.0,1.0,-0.355660400391,-5.11695922852,9.01605102539,0.1,0.0,0.0,0.0,0.1,0.0,0.0,0.0,0.1
1446036234932526471,214,1446036234929450035,robocape,-42.5644461029,6.43562811762,-42.5644461029,0.0,10.0,0.0,0.0,0.0,10.0,0.0,0.0,0.0,10.0,-0.10732539193,0.332628820151,-0.493883224155,1.0,0.0,0.0,0.0,1.0,0.0,0.0,0.0,1.0,-0.0407153320313,-2.23455322266,6.84855834961,0.1,0.0,0.0,0.0,0.1,0.0,0.0,0.0,0.1
1446036234965377263,215,1446036234962380886,robocape,-42.4092323973,6.26658804962,-42.4092323973,0.0,10.0,0.0,0.0,0.0,10.0,0.0,0.0,0.0,10.0,-0.0633832339439,0.434494731846,-0.692555041475,1.0,0.0,0.0,0.0,1.0,0.0,0.0,0.0,1.0,1.28732299805,-5.23671020508,7.88560180664,0.1,0.0,0.0,0.0,0.1,0.0,0.0,0.0,0.1
1446036234998573305,216,1446036234995531082,robocape,-42.5808015767,6.17025582988,-42.5808015767,0.0,10.0,0.0,0.0,0.0,10.0,0.0,0.0,0.0,10.0,-0.25366609383,0.284292446366,-0.472045303217,1.0,0.0,0.0,0.0,1.0,0.0,0.0,0.0,1.0,1.98786621094,-5.37083129883,7.11919555664,0.1,0.0,0.0,0.0,0.1,0.0,0.0,0.0,0.1
1446036235032338680,217,1446036235029072046,robocape,-42.3408604466,6.09627805018,-42.3408604466,0.0,10.0,0.0,0.0,0.0,10.0,0.0,0.0,0.0,10.0,-0.0215716048296,0.479768470378,-0.676043442717,1.0,0.0,0.0,0.0,1.0,0.0,0.0,0.0,1.0,5.27383300781,-4.54095703125,7.76944335938,0.1,0.0,0.0,0.0,0.1,0.0,0.0,0.0,0.1
1446036235065571430,218,1446036235062241077,robocape,-42.0563690619,5.94223976106,-42.0563690619,0.0,10.0,0.0,0.0,0.0,10.0,0.0,0.0,0.0,10.0,0.00719053494321,0.30186930956,-0.53955643685,1.0,0.0,0.0,0.0,1.0,0.0,0.0,0.0,1.0,0.407153320313,-4.29666503906,6.56355102539,0.1,0.0,0.0,0.0,0.1,0.0,0.0,0.0,0.1
1446036235098896513,219,1446036235095516920,robocape,-41.7347378959,6.0251116302,-41.7347378959,0.0,10.0,0.0,0.0,0.0,10.0,0.0,0.0,0.0,10.0,0.0278300333913,0.47657267707,-0.55966330308,1.0,0.0,0.0,0.0,1.0,0.0,0.0,0.0,1.0,1.56873779297,-6.50846557617,8.22928710938,0.1,0.0,0.0,0.0,0.1,0.0,0.0,0.0,0.1
1446036235132559096,220,1446036235129348039,robocape,-42.5193061272,6.36667243085,-42.5193061272,0.0,10.0,0.0,0.0,0.0,10.0,0.0,0.0,0.0,10.0,-0.606934412429,0.336756719841,-0.208392355299,1.0,0.0,0.0,0.0,1.0,0.0,0.0,0.0,1.0,2.09085205078,-7.40899291992,10.1872155762,0.1,0.0,0.0,0.0,0.1,0.0,0.0,0.0,0.1
1446036235165703013,221,1446036235162419080,robocape,-42.955210504,6.08942907409,-42.955210504,0.0,10.0,0.0,0.0,0.0,10.0,0.0,0.0,0.0,10.0,-0.423176297214,0.151800182135,-0.486692689212,1.0,0.0,0.0,0.0,1.0,0.0,0.0,0.0,1.0,1.68609375,-7.79099853516,7.04854248047,0.1,0.0,0.0,0.0,0.1,0.0,0.0,0.0,0.1
1446036235205446055,222,1446036235195672035,robocape,-43.1051354827,6.04823419459,-43.1051354827,0.0,10.0,0.0,0.0,0.0,10.0,0.0,0.0,0.0,10.0,-0.280031388622,0.62557654006,-0.841425746411,1.0,0.0,0.0,0.0,1.0,0.0,0.0,0.0,1.0,3.57576416016,-5.67739379883,4.45713134766,0.1,0.0,0.0,0.0,0.1,0.0,0.0,0.0,0.1
1446036235233014138,223,1446036235229619979,robocape,-42.1672305776,6.48161722121,-42.1672305776,0.0,10.0,0.0,0.0,0.0,10.0,0.0,0.0,0.0,10.0,0.394414157441,0.503071129916,-0.281629285276,1.0,0.0,0.0,0.0,1.0,0.0,0.0,0.0,1.0,0.735270996094,-6.90244628906,11.6278198242,0.1,0.0,0.0,0.0,0.1,0.0,0.0,0.0,0.1
1446036235265648513,224,1446036235262665033,robocape,-42.1321747017,6.91066971862,-42.1321747017,0.0,10.0,0.0,0.0,0.0,10.0,0.0,0.0,0.0,10.0,-0.114782242982,0.161653878168,0.0948085348068,1.0,0.0,0.0,0.0,1.0,0.0,0.0,0.0,1.0,-1.38911132813,-2.56865844727,6.91801391602,0.1,0.0,0.0,0.0,0.1,0.0,0.0,0.0,0.1
1446036235298692513,225,1446036235295696020,robocape,-42.3938587962,7.26615920843,-42.3938587962,0.0,10.0,0.0,0.0,0.0,10.0,0.0,0.0,0.0,10.0,-0.293080877963,0.176700738327,0.00918790576077,1.0,0.0,0.0,0.0,1.0,0.0,0.0,0.0,1.0,1.32923583984,-4.24876464844,7.31438964844,0.1,0.0,0.0,0.0,0.1,0.0,0.0,0.0,0.1
1446036235333103722,226,1446036235330012083,robocape,-42.2715509661,7.29633245812,-42.2715509661,0.0,10.0,0.0,0.0,0.0,10.0,0.0,0.0,0.0,10.0,-0.0773648296668,0.134889109213,-0.197606552884,1.0,0.0,0.0,0.0,1.0,0.0,0.0,0.0,1.0,-1.29570556641,-5.21036499023,9.35255126953,0.1,0.0,0.0,0.0,0.1,0.0,0.0,0.0,0.1
1446036235365514472,227,1446036235362487077,robocape,-42.3250690347,7.20678918758,-42.3250690347,0.0,10.0,0.0,0.0,0.0,10.0,0.0,0.0,0.0,10.0,-0.178298634981,-0.032490565299,-0.101466437532,1.0,0.0,0.0,0.0,1.0,0.0,0.0,0.0,1.0,0.270637207031,-7.62813720703,6.70844970703,0.1,0.0,0.0,0.0,0.1,0.0,0.0,0.0,0.1
1446036235400078263,228,1446036235396919012,robocape,-42.1638779117,7.45524771196,-42.1638779117,0.0,10.0,0.0,0.0,0.0,10.0,0.0,0.0,0.0,10.0,-0.0482032157304,0.200269713974,-0.0932106381528,1.0,0.0,0.0,0.0,1.0,0.0,0.0,0.0,1.0,-0.950822753906,-7.72034545898,9.03281616211,0.1,0.0,0.0,0.0,0.1,0.0,0.0,0.0,0.1
1446036235433369847,229,1446036235430205106,robocape,-41.7496112518,7.63543564727,-41.7496112518,0.0,10.0,0.0,0.0,0.0,10.0,0.0,0.0,0.0,10.0,0.102931176132,0.105194863058,-0.0275637172823,1.0,0.0,0.0,0.0,1.0,0.0,0.0,0.0,1.0,0.840651855469,-4.88464233398,6.821015625,0.1,0.0,0.0,0.0,0.1,0.0,0.0,0.0,0.1
1446036235466750222,230,1446036235463733911,robocape,-41.4130890589,8.0853127047,-41.4130890589,0.0,10.0,0.0,0.0,0.0,10.0,0.0,0.0,0.0,10.0,0.0625842856169,0.316250379447,-0.0599211245268,1.0,0.0,0.0,0.0,1.0,0.0,0.0,0.0,1.0,3.79490844727,-5.72409667969,8.21132446289,0.1,0.0,0.0,0.0,0.1,0.0,0.0,0.0,0.1
1446036235500408138,231,1446036235496934890,robocape,-41.1554193064,8.11190911499,-41.1554193064,0.0,10.0,0.0,0.0,0.0,10.0,0.0,0.0,0.0,10.0,0.0114515926873,0.0721716655411,-0.117312246018,1.0,0.0,0.0,0.0,1.0,0.0,0.0,0.0,1.0,0.779578857422,-5.14929199219,8.25682983398,0.1,0.0,0.0,0.0,0.1,0.0,0.0,0.0,0.1
1446036235533985513,232,1446036235530808925,robocape,-40.8200377417,8.25602638264,-40.8200377417,0.0,10.0,0.0,0.0,0.0,10.0,0.0,0.0,0.0,10.0,0.0595216503633,0.270044534534,-0.261522419046,1.0,0.0,0.0,0.0,1.0,0.0,0.0,0.0,1.0,4.01644775391,-7.94068725586,8.7406237793,0.1,0.0,0.0,0.0,0.1,0.0,0.0,0.0,0.1
1446036235567525972,233,1446036235563997030,robocape,-40.4570426262,8.14738716751,-40.4570426262,0.0,10.0,0.0,0.0,0.0,10.0,0.0,0.0,0.0,10.0,0.0723048235957,0.185222853815,-0.372709394557,1.0,0.0,0.0,0.0,1.0,0.0,0.0,0.0,1.0,0.0131726074219,-6.84975585938,8.52028198242,0.1,0.0,0.0,0.0,0.1,0.0,0.0,0.0,0.1
1446036235603372013,234,1446036235599268913,robocape,-40.0490998834,7.95978317834,-40.0490998834,0.0,10.0,0.0,0.0,0.0,10.0,0.0,0.0,0.0,10.0,0.0960069572974,0.297075619598,-0.58775965258,1.0,0.0,0.0,0.0,1.0,0.0,0.0,0.0,1.0,-0.426313476563,-4.18290161133,9.30465087891,0.1,0.0,0.0,0.0,0.1,0.0,0.0,0.0,0.1
1446036235633839180,235,1446036235630578041,robocape,-39.5280833632,7.85631836739,-39.5280833632,0.0,10.0,0.0,0.0,0.0,10.0,0.0,0.0,0.0,10.0,0.160721771786,0.407463646782,-0.666456062792,1.0,0.0,0.0,0.0,1.0,0.0,0.0,0.0,1.0,-0.564027099609,-1.75195678711,9.10825927734,0.1,0.0,0.0,0.0,0.1,0.0,0.0,0.0,0.1
1446036235667632305,236,1446036235664563894,robocape,-39.7514005806,7.24018710681,-39.7514005806,0.0,10.0,0.0,0.0,0.0,10.0,0.0,0.0,0.0,10.0,-0.288420346056,0.276835595314,-0.976314855623,1.0,0.0,0.0,0.0,1.0,0.0,0.0,0.0,1.0,0.444276123047,-6.61983398438,9.89262817383,0.1,0.0,0.0,0.0,0.1,0.0,0.0,0.0,0.1
1446036235702726305,237,1446036235698708057,robocape,-39.894795161,7.11664936757,-39.894795161,0.0,10.0,0.0,0.0,0.0,10.0,0.0,0.0,0.0,10.0,-0.25632925492,0.732102983663,-1.14875453621,1.0,0.0,0.0,0.0,1.0,0.0,0.0,0.0,1.0,6.63061157227,-7.84847900391,7.45928833008,0.1,0.0,0.0,0.0,0.1,0.0,0.0,0.0,0.1
1446036235737396888,238,1446036235731513977,robocape,-39.4553172247,7.47743779334,-39.4553172247,0.0,10.0,0.0,0.0,0.0,10.0,0.0,0.0,0.0,10.0,0.0980043281149,0.664192375866,-0.62677496255,1.0,0.0,0.0,0.0,1.0,0.0,0.0,0.0,1.0,-0.0155676269531,-0.820294189453,9.37530395508,0.1,0.0,0.0,0.0,0.1,0.0,0.0,0.0,0.1
1446036235769681263,239,1446036235766272068,robocape,-39.195363573,7.28375729119,-39.195363573,0.0,10.0,0.0,0.0,0.0,10.0,0.0,0.0,0.0,10.0,-0.0138484376684,0.368448336812,-0.741290889424,1.0,0.0,0.0,0.0,1.0,0.0,0.0,0.0,1.0,-0.168848876953,-5.37202880859,6.42463989258,0.1,0.0,0.0,0.0,0.1,0.0,0.0,0.0,0.1
1446036235802938430,240,1446036235799889087,robocape,-39.6527893753,7.41930236916,-39.6527893753,0.0,10.0,0.0,0.0,0.0,10.0,0.0,0.0,0.0,10.0,-0.424641035813,0.478303731778,-0.620782850097,1.0,0.0,0.0,0.0,1.0,0.0,0.0,0.0,1.0,-1.65974853516,-4.43318115234,9.39685913086,0.1,0.0,0.0,0.0,0.1,0.0,0.0,0.0,0.1
1446036235836324680,241,1446036235833096981,robocape,-39.7240583195,7.43132817114,-39.7240583195,0.0,10.0,0.0,0.0,0.0,10.0,0.0,0.0,0.0,10.0,-0.213052887206,0.524642734746,-0.781504621884,1.0,0.0,0.0,0.0,1.0,0.0,0.0,0.0,1.0,1.20828735352,-7.17667602539,8.88432495117,0.1,0.0,0.0,0.0,0.1,0.0,0.0,0.0,0.1
1446036235869059972,242,1446036235865443944,robocape,-39.3303727731,7.71914728051,-39.3303727731,0.0,10.0,0.0,0.0,0.0,10.0,0.0,0.0,0.0,10.0,0.0617853372898,0.608798625192,-0.641156032437,1.0,0.0,0.0,0.0,1.0,0.0,0.0,0.0,1.0,0.864602050781,-4.75770629883,6.92519897461,0.1,0.0,0.0,0.0,0.1,0.0,0.0,0.0,0.1
1446036235901962013,243,1446036235898631095,robocape,-38.7113209894,7.7354299825,-38.7113209894,0.0,10.0,0.0,0.0,0.0,10.0,0.0,0.0,0.0,10.0,0.187486540742,0.504802184625,-0.751677217675,1.0,0.0,0.0,0.0,1.0,0.0,0.0,0.0,1.0,2.66565673828,-8.09636352539,7.37306762695,0.1,0.0,0.0,0.0,0.1,0.0,0.0,0.0,0.1
1446036235935609513,244,1446036235932116031,robocape,-38.6741964032,7.9169143671,-38.6741964032,0.0,10.0,0.0,0.0,0.0,10.0,0.0,0.0,0.0,10.0,-0.13688648003,0.427703671067,-0.521446941438,1.0,0.0,0.0,0.0,1.0,0.0,0.0,0.0,1.0,-0.385598144531,-3.71228027344,8.00415527344,0.1,0.0,0.0,0.0,0.1,0.0,0.0,0.0,0.1
1446036235970189514,245,1446036235966619968,robocape,-38.5484301097,7.84954488206,-38.5484301097,0.0,10.0,0.0,0.0,0.0,10.0,0.0,0.0,0.0,10.0,-0.0978711700604,0.464188978001,-0.80387517504,1.0,0.0,0.0,0.0,1.0,0.0,0.0,0.0,1.0,-0.674197998047,-5.48698974609,9.06993896484,0.1,0.0,0.0,0.0,0.1,0.0,0.0,0.0,0.1
1446036236003381680,246,1446036235999919891,robocape,-38.4909009538,8.05707063073,-38.4909009538,0.0,10.0,0.0,0.0,0.0,10.0,0.0,0.0,0.0,10.0,-0.129030154814,0.485361108667,-0.588425442853,1.0,0.0,0.0,0.0,1.0,0.0,0.0,0.0,1.0,-1.57831787109,-5.35646118164,9.30944091797,0.1,0.0,0.0,0.0,0.1,0.0,0.0,0.0,0.1
1446036236036176514,247,1446036236032571077,robocape,-38.2216855031,8.14451807745,-38.2216855031,0.0,10.0,0.0,0.0,0.0,10.0,0.0,0.0,0.0,10.0,-0.016112124595,0.584031227054,-0.84022732392,1.0,0.0,0.0,0.0,1.0,0.0,0.0,0.0,1.0,0.141306152344,-4.56730224609,7.32516723633,0.1,0.0,0.0,0.0,0.1,0.0,0.0,0.0,0.1
1446036236070229680,248,1446036236066309928,robocape,-37.9504415337,8.53409176832,-37.9504415337,0.0,10.0,0.0,0.0,0.0,10.0,0.0,0.0,0.0,10.0,-0.00905474770627,0.750079321021,-0.807736758621,1.0,0.0,0.0,0.0,1.0,0.0,0.0,0.0,1.0,-2.76026000977,-4.74094116211,8.72984619141,0.1,0.0,0.0,0.0,0.1,0.0,0.0,0.0,0.1
1446036236102795472,249,1446036236099565982,robocape,-38.392830248,8.91942305591,-38.392830248,0.0,10.0,0.0,0.0,0.0,10.0,0.0,0.0,0.0,10.0,-0.414254707562,0.725311922883,-0.799614117296,1.0,0.0,0.0,0.0,1.0,0.0,0.0,0.0,1.0,-5.05349121094,-4.70860839844,12.0493432617,0.1,0.0,0.0,0.0,0.1,0.0,0.0,0.0,0.1
1446036236135906639,250,1446036236132184982,robocape,-39.0834964917,9.23402207628,-39.0834964917,0.0,10.0,0.0,0.0,0.0,10.0,0.0,0.0,0.0,10.0,-0.55700014199,0.571514369931,-0.644085509636,1.0,0.0,0.0,0.0,1.0,0.0,0.0,0.0,1.0,-1.38551879883,-8.58973754883,8.79690673828,0.1,0.0,0.0,0.0,0.1,0.0,0.0,0.0,0.1
1446036236169632680,251,1446036236166560888,robocape,-39.6614648002,9.44961005735,-39.6614648002,0.0,10.0,0.0,0.0,0.0,10.0,0.0,0.0,0.0,10.0,-0.503470604079,0.662860795321,-0.850613652171,1.0,0.0,0.0,0.0,1.0,0.0,0.0,0.0,1.0,2.61416381836,-6.38751708984,5.36364624023,0.1,0.0,0.0,0.0,0.1,0.0,0.0,0.0,0.1
1446036236207636389,252,1446036236200325965,robocape,-39.9962457571,9.93474408464,-39.9962457571,0.0,10.0,0.0,0.0,0.0,10.0,0.0,0.0,0.0,10.0,-0.36099148576,0.771251451687,-0.739160360551,1.0,0.0,0.0,0.0,1.0,0.0,0.0,0.0,1.0,-2.77822265625,-6.68569702148,10.6207141113,0.1,0.0,0.0,0.0,0.1,0.0,0.0,0.0,0.1
1446036236234848180,253,1446036236231448888,robocape,-39.6949909868,10.5624435546,-39.6949909868,0.0,10.0,0.0,0.0,0.0,10.0,0.0,0.0,0.0,10.0,0.0114515926873,0.759400384836,-0.572313318258,1.0,0.0,0.0,0.0,1.0,0.0,0.0,0.0,1.0,-2.59380615234,-6.18633544922,7.04375244141,0.1,0.0,0.0,0.0,0.1,0.0,0.0,0.0,0.1
1446036236269597930,254,1446036236266403913,robocape,-39.4182454025,11.0739855049,-39.4182454025,0.0,10.0,0.0,0.0,0.0,10.0,0.0,0.0,0.0,10.0,0.000798948327024,0.573911214912,-0.426238932467,1.0,0.0,0.0,0.0,1.0,0.0,0.0,0.0,1.0,1.71124145508,-3.33626220703,7.62095214844,0.1,0.0,0.0,0.0,0.1,0.0,0.0,0.0,0.1
1446036236301757680,255,1446036236298652887,robocape,-39.1228367107,11.573085309,-39.1228367107,0.0,10.0,0.0,0.0,0.0,10.0,0.0,0.0,0.0,10.0,0.015313176268,0.534363272724,-0.383228880862,1.0,0.0,0.0,0.0,1.0,0.0,0.0,0.0,1.0,-0.265847167969,-4.49904418945,10.8542285156,0.1,0.0,0.0,0.0,0.1,0.0,0.0,0.0,0.1
1446036236334084722,256,1446036236330722093,robocape,-38.7849655539,11.8053116217,-38.7849655539,0.0,10.0,0.0,0.0,0.0,10.0,0.0,0.0,0.0,10.0,0.0299605622634,0.155129133497,-0.0950748509158,1.0,0.0,0.0,0.0,1.0,0.0,0.0,0.0,1.0,1.31007568359,-5.00199829102,7.90356445313,0.1,0.0,0.0,0.0,0.1,0.0,0.0,0.0,0.1
1446036236368627889,257,1446036236365334987,robocape,-38.6846723561,12.0445233859,-38.6846723561,0.0,10.0,0.0,0.0,0.0,10.0,0.0,0.0,0.0,10.0,-0.109589078857,-0.0323574072445,0.173771261128,1.0,0.0,0.0,0.0,1.0,0.0,0.0,0.0,1.0,-1.79386962891,-4.12781616211,10.0854272461,0.1,0.0,0.0,0.0,0.1,0.0,0.0,0.0,0.1
1446036236402032014,258,1446036236398997068,robocape,-39.3856076495,12.2259943573,-39.3856076495,0.0,10.0,0.0,0.0,0.0,10.0,0.0,0.0,0.0,10.0,-0.574310689076,-0.287488239674,0.459262129984,1.0,0.0,0.0,0.0,1.0,0.0,0.0,0.0,1.0,-1.2226574707,-7.5491015625,6.67252441406,0.1,0.0,0.0,0.0,0.1,0.0,0.0,0.0,0.1
1446036236434397930,259,1446036236431310892,robocape,-39.5440188858,12.1809081189,-39.5440188858,0.0,10.0,0.0,0.0,0.0,10.0,0.0,0.0,0.0,10.0,-0.275370856714,-0.425040509977,0.450740014496,1.0,0.0,0.0,0.0,1.0,0.0,0.0,0.0,1.0,-0.414338378906,-7.26289672852,6.91202636719,0.1,0.0,0.0,0.0,0.1,0.0,0.0,0.0,0.1
1446036236467134055,260,1446036236463990926,robocape,-38.8861290165,12.3770652561,-38.8861290165,0.0,10.0,0.0,0.0,0.0,10.0,0.0,0.0,0.0,10.0,0.19454391763,-0.290950349091,0.508131135987,1.0,0.0,0.0,0.0,1.0,0.0,0.0,0.0,1.0,3.26201660156,-9.23639282227,6.60187133789,0.1,0.0,0.0,0.0,0.1,0.0,0.0,0.0,0.1
1446036236499649930,261,1446036236496599912,robocape,-38.3278753623,12.4624751646,-38.3278753623,0.0,10.0,0.0,0.0,0.0,10.0,0.0,0.0,0.0,10.0,0.137818586412,-0.313320902248,0.449541592005,1.0,0.0,0.0,0.0,1.0,0.0,0.0,0.0,1.0,2.09444458008,-4.47748901367,6.30608642578,0.1,0.0,0.0,0.0,0.1,0.0,0.0,0.0,0.1
1446036236532784764,262,1446036236529544115,robocape,-37.7731383706,12.4799139139,-37.7731383706,0.0,10.0,0.0,0.0,0.0,10.0,0.0,0.0,0.0,10.0,0.134356476994,-0.36245622436,0.467651087418,1.0,0.0,0.0,0.0,1.0,0.0,0.0,0.0,1.0,-0.490979003906,-5.59716064453,6.82820068359,0.1,0.0,0.0,0.0,0.1,0.0,0.0,0.0,0.1
1446036236566374764,263,1446036236562741994,robocape,-37.2830862278,12.63628417,-37.2830862278,0.0,10.0,0.0,0.0,0.0,10.0,0.0,0.0,0.0,10.0,0.0958737992429,-0.354866215253,0.593485448924,1.0,0.0,0.0,0.0,1.0,0.0,0.0,0.0,1.0,-0.0263452148438,-5.74924438477,6.65815429688,0.1,0.0,0.0,0.0,0.1,0.0,0.0,0.0,0.1
1446036236599644764,264,1446036236596635103,robocape,-36.9797384453,12.8912821738,-36.9797384453,0.0,10.0,0.0,0.0,0.0,10.0,0.0,0.0,0.0,10.0,-0.00306263525359,-0.245942926669,0.535029062997,1.0,0.0,0.0,0.0,1.0,0.0,0.0,0.0,1.0,0.943637695313,-6.36715942383,7.93829223633,0.1,0.0,0.0,0.0,0.1,0.0,0.0,0.0,0.1
1446036236632899472,265,1446036236629709005,robocape,-36.8130514993,13.0462435155,-36.8130514993,0.0,10.0,0.0,0.0,0.0,10.0,0.0,0.0,0.0,10.0,-0.0924116898257,-0.372443078448,0.627174436714,1.0,0.0,0.0,0.0,1.0,0.0,0.0,0.0,1.0,-0.189206542969,-6.49170043945,7.65927246094,0.1,0.0,0.0,0.0,0.1,0.0,0.0,0.0,0.1
1446036236666434639,266,1446036236662929058,robocape,-36.406045799,12.9074931355,-36.406045799,0.0,10.0,0.0,0.0,0.0,10.0,0.0,0.0,0.0,10.0,0.0427437354958,-0.476972151233,0.517452199802,1.0,0.0,0.0,0.0,1.0,0.0,0.0,0.0,1.0,-0.102985839844,-8.76457397461,7.7059753418,0.1,0.0,0.0,0.0,0.1,0.0,0.0,0.0,0.1
1446036236698862264,267,1446036236695823907,robocape,-35.5252948857,13.1363933708,-35.5252948857,0.0,10.0,0.0,0.0,0.0,10.0,0.0,0.0,0.0,10.0,0.327435656025,-0.217846577168,0.501606391316,1.0,0.0,0.0,0.0,1.0,0.0,0.0,0.0,1.0,2.40340209961,-6.76712768555,7.66885253906,0.1,0.0,0.0,0.0,0.1,0.0,0.0,0.0,0.1
1446036236732385722,268,1446036236729398012,robocape,-34.8453113682,12.9521174971,-34.8453113682,0.0,10.0,0.0,0.0,0.0,10.0,0.0,0.0,0.0,10.0,0.19454391763,-0.507465345715,0.555135929227,1.0,0.0,0.0,0.0,1.0,0.0,0.0,0.0,1.0,-0.229921875,-5.1001940918,7.55628662109,0.1,0.0,0.0,0.0,0.1,0.0,0.0,0.0,0.1
1446036236765456347,269,1446036236762459993,robocape,-34.4997446962,12.7307734099,-34.4997446962,0.0,10.0,0.0,0.0,0.0,10.0,0.0,0.0,0.0,10.0,0.0117179087963,-0.510394822914,0.533431166343,1.0,0.0,0.0,0.0,1.0,0.0,0.0,0.0,1.0,0.86220703125,-7.65088989258,6.87250854492,0.1,0.0,0.0,0.0,0.1,0.0,0.0,0.0,0.1
1446036236798833514,270,1446036236795842885,robocape,-34.1194376435,12.970595932,-34.1194376435,0.0,10.0,0.0,0.0,0.0,10.0,0.0,0.0,0.0,10.0,0.0537958540196,-0.190549175995,0.4966795433,1.0,0.0,0.0,0.0,1.0,0.0,0.0,0.0,1.0,0.548459472656,-10.1453027344,7.62334716797,0.1,0.0,0.0,0.0,0.1,0.0,0.0,0.0,0.1
1446036236832221597,271,1446036236829233884,robocape,-33.6429864031,12.6292275367,-33.6429864031,0.0,10.0,0.0,0.0,0.0,10.0,0.0,0.0,0.0,10.0,0.0833569421195,-0.576174901839,0.539023804632,1.0,0.0,0.0,0.0,1.0,0.0,0.0,0.0,1.0,2.29442871094,-8.07361083984,7.65088989258,0.1,0.0,0.0,0.0,0.1,0.0,0.0,0.0,0.1
1446036236865340681,272,1446036236862324953,robocape,-33.2987930842,12.5545046595,-33.2987930842,0.0,10.0,0.0,0.0,0.0,10.0,0.0,0.0,0.0,10.0,0.0310258266994,-0.358461482725,0.46831687769,1.0,0.0,0.0,0.0,1.0,0.0,0.0,0.0,1.0,2.55309082031,-8.9322253418,6.45577514648,0.1,0.0,0.0,0.0,0.1,0.0,0.0,0.0,0.1
1446036236898998514,273,1446036236895982980,robocape,-33.1597730385,12.6415614428,-33.1597730385,0.0,10.0,0.0,0.0,0.0,10.0,0.0,0.0,0.0,10.0,-0.0870853676456,-0.311589847539,0.556334351718,1.0,0.0,0.0,0.0,1.0,0.0,0.0,0.0,1.0,-3.27279418945,-3.27878173828,7.21858886719,0.1,0.0,0.0,0.0,0.1,0.0,0.0,0.0,0.1
1446036236932598931,274,1446036236929435014,robocape,-32.702847061,12.7704532227,-32.702847061,0.0,10.0,0.0,0.0,0.0,10.0,0.0,0.0,0.0,10.0,0.101732753641,-0.231428698728,0.479502154269,1.0,0.0,0.0,0.0,1.0,0.0,0.0,0.0,1.0,2.55428833008,-8.57656494141,7.24852661133,0.1,0.0,0.0,0.0,0.1,0.0,0.0,0.0,0.1
1446036236965713181,275,1446036236962621927,robocape,-32.2612418161,12.644093329,-32.2612418161,0.0,10.0,0.0,0.0,0.0,10.0,0.0,0.0,0.0,10.0,0.0924116898257,-0.346743573928,0.419980503905,1.0,0.0,0.0,0.0,1.0,0.0,0.0,0.0,1.0,0.518521728516,-6.66653686523,6.41625732422,0.1,0.0,0.0,0.0,0.1,0.0,0.0,0.0,0.1
1446036236999165764,276,1446036236996098041,robocape,-32.0514369114,12.611789528,-32.0514369114,0.0,10.0,0.0,0.0,0.0,10.0,0.0,0.0,0.0,10.0,-0.0418116291142,-0.334626190968,0.49934270439,1.0,0.0,0.0,0.0,1.0,0.0,0.0,0.0,1.0,0.796343994141,-6.3994921875,7.52275634766,0.1,0.0,0.0,0.0,0.1,0.0,0.0,0.0,0.1
1446036237032510181,277,1446036237029277086,robocape,-31.3449484653,12.5437963271,-31.3449484653,0.0,10.0,0.0,0.0,0.0,10.0,0.0,0.0,0.0,10.0,0.254198726048,-0.267514531498,0.364853069341,1.0,0.0,0.0,0.0,1.0,0.0,0.0,0.0,1.0,0.987945556641,-5.40436157227,6.45098510742,0.1,0.0,0.0,0.0,0.1,0.0,0.0,0.0,0.1
1446036237065472264,278,1446036237062402963,robocape,-30.7497238764,12.4972914624,-30.7497238764,0.0,10.0,0.0,0.0,0.0,10.0,0.0,0.0,0.0,10.0,0.200669188137,-0.223705531567,0.324106704663,1.0,0.0,0.0,0.0,1.0,0.0,0.0,0.0,1.0,-1.39629638672,-7.66645751953,6.61624145508,0.1,0.0,0.0,0.0,0.1,0.0,0.0,0.0,0.1
1446036237099018931,279,1446036237095963954,robocape,-30.2614008974,12.5329884229,-30.2614008974,0.0,10.0,0.0,0.0,0.0,10.0,0.0,0.0,0.0,10.0,0.15699334626,-0.121706461817,0.243945555851,1.0,0.0,0.0,0.0,1.0,0.0,0.0,0.0,1.0,-1.89086791992,-6.10370727539,8.89869506836,0.1,0.0,0.0,0.0,0.1,0.0,0.0,0.0,0.1
1446036237133668306,280,1446036237130532026,robocape,-30.0672289876,12.5865288484,-30.0672289876,0.0,10.0,0.0,0.0,0.0,10.0,0.0,0.0,0.0,10.0,-0.0258326625738,-0.194677075685,0.391750996351,1.0,0.0,0.0,0.0,1.0,0.0,0.0,0.0,1.0,-3.36619995117,-2.72313720703,7.88440429688,0.1,0.0,0.0,0.0,0.1,0.0,0.0,0.0,0.1
1446036237165491972,281,1446036237162339925,robocape,-29.9545952532,12.4692569265,-29.9545952532,0.0,10.0,0.0,0.0,0.0,10.0,0.0,0.0,0.0,10.0,-0.0653806047614,-0.252733987449,0.316383537501,1.0,0.0,0.0,0.0,1.0,0.0,0.0,0.0,1.0,0.311352539063,-5.39837402344,6.59947631836,0.1,0.0,0.0,0.0,0.1,0.0,0.0,0.0,0.1
1446036237204967681,282,1446036237196027994,robocape,-29.9132216561,12.4779494892,-29.9132216561,0.0,10.0,0.0,0.0,0.0,10.0,0.0,0.0,0.0,10.0,-0.0960069572974,-0.162585984549,0.294146142399,1.0,0.0,0.0,0.0,1.0,0.0,0.0,0.0,1.0,-0.742456054688,-6.03185668945,6.87969360352,0.1,0.0,0.0,0.0,0.1,0.0,0.0,0.0,0.1
1446036237232989347,283,1446036237229983091,robocape,-29.4253061596,12.3831758299,-29.4253061596,0.0,10.0,0.0,0.0,0.0,10.0,0.0,0.0,0.0,10.0,0.15433018517,-0.205995510318,0.263652947918,1.0,0.0,0.0,0.0,1.0,0.0,0.0,0.0,1.0,-2.96862670898,-3.36979248047,7.40180786133,0.1,0.0,0.0,0.0,0.1,0.0,0.0,0.0,0.1
1446036237265435181,284,1446036237262439966,robocape,-28.6909384517,12.1884809277,-28.6909384517,0.0,10.0,0.0,0.0,0.0,10.0,0.0,0.0,0.0,10.0,0.322109333845,-0.141280695829,0.0483363737849,1.0,0.0,0.0,0.0,1.0,0.0,0.0,0.0,1.0,-1.20828735352,-9.38368652344,8.15025146484,0.1,0.0,0.0,0.0,0.1,0.0,0.0,0.0,0.1
1446036237298686389,285,1446036237295680046,robocape,-28.2834560262,12.122670082,-28.2834560262,0.0,10.0,0.0,0.0,0.0,10.0,0.0,0.0,0.0,10.0,0.156460714042,-0.0283626656093,-0.0133158054504,1.0,0.0,0.0,0.0,1.0,0.0,0.0,0.0,1.0,-3.65000976563,-3.04167480469,9.12741943359,0.1,0.0,0.0,0.0,0.1,0.0,0.0,0.0,0.1
1446036237332153431,286,1446036237329061985,robocape,-27.6701059455,11.9037199654,-27.6701059455,0.0,10.0,0.0,0.0,0.0,10.0,0.0,0.0,0.0,10.0,0.293080877963,-0.0223705531567,-0.194410759576,1.0,0.0,0.0,0.0,1.0,0.0,0.0,0.0,1.0,-2.89198608398,-5.66661621094,9.79802490234,0.1,0.0,0.0,0.0,0.1,0.0,0.0,0.0,0.1
1446036237365402306,287,1446036237362221956,robocape,-27.2484369517,12.168514099,-27.2484369517,0.0,10.0,0.0,0.0,0.0,10.0,0.0,0.0,0.0,10.0,0.220776054368,0.323840388554,-0.308527212286,1.0,0.0,0.0,0.0,1.0,0.0,0.0,0.0,1.0,-3.40092773438,-3.11711791992,8.96096557617,0.1,0.0,0.0,0.0,0.1,0.0,0.0,0.0,0.1
1446036237399169264,288,1446036237395781993,robocape,-26.6972459995,12.207699015,-26.6972459995,0.0,10.0,0.0,0.0,0.0,10.0,0.0,0.0,0.0,10.0,0.32610407548,0.328101446298,-0.581767540128,1.0,0.0,0.0,0.0,1.0,0.0,0.0,0.0,1.0,-1.70884643555,-2.58662109375,8.6184777832,0.1,0.0,0.0,0.0,0.1,0.0,0.0,0.0,0.1
1446036237432485181,289,1446036237429099082,robocape,-26.0748894126,12.4525093466,-26.0748894126,0.0,10.0,0.0,0.0,0.0,10.0,0.0,0.0,0.0,10.0,0.433962099628,0.650743412361,-0.995223299363,1.0,0.0,0.0,0.0,1.0,0.0,0.0,0.0,1.0,-2.07648193359,-0.856219482422,12.323572998,0.1,0.0,0.0,0.0,0.1,0.0,0.0,0.0,0.1
1446036237465668639,290,1446036237462172985,robocape,-26.3095084139,12.8818060521,-26.3095084139,0.0,10.0,0.0,0.0,0.0,10.0,0.0,0.0,0.0,10.0,-0.050999534875,0.692821357584,-0.869388937856,1.0,0.0,0.0,0.0,1.0,0.0,0.0,0.0,1.0,-2.50519042969,-0.340092773437,10.1740429688,0.1,0.0,0.0,0.0,0.1,0.0,0.0,0.0,0.1
1446036237498846223,291,1446036237495610952,robocape,-26.9811417452,13.2850982694,-26.9811417452,0.0,10.0,0.0,0.0,0.0,10.0,0.0,0.0,0.0,10.0,-0.251935039121,0.824514673489,-1.14036557877,1.0,0.0,0.0,0.0,1.0,0.0,0.0,0.0,1.0,0.762813720703,-0.570014648438,10.0626745605,0.1,0.0,0.0,0.0,0.1,0.0,0.0,0.0,0.1
1446036237532287973,292,1446036237529004096,robocape,-27.2498376101,14.1650265278,-27.2498376101,0.0,10.0,0.0,0.0,0.0,10.0,0.0,0.0,0.0,10.0,0.0362189908251,1.27219205273,-1.4323811923,1.0,0.0,0.0,0.0,1.0,0.0,0.0,0.0,1.0,4.34097290039,-3.72305786133,14.6120141602,0.1,0.0,0.0,0.0,0.1,0.0,0.0,0.0,0.1
1446036237565539306,293,1446036237562186956,robocape,-27.4081337788,14.717291053,-27.4081337788,0.0,10.0,0.0,0.0,0.0,10.0,0.0,0.0,0.0,10.0,0.0990695925509,1.11519870647,-1.49190284266,1.0,0.0,0.0,0.0,1.0,0.0,0.0,0.0,1.0,-3.53983886719,-1.00830322266,11.9583325195,0.1,0.0,0.0,0.0,0.1,0.0,0.0,0.0,0.1
1446036237599300181,294,1446036237596227884,robocape,-27.6557402082,14.9561675164,-27.6557402082,0.0,10.0,0.0,0.0,0.0,10.0,0.0,0.0,0.0,10.0,0.0318247750264,0.928777430165,-1.48697599465,1.0,0.0,0.0,0.0,1.0,0.0,0.0,0.0,1.0,-0.177231445313,-0.350870361328,11.076965332,0.1,0.0,0.0,0.0,0.1,0.0,0.0,0.0,0.1
1446036237632519181,295,1446036237629264116,robocape,-28.0566341461,15.2654040055,-28.0566341461,0.0,10.0,0.0,0.0,0.0,10.0,0.0,0.0,0.0,10.0,-0.0745685105222,0.924649530476,-1.39056956318,1.0,0.0,0.0,0.0,1.0,0.0,0.0,0.0,1.0,0.51732421875,-0.661025390625,9.78604980469,0.1,0.0,0.0,0.0,0.1,0.0,0.0,0.0,0.1
1446036237665789806,296,1446036237662467002,robocape,-28.5687880614,15.5916197039,-28.5687880614,0.0,10.0,0.0,0.0,0.0,10.0,0.0,0.0,0.0,10.0,-0.13688648003,0.962732734064,-1.42625592179,1.0,0.0,0.0,0.0,1.0,0.0,0.0,0.0,1.0,-1.38432128906,-0.845441894531,9.75371704102,0.1,0.0,0.0,0.0,0.1,0.0,0.0,0.0,0.1
1446036237700188473,297,1446036237697069883,robocape,-28.9286554966,15.6052077706,-28.9286554966,0.0,10.0,0.0,0.0,0.0,10.0,0.0,0.0,0.0,10.0,-0.0600542825813,0.83876258532,-1.53105131069,1.0,0.0,0.0,0.0,1.0,0.0,0.0,0.0,1.0,-5.74565185547,-1.51125732422,13.1797924805,0.1,0.0,0.0,0.0,0.1,0.0,0.0,0.0,0.1
1446036237733508889,298,1446036237730360984,robocape,-28.9090290263,15.7907694926,-28.9090290263,0.0,10.0,0.0,0.0,0.0,10.0,0.0,0.0,0.0,10.0,0.156061239879,0.982706442239,-1.60641876954,1.0,0.0,0.0,0.0,1.0,0.0,0.0,0.0,1.0,0.617915039063,-1.72561157227,11.3595776367,0.1,0.0,0.0,0.0,0.1,0.0,0.0,0.0,0.1
1446036237766735139,299,1446036237763463020,robocape,-28.1040276172,15.9850330662,-28.1040276172,0.0,10.0,0.0,0.0,0.0,10.0,0.0,0.0,0.0,10.0,0.624511275624,1.11320133565,-1.87033803356,1.0,0.0,0.0,0.0,1.0,0.0,0.0,0.0,1.0,3.24884399414,-2.2573059082,10.7680078125,0.1,0.0,0.0,0.0,0.1,0.0,0.0,0.0,0.1
1446036237800355223,300,1446036237797241926,robocape,-26.164175502,16.1138688483,-26.164175502,0.0,10.0,0.0,0.0,0.0,10.0,0.0,0.0,0.0,10.0,1.27671942658,1.13290872772,-2.08778513657,1.0,0.0,0.0,0.0,1.0,0.0,0.0,0.0,1.0,-0.605939941406,-2.01061889648,10.7823779297,0.1,0.0,0.0,0.0,0.1,0.0,0.0,0.0,0.1
1446036237833916014,301,1446036237830713987,robocape,-23.2020447137,16.1140818351,-23.2020447137,0.0,10.0,0.0,0.0,0.0,10.0,0.0,0.0,0.0,10.0,1.83238798803,0.972453272042,-2.11335148303,1.0,0.0,0.0,0.0,1.0,0.0,0.0,0.0,1.0,-0.259859619141,-1.57951538086,11.2949121094,0.1,0.0,0.0,0.0,0.1,0.0,0.0,0.0,0.1
1446036237867162848,302,1446036237863912105,robocape,-18.9015132776,15.7665832542,-18.9015132776,0.0,10.0,0.0,0.0,0.0,10.0,0.0,0.0,0.0,10.0,2.5366609383,0.619318111498,-2.05596036154,1.0,0.0,0.0,0.0,1.0,0.0,0.0,0.0,1.0,-2.93749145508,-2.18186279297,11.6625476074,0.1,0.0,0.0,0.0,0.1,0.0,0.0,0.0,0.1
1446036237904409181,303,1446036237900928974,robocape,-13.7750291947,15.6759189302,-13.7750291947,0.0,10.0,0.0,0.0,0.0,10.0,0.0,0.0,0.0,10.0,2.96196776439,0.555269087282,-1.8699385594,1.0,0.0,0.0,0.0,1.0,0.0,0.0,0.0,1.0,1.8046472168,-1.78668457031,9.26752807617,0.1,0.0,0.0,0.0,0.1,0.0,0.0,0.0,0.1
1446036237933734389,304,1446036237930526018,robocape,-7.66377025991,15.3243348321,-7.66377025991,0.0,10.0,0.0,0.0,0.0,10.0,0.0,0.0,0.0,10.0,3.47103100675,0.229564485965,-1.69576782411,1.0,0.0,0.0,0.0,1.0,0.0,0.0,0.0,1.0,-4.90380249023,-0.750838623047,7.86763916016,0.1,0.0,0.0,0.0,0.1,0.0,0.0,0.0,0.1
1446036237967635098,305,1446036237964078903,robocape,-0.845618405307,15.1948884416,-0.845618405307,0.0,10.0,0.0,0.0,0.0,10.0,0.0,0.0,0.0,10.0,3.83015827975,0.187619698796,-1.43517751144,1.0,0.0,0.0,0.0,1.0,0.0,0.0,0.0,1.0,-1.25379272461,-0.494571533203,6.53720581055,0.1,0.0,0.0,0.0,0.1,0.0,0.0,0.0,0.1
1446036238002888723,306,1446036237998991966,robocape,6.63023982852,15.0214396442,6.63023982852,0.0,10.0,0.0,0.0,0.0,10.0,0.0,0.0,0.0,10.0,4.1566618294,0.0616521792353,-1.10308132351,1.0,0.0,0.0,0.0,1.0,0.0,0.0,0.0,1.0,-0.643062744141,-0.480201416016,4.93733276367,0.1,0.0,0.0,0.0,0.1,0.0,0.0,0.0,0.1
1446036238032827223,307,1446036238029529094,robocape,14.5709334618,14.8397252439,14.5709334618,0.0,10.0,0.0,0.0,0.0,10.0,0.0,0.0,0.0,10.0,4.36318997193,0.0483363737849,-0.673912913845,1.0,0.0,0.0,0.0,1.0,0.0,0.0,0.0,1.0,0.461041259766,0.604742431641,7.70358032227,0.1,0.0,0.0,0.0,0.1,0.0,0.0,0.0,0.1
1446036238069083056,308,1446036238065793991,robocape,22.5864344959,14.5898105384,22.5864344959,0.0,10.0,0.0,0.0,0.0,10.0,0.0,0.0,0.0,10.0,4.36318997193,0.115581191309,-0.245010820287,1.0,0.0,0.0,0.0,1.0,0.0,0.0,0.0,1.0,2.41896972656,0.890947265625,5.89653808594,0.1,0.0,0.0,0.0,0.1,0.0,0.0,0.0,0.1
1446036238102180848,309,1446036238098917007,robocape,30.6989971371,14.4223849814,30.6989971371,0.0,10.0,0.0,0.0,0.0,10.0,0.0,0.0,0.0,10.0,4.36318997193,0.391884154405,0.158857559023,1.0,0.0,0.0,0.0,1.0,0.0,0.0,0.0,1.0,1.95194091797,1.38551879883,4.46072387695,0.1,0.0,0.0,0.0,0.1,0.0,0.0,0.0,0.1
1446036238133953556,310,1446036238130368947,robocape,36.7224922779,14.1937555185,36.7224922779,0.0,10.0,0.0,0.0,0.0,10.0,0.0,0.0,0.0,10.0,2.82002127828,0.914263202224,1.35847847205,1.0,0.0,0.0,0.0,1.0,0.0,0.0,0.0,1.0,11.1607910156,19.6194012451,14.6419519043,0.1,0.0,0.0,0.0,0.1,0.0,0.0,0.0,0.1
1446036238170132473,311,1446036238166802883,robocape,36.7216252154,15.6079927606,36.7216252154,0.0,10.0,0.0,0.0,0.0,10.0,0.0,0.0,0.0,10.0,-1.26646625639,2.36315599328,2.72907432706,1.0,0.0,0.0,0.0,1.0,0.0,0.0,0.0,1.0,6.22226074219,14.4060424805,14.0204443359,0.1,0.0,0.0,0.0,0.1,0.0,0.0,0.0,0.1
1446036238209149556,312,1446036238205929040,robocape,34.7917540974,16.7439226359,34.7917540974,0.0,10.0,0.0,0.0,0.0,10.0,0.0,0.0,0.0,10.0,-1.92653073256,1.60775035008,1.79603583915,1.0,0.0,0.0,0.0,1.0,0.0,0.0,0.0,1.0,-3.64761474609,0.280217285156,4.94930786133,0.1,0.0,0.0,0.0,0.1,0.0,0.0,0.0,0.1
1446036238238209598,313,1446036238234477996,robocape,33.3027263769,17.3153332589,33.3027263769,0.0,10.0,0.0,0.0,0.0,10.0,0.0,0.0,0.0,10.0,-1.4429006786,1.04409230537,1.37845218023,1.0,0.0,0.0,0.0,1.0,0.0,0.0,0.0,1.0,-4.75770629883,1.04183349609,11.8840869141,0.1,0.0,0.0,0.0,0.1,0.0,0.0,0.0,0.1
1446036238269491931,314,1446036238266019105,robocape,32.2430165953,17.4237916803,32.2430165953,0.0,10.0,0.0,0.0,0.0,10.0,0.0,0.0,0.0,10.0,-1.02132227805,0.624777591733,1.0791128737,1.0,0.0,0.0,0.0,1.0,0.0,0.0,0.0,1.0,-1.63579833984,0.634680175781,11.7391882324,0.1,0.0,0.0,0.0,0.1,0.0,0.0,0.0,0.1
1446036238302348681,315,1446036238299005031,robocape,31.7172986285,17.4243194729,31.7172986285,0.0,10.0,0.0,0.0,0.0,10.0,0.0,0.0,0.0,10.0,-0.611861260446,0.471778987108,0.846219436373,1.0,0.0,0.0,0.0,1.0,0.0,0.0,0.0,1.0,0.560434570312,-0.280217285156,7.64011230469,0.1,0.0,0.0,0.0,0.1,0.0,0.0,0.0,0.1
1446036238336259223,316,1446036238332545042,robocape,31.8592717913,17.4887538112,31.8592717913,0.0,10.0,0.0,0.0,0.0,10.0,0.0,0.0,0.0,10.0,-0.226235534602,0.513191142058,0.781770937993,1.0,0.0,0.0,0.0,1.0,0.0,0.0,0.0,1.0,1.21307739258,0.501756591797,10.653046875,0.1,0.0,0.0,0.0,0.1,0.0,0.0,0.0,0.1
1446036238369354265,317,1446036238365628004,robocape,32.4842180061,17.5399769601,32.4842180061,0.0,10.0,0.0,0.0,0.0,10.0,0.0,0.0,0.0,10.0,0.0884169481906,0.486559531157,0.668586591664,1.0,0.0,0.0,0.0,1.0,0.0,0.0,0.0,1.0,-1.01788330078,0.635877685547,10.2482885742,0.1,0.0,0.0,0.0,0.1,0.0,0.0,0.0,0.1
1446036238403267140,318,1446036238400069952,robocape,33.6002913865,17.4272520942,33.6002913865,0.0,10.0,0.0,0.0,0.0,10.0,0.0,0.0,0.0,10.0,0.371244655957,0.431565254647,0.678839761861,1.0,0.0,0.0,0.0,1.0,0.0,0.0,0.0,1.0,0.969982910156,0.774788818359,9.14897460938,0.1,0.0,0.0,0.0,0.1,0.0,0.0,0.0,0.1
1446036238435888931,319,1446036238432599067,robocape,35.2385946458,17.4587759164,35.2385946458,0.0,10.0,0.0,0.0,0.0,10.0,0.0,0.0,0.0,10.0,0.652074992906,0.567519628296,0.661262898667,1.0,0.0,0.0,0.0,1.0,0.0,0.0,0.0,1.0,3.16741333008,0.966390380859,9.41482177734,0.1,0.0,0.0,0.0,0.1,0.0,0.0,0.0,0.1
1446036238468439056,320,1446036238465182065,robocape,37.3865526651,17.2624301958,37.3865526651,0.0,10.0,0.0,0.0,0.0,10.0,0.0,0.0,0.0,10.0,0.967526424026,0.49401638221,0.662993953375,1.0,0.0,0.0,0.0,1.0,0.0,0.0,0.0,1.0,0.322130126953,1.00830322266,9.30105834961,0.1,0.0,0.0,0.0,0.1,0.0,0.0,0.0,0.1
1446036238502376098,321,1446036238499365091,robocape,39.861537492,16.9804090235,39.861537492,0.0,10.0,0.0,0.0,0.0,10.0,0.0,0.0,0.0,10.0,1.15487980671,0.533963798561,0.701742947236,1.0,0.0,0.0,0.0,1.0,0.0,0.0,0.0,1.0,0.584384765625,0.549656982422,11.0111022949,0.1,0.0,0.0,0.0,0.1,0.0,0.0,0.0,0.1
1446036238535044098,322,1446036238531763076,robocape,42.7972564596,16.8160370131,42.7972564596,0.0,10.0,0.0,0.0,0.0,10.0,0.0,0.0,0.0,10.0,1.44836015884,0.673380281627,0.639025503565,1.0,0.0,0.0,0.0,1.0,0.0,0.0,0.0,1.0,-3.61168945313,0.901724853516,10.310559082,0.1,0.0,0.0,0.0,0.1,0.0,0.0,0.0,0.1
1446036238568098515,323,1446036238564981937,robocape,46.261713316,16.1882668035,46.261713316,0.0,10.0,0.0,0.0,0.0,10.0,0.0,0.0,0.0,10.0,1.83984483908,0.505601132952,0.676043442717,1.0,0.0,0.0,0.0,1.0,0.0,0.0,0.0,1.0,3.65839233398,1.67172363281,9.49864746094,0.1,0.0,0.0,0.0,0.1,0.0,0.0,0.0,0.1
1446036238601538723,324,1446036238598295927,robocape,49.0031766065,15.2682546505,49.0031766065,0.0,10.0,0.0,0.0,0.0,10.0,0.0,0.0,0.0,10.0,1.21586619568,0.745285631059,1.17938088874,1.0,0.0,0.0,0.0,1.0,0.0,0.0,0.0,1.0,3.79131591797,12.2648950195,11.608659668,0.1,0.0,0.0,0.0,0.1,0.0,0.0,0.0,0.1
1446036238635253015,325,1446036238631709098,robocape,49.3100998962,15.1995691639,49.3100998962,0.0,10.0,0.0,0.0,0.0,10.0,0.0,0.0,0.0,10.0,-0.531833269689,1.47698914056,1.44077014973,1.0,0.0,0.0,0.0,1.0,0.0,0.0,0.0,1.0,5.99712890625,7.83770141602,10.591973877,0.1,0.0,0.0,0.0,0.1,0.0,0.0,0.0,0.1
1446036238697659223,326,1446036238666071891,robocape,49.3142468936,15.0150501179,49.3142468936,0.0,10.0,0.0,0.0,0.0,10.0,0.0,0.0,0.0,10.0,-0.577373324329,1.22611936587,1.26739836277,1.0,0.0,0.0,0.0,1.0,0.0,0.0,0.0,1.0,-0.819096679688,1.41904907227,9.81718505859,0.1,0.0,0.0,0.0,0.1,0.0,0.0,0.0,0.1
1446036238721887431,327,1446036238718306064,robocape,50.5061411991,14.5460329977,50.5061411991,0.0,10.0,0.0,0.0,0.0,10.0,0.0,0.0,0.0,10.0,0.722648761793,0.262454525427,0.38376151308,1.0,0.0,0.0,0.0,1.0,0.0,0.0,0.0,1.0,-2.92791137695,-0.223934326172,4.12302612305,0.1,0.0,0.0,0.0,0.1,0.0,0.0,0.0,0.1
1446036238742543223,328,1446036238739515066,robocape,51.9003833776,13.7994559951,51.9003833776,0.0,10.0,0.0,0.0,0.0,10.0,0.0,0.0,0.0,10.0,0.886832642996,0.13009541925,0.437690525155,1.0,0.0,0.0,0.0,1.0,0.0,0.0,0.0,1.0,-1.1915222168,4.26912231445,3.15783325195,0.1,0.0,0.0,0.0,0.1,0.0,0.0,0.0,0.1
1446036238768003557,329,1446036238764997959,robocape,53.2328761648,12.8477023463,53.2328761648,0.0,10.0,0.0,0.0,0.0,10.0,0.0,0.0,0.0,10.0,0.4390221057,0.895887390703,1.25781098284,1.0,0.0,0.0,0.0,1.0,0.0,0.0,0.0,1.0,9.38368652344,11.0590026855,17.1603149414,0.1,0.0,0.0,0.0,0.1,0.0,0.0,0.0,0.1
1446036238800215682,330,1446036238796761989,robocape,54.8539158307,11.0293938005,54.8539158307,0.0,10.0,0.0,0.0,0.0,10.0,0.0,0.0,0.0,10.0,0.488956376139,1.03037702575,1.89710280252,1.0,0.0,0.0,0.0,1.0,0.0,0.0,0.0,1.0,6.49529296875,2.77223510742,8.02930297852,0.1,0.0,0.0,0.0,0.1,0.0,0.0,0.0,0.1
1446036238833481848,331,1446036238830404996,robocape,56.5299499292,10.6429250441,56.5299499292,0.0,10.0,0.0,0.0,0.0,10.0,0.0,0.0,0.0,10.0,0.290550874928,2.56995045193,1.98392185405,1.0,0.0,0.0,0.0,1.0,0.0,0.0,0.0,1.0,7.58622436523,3.28476928711,2.55189331055,0.1,0.0,0.0,0.0,0.1,0.0,0.0,0.0,0.1
1446036238865822223,332,1446036238862782001,robocape,54.5148107346,10.5970116896,54.5148107346,0.0,10.0,0.0,0.0,0.0,10.0,0.0,0.0,0.0,10.0,-1.97087236471,2.30336802681,1.75156104895,1.0,0.0,0.0,0.0,1.0,0.0,0.0,0.0,1.0,0.997525634766,11.1907287598,19.6194012451,0.1,0.0,0.0,0.0,0.1,0.0,0.0,0.0,0.1
1446036238899912015,333,1446036238896641969,robocape,50.7414364264,9.5732459001,50.7414364264,0.0,10.0,0.0,0.0,0.0,10.0,0.0,0.0,0.0,10.0,-2.49524878335,0.144210173028,0.913730570006,1.0,0.0,0.0,0.0,1.0,0.0,0.0,0.0,1.0,-6.24381591797,0.559237060547,8.93462036133,0.1,0.0,0.0,0.0,0.1,0.0,0.0,0.0,0.1
1446036238932644973,334,1446036238929326057,robocape,47.8542778579,8.82241063114,47.8542778579,0.0,10.0,0.0,0.0,0.0,10.0,0.0,0.0,0.0,10.0,-1.81920534063,0.0765658813398,0.657534473141,1.0,0.0,0.0,0.0,1.0,0.0,0.0,0.0,1.0,2.25251586914,-0.887354736328,6.17196533203,0.1,0.0,0.0,0.0,0.1,0.0,0.0,0.0,0.1
1446036238965718765,335,1446036238962632894,robocape,45.9699706665,8.65942532516,45.9699706665,0.0,10.0,0.0,0.0,0.0,10.0,0.0,0.0,0.0,10.0,-1.19016669116,0.420646294178,0.542752230158,1.0,0.0,0.0,0.0,1.0,0.0,0.0,0.0,1.0,-0.120948486328,0.255069580078,10.9428442383,0.1,0.0,0.0,0.0,0.1,0.0,0.0,0.0,0.1
1446036238999229223,336,1446036238995989084,robocape,44.7959276464,8.47290832382,44.7959276464,0.0,10.0,0.0,0.0,0.0,10.0,0.0,0.0,0.0,10.0,-0.719985600703,0.32344091439,0.463256871619,1.0,0.0,0.0,0.0,1.0,0.0,0.0,0.0,1.0,0.219144287109,0.100590820313,9.89502319336,0.1,0.0,0.0,0.0,0.1,0.0,0.0,0.0,0.1
1446036239032225223,337,1446036239029139041,robocape,44.2605508927,8.03273216818,44.2605508927,0.0,10.0,0.0,0.0,0.0,10.0,0.0,0.0,0.0,10.0,-0.305065102869,0.136353847812,0.456332652785,1.0,0.0,0.0,0.0,1.0,0.0,0.0,0.0,1.0,-0.0167651367188,0.368833007813,9.85909790039,0.1,0.0,0.0,0.0,0.1,0.0,0.0,0.0,0.1
1446036239065545557,338,1446036239062238931,robocape,44.3863901195,7.81315292228,44.3863901195,0.0,10.0,0.0,0.0,0.0,10.0,0.0,0.0,0.0,10.0,0.0882837901361,0.302668257888,0.44701158897,1.0,0.0,0.0,0.0,1.0,0.0,0.0,0.0,1.0,0.771196289063,0.681383056641,9.71180419922,0.1,0.0,0.0,0.0,0.1,0.0,0.0,0.0,0.1
1446036239099257890,339,1446036239096179008,robocape,44.9949049527,7.62357648206,44.9949049527,0.0,10.0,0.0,0.0,0.0,10.0,0.0,0.0,0.0,10.0,0.389487309424,0.326503549644,0.433695783519,1.0,0.0,0.0,0.0,1.0,0.0,0.0,0.0,1.0,1.44180175781,0.643062744141,8.95617553711,0.1,0.0,0.0,0.0,0.1,0.0,0.0,0.0,0.1
1446036239132486057,340,1446036239129401922,robocape,45.9007751426,7.2898597743,45.9007751426,0.0,10.0,0.0,0.0,0.0,10.0,0.0,0.0,0.0,10.0,0.581900698182,0.277101911423,0.477238467342,1.0,0.0,0.0,0.0,1.0,0.0,0.0,0.0,1.0,-1.13763427734,1.68130371094,9.6531262207,0.1,0.0,0.0,0.0,0.1,0.0,0.0,0.0,0.1
1446036239165875223,341,1446036239162911891,robocape,46.9452254988,6.80726005824,46.9452254988,0.0,10.0,0.0,0.0,0.0,10.0,0.0,0.0,0.0,10.0,0.667654485283,0.303067732051,0.598279138886,1.0,0.0,0.0,0.0,1.0,0.0,0.0,0.0,1.0,0.905317382813,1.55077514648,10.612331543,0.1,0.0,0.0,0.0,0.1,0.0,0.0,0.0,0.1
1446036239204691807,342,1446036239196346044,robocape,48.0993444348,6.47345211451,48.0993444348,0.0,10.0,0.0,0.0,0.0,10.0,0.0,0.0,0.0,10.0,0.733035090044,0.514789038712,0.671249752754,1.0,0.0,0.0,0.0,1.0,0.0,0.0,0.0,1.0,-1.82380737305,1.40946899414,10.0698596191,0.1,0.0,0.0,0.0,0.1,0.0,0.0,0.0,0.1
1446036239232860973,343,1446036239229863882,robocape,49.2917206219,6.03117800392,49.2917206219,0.0,10.0,0.0,0.0,0.0,10.0,0.0,0.0,0.0,10.0,0.76898776476,0.572313318258,0.779507251066,1.0,0.0,0.0,0.0,1.0,0.0,0.0,0.0,1.0,-1.70645141602,2.29921875,11.3595776367,0.1,0.0,0.0,0.0,0.1,0.0,0.0,0.0,0.1
1446036239265568515,344,1446036239262576103,robocape,50.5283080394,5.19556005342,50.5283080394,0.0,10.0,0.0,0.0,0.0,10.0,0.0,0.0,0.0,10.0,0.847950491081,0.288154029947,0.792423582353,1.0,0.0,0.0,0.0,1.0,0.0,0.0,0.0,1.0,-3.67036743164,2.07767944336,10.3273242188,0.1,0.0,0.0,0.0,0.1,0.0,0.0,0.0,0.1
1446036239298914473,345,1446036239295844078,robocape,51.8763195593,4.64808513258,51.8763195593,0.0,10.0,0.0,0.0,0.0,10.0,0.0,0.0,0.0,10.0,0.942759025888,0.525974315291,0.775379351377,1.0,0.0,0.0,0.0,1.0,0.0,0.0,0.0,1.0,-0.483793945313,1.56155273438,10.5225183105,0.1,0.0,0.0,0.0,0.1,0.0,0.0,0.0,0.1
1446036239332259890,346,1446036239329250097,robocape,53.3152096902,4.24558082811,53.3152096902,0.0,10.0,0.0,0.0,0.0,10.0,0.0,0.0,0.0,10.0,1.03130913213,0.697481889492,0.792157266244,1.0,0.0,0.0,0.0,1.0,0.0,0.0,0.0,1.0,2.27407104492,2.50519042969,11.9427648926,0.1,0.0,0.0,0.0,0.1,0.0,0.0,0.0,0.1
1446036239365350432,347,1446036239362323999,robocape,54.5808810911,3.7985807828,54.5808810911,0.0,10.0,0.0,0.0,0.0,10.0,0.0,0.0,0.0,10.0,0.950349034995,0.85354312937,0.915994256933,1.0,0.0,0.0,0.0,1.0,0.0,0.0,0.0,1.0,2.56147338867,2.52195556641,10.3488793945,0.1,0.0,0.0,0.0,0.1,0.0,0.0,0.0,0.1
1446036239398983473,348,1446036239395891904,robocape,55.6495382521,3.28897310535,55.6495382521,0.0,10.0,0.0,0.0,0.0,10.0,0.0,0.0,0.0,10.0,0.861133138477,1.00094909571,1.0422280926,1.0,0.0,0.0,0.0,1.0,0.0,0.0,0.0,1.0,-0.852626953125,2.64290405273,10.9404492188,0.1,0.0,0.0,0.0,0.1,0.0,0.0,0.0,0.1
1446036239432467057,349,1446036239429233074,robocape,56.5513279269,2.54788684942,56.5513279269,0.0,10.0,0.0,0.0,0.0,10.0,0.0,0.0,0.0,10.0,0.804807281422,0.922652159658,1.12412029612,1.0,0.0,0.0,0.0,1.0,0.0,0.0,0.0,1.0,3.83801879883,2.51956054688,10.7464526367,0.1,0.0,0.0,0.0,0.1,0.0,0.0,0.0,0.1
1446036239465238807,350,1446036239462230920,robocape,56.7371207279,1.90182527182,56.7371207279,0.0,10.0,0.0,0.0,0.0,10.0,0.0,0.0,0.0,10.0,0.379234139227,1.20534670937,1.24316359685,1.0,0.0,0.0,0.0,1.0,0.0,0.0,0.0,1.0,4.12901367188,3.68473754883,12.318782959,0.1,0.0,0.0,0.0,0.1,0.0,0.0,0.0,0.1
1446036239498655682,351,1446036239495630025,robocape,56.3806812656,1.36817696839,56.3806812656,0.0,10.0,0.0,0.0,0.0,10.0,0.0,0.0,0.0,10.0,0.0661795530885,1.31879737181,1.25781098284,1.0,0.0,0.0,0.0,1.0,0.0,0.0,0.0,1.0,6.19232299805,3.24165893555,13.0336962891,0.1,0.0,0.0,0.0,0.1,0.0,0.0,0.0,0.1
1446036239532392349,352,1446036239529023885,robocape,55.703043655,0.481476607973,55.703043655,0.0,10.0,0.0,0.0,0.0,10.0,0.0,0.0,0.0,10.0,-0.101333279478,1.05953863969,1.33610791889,1.0,0.0,0.0,0.0,1.0,0.0,0.0,0.0,1.0,1.10051147461,2.65487915039,7.47844848633,0.1,0.0,0.0,0.0,0.1,0.0,0.0,0.0,0.1
1446036239565266932,353,1446036239562196016,robocape,54.8330313954,-0.379422887654,54.8330313954,0.0,10.0,0.0,0.0,0.0,10.0,0.0,0.0,0.0,10.0,-0.17710021249,1.06393285549,1.36353847812,1.0,0.0,0.0,0.0,1.0,0.0,0.0,0.0,1.0,4.89422241211,3.08718017578,11.2769494629,0.1,0.0,0.0,0.0,0.1,0.0,0.0,0.0,0.1
1446036239598910599,354,1446036239595828056,robocape,53.6570587457,-1.27883521979,53.6570587457,0.0,10.0,0.0,0.0,0.0,10.0,0.0,0.0,0.0,10.0,-0.338487774549,0.963132208227,1.35874478816,1.0,0.0,0.0,0.0,1.0,0.0,0.0,0.0,1.0,-2.00463134766,2.23215820313,9.73216186523,0.1,0.0,0.0,0.0,0.1,0.0,0.0,0.0,0.1
1446036239632420640,355,1446036239629143953,robocape,52.4242945821,-1.8017972998,52.4242945821,0.0,10.0,0.0,0.0,0.0,10.0,0.0,0.0,0.0,10.0,-0.322775124118,1.18337563038,1.33917055415,1.0,0.0,0.0,0.0,1.0,0.0,0.0,0.0,1.0,-1.18912719727,3.295546875,14.2815014648,0.1,0.0,0.0,0.0,0.1,0.0,0.0,0.0,0.1
1446036239665800682,356,1446036239662604093,robocape,51.0444045502,-2.50204521462,51.0444045502,0.0,10.0,0.0,0.0,0.0,10.0,0.0,0.0,0.0,10.0,-0.433562625465,0.821185722126,1.22065988564,1.0,0.0,0.0,0.0,1.0,0.0,0.0,0.0,1.0,3.12071044922,2.25371337891,11.8266064453,0.1,0.0,0.0,0.0,0.1,0.0,0.0,0.0,0.1
1446036239699129474,357,1446036239695831060,robocape,49.5081266137,-3.04237761671,49.5081266137,0.0,10.0,0.0,0.0,0.0,10.0,0.0,0.0,0.0,10.0,-0.48869006003,0.934769542618,1.2667325725,1.0,0.0,0.0,0.0,1.0,0.0,0.0,0.0,1.0,0.410745849609,1.54718261719,9.42559936523,0.1,0.0,0.0,0.0,0.1,0.0,0.0,0.0,0.1
1446036239732437807,358,1446036239729110956,robocape,47.7602187646,-3.51039972123,47.7602187646,0.0,10.0,0.0,0.0,0.0,10.0,0.0,0.0,0.0,10.0,-0.582832804564,0.980176439204,1.32665369702,1.0,0.0,0.0,0.0,1.0,0.0,0.0,0.0,1.0,1.01189575195,2.50878295898,13.2779882813,0.1,0.0,0.0,0.0,0.1,0.0,0.0,0.0,0.1
1446036239765677182,359,1446036239762325048,robocape,45.8213795574,-4.29544847203,45.8213795574,0.0,10.0,0.0,0.0,0.0,10.0,0.0,0.0,0.0,10.0,-0.709599272452,0.657933947304,1.32106105873,1.0,0.0,0.0,0.0,1.0,0.0,0.0,0.0,1.0,1.92918823242,2.34831665039,8.21252197266,0.1,0.0,0.0,0.0,0.1,0.0,0.0,0.0,0.1
1446036239802035224,360,1446036239798890113,robocape,43.5506032935,-4.63183783315,43.5506032935,0.0,10.0,0.0,0.0,0.0,10.0,0.0,0.0,0.0,10.0,-0.868723147584,0.898950025956,1.30601419857,1.0,0.0,0.0,0.0,1.0,0.0,0.0,0.0,1.0,1.85494262695,2.89557861328,12.9702282715,0.1,0.0,0.0,0.0,0.1,0.0,0.0,0.0,0.1
1446036239834917265,361,1446036239831541061,robocape,40.9860388574,-5.12812883786,40.9860388574,0.0,10.0,0.0,0.0,0.0,10.0,0.0,0.0,0.0,10.0,-1.06433232965,0.659132369795,1.24928886736,1.0,0.0,0.0,0.0,1.0,0.0,0.0,0.0,1.0,1.24062011719,2.11240722656,10.1129699707,0.1,0.0,0.0,0.0,0.1,0.0,0.0,0.0,0.1
1446036239867553224,362,1446036239864528894,robocape,37.8818465288,-5.43852723328,37.8818465288,0.0,10.0,0.0,0.0,0.0,10.0,0.0,0.0,0.0,10.0,-1.33171370309,0.7878962085,1.3615411073,1.0,0.0,0.0,0.0,1.0,0.0,0.0,0.0,1.0,2.13875244141,2.55189331055,9.37290893555,0.1,0.0,0.0,0.0,0.1,0.0,0.0,0.0,0.1
1446036239901506265,363,1446036239898360967,robocape,33.6185517687,-5.99752453761,33.6185517687,0.0,10.0,0.0,0.0,0.0,10.0,0.0,0.0,0.0,10.0,-1.95169760486,0.665923430574,1.56513977264,1.0,0.0,0.0,0.0,1.0,0.0,0.0,0.0,1.0,-4.32181274414,3.40332275391,11.8505566406,0.1,0.0,0.0,0.0,0.1,0.0,0.0,0.0,0.1
1446036239933311390,364,1446036239930242061,robocape,28.154018225,-6.84395852097,28.154018225,0.0,10.0,0.0,0.0,0.0,10.0,0.0,0.0,0.0,10.0,-2.59485100812,0.412257336744,1.68697939251,1.0,0.0,0.0,0.0,1.0,0.0,0.0,0.0,1.0,-2.85246826172,2.79139526367,9.60881835938,0.1,0.0,0.0,0.0,0.1,0.0,0.0,0.0,0.1
1446036239967023099,365,1446036239963970899,robocape,21.4780806027,-7.66658964563,21.4780806027,0.0,10.0,0.0,0.0,0.0,10.0,0.0,0.0,0.0,10.0,-3.23108019254,0.254331884103,1.72173364474,1.0,0.0,0.0,0.0,1.0,0.0,0.0,0.0,1.0,-3.38296508789,2.47046264648,6.78988037109,0.1,0.0,0.0,0.0,0.1,0.0,0.0,0.0,0.1
1446036240000092224,366,1446036239996961116,robocape,13.8126188226,-8.1279178167,13.8126188226,0.0,10.0,0.0,0.0,0.0,10.0,0.0,0.0,0.0,10.0,-3.78049032542,0.183358641052,1.53424710399,1.0,0.0,0.0,0.0,1.0,0.0,0.0,0.0,1.0,-0.530496826172,2.28125610352,7.1694909668,0.1,0.0,0.0,0.0,0.1,0.0,0.0,0.0,0.1
1446036240033087640,367,1446036240029849052,robocape,5.345166688,-8.49748991048,5.345166688,0.0,10.0,0.0,0.0,0.0,10.0,0.0,0.0,0.0,10.0,-4.27184354654,-0.0320910911355,1.17578562127,1.0,0.0,0.0,0.0,1.0,0.0,0.0,0.0,1.0,0.599952392578,0.920885009766,7.88200927734,0.1,0.0,0.0,0.0,0.1,0.0,0.0,0.0,0.1
1446036240065811724,368,1446036240062716960,robocape,-3.12430305753,-8.39637850752,-3.12430305753,0.0,10.0,0.0,0.0,0.0,10.0,0.0,0.0,0.0,10.0,-4.36332312999,0.0478037415669,0.697481889492,1.0,0.0,0.0,0.0,1.0,0.0,0.0,0.0,1.0,4.19727172852,-0.0610729980469,3.7206628418,0.1,0.0,0.0,0.0,0.1,0.0,0.0,0.0,0.1
1446036240099938849,369,1446036240096709012,robocape,-11.3824786264,-8.1961485054,-11.3824786264,0.0,10.0,0.0,0.0,0.0,10.0,0.0,0.0,0.0,10.0,-4.36332312999,0.0940095864798,0.0749679846857,1.0,0.0,0.0,0.0,1.0,0.0,0.0,0.0,1.0,3.07640258789,-0.591569824219,6.17196533203,0.1,0.0,0.0,0.0,0.1,0.0,0.0,0.0,0.1
1446036240138402807,370,1446036240129385948,robocape,-19.2159603283,-7.92878022891,-19.2159603283,0.0,10.0,0.0,0.0,0.0,10.0,0.0,0.0,0.0,10.0,-4.23229560435,0.272175063406,-0.426505248576,1.0,0.0,0.0,0.0,1.0,0.0,0.0,0.0,1.0,2.50279541016,-3.01892211914,9.0471862793,0.1,0.0,0.0,0.0,0.1,0.0,0.0,0.0,0.1
1446036240166278474,371,1446036240163232088,robocape,-21.3445662453,-7.99670723779,-21.3445662453,0.0,10.0,0.0,0.0,0.0,10.0,0.0,0.0,0.0,10.0,-1.29589418643,0.706536637198,-2.08671987213,1.0,0.0,0.0,0.0,1.0,0.0,0.0,0.0,1.0,11.1236682129,-19.62,12.0134179688,0.1,0.0,0.0,0.0,0.1,0.0,0.0,0.0,0.1
1446036240204941057,372,1446036240196429967,robocape,-18.123994622,-6.26470418472,-18.123994622,0.0,10.0,0.0,0.0,0.0,10.0,0.0,0.0,0.0,10.0,1.52452656602,1.86607697582,-2.64345369801,1.0,0.0,0.0,0.0,1.0,0.0,0.0,0.0,1.0,0.158071289063,-7.07848022461,11.3907128906,0.1,0.0,0.0,0.0,0.1,0.0,0.0,0.0,0.1
1446036240234026932,373,1446036240230812072,robocape,-14.4114218513,-5.07504293197,-14.4114218513,0.0,10.0,0.0,0.0,0.0,10.0,0.0,0.0,0.0,10.0,1.84317379044,1.22385567895,-2.03305717617,1.0,0.0,0.0,0.0,1.0,0.0,0.0,0.0,1.0,-2.90396118164,-0.431103515625,8.14186889648,0.1,0.0,0.0,0.0,0.1,0.0,0.0,0.0,0.1
1446036240267169849,374,1446036240264098882,robocape,-10.6102433556,-4.0181352529,-10.6102433556,0.0,10.0,0.0,0.0,0.0,10.0,0.0,0.0,0.0,10.0,1.90948650159,0.957273253829,-1.78724740755,1.0,0.0,0.0,0.0,1.0,0.0,0.0,0.0,1.0,-1.02147583008,-1.25020019531,11.072175293,0.1,0.0,0.0,0.0,0.1,0.0,0.0,0.0,0.1
1446036240300680391,375,1446036240297692060,robocape,-6.18889359799,-2.95442122388,-6.18889359799,0.0,10.0,0.0,0.0,0.0,10.0,0.0,0.0,0.0,10.0,2.24171584757,0.828509415124,-1.78817951393,1.0,0.0,0.0,0.0,1.0,0.0,0.0,0.0,1.0,0.261057128906,-1.59867553711,10.3524719238,0.1,0.0,0.0,0.0,0.1,0.0,0.0,0.0,0.1
1446036240333272599,376,1446036240330035924,robocape,-0.579885286545,-2.07367186834,-0.579885286545,0.0,10.0,0.0,0.0,0.0,10.0,0.0,0.0,0.0,10.0,2.85943606242,0.587892810635,-1.95649129483,1.0,0.0,0.0,0.0,1.0,0.0,0.0,0.0,1.0,-1.5364050293,-2.04175415039,7.64729736328,0.1,0.0,0.0,0.0,0.1,0.0,0.0,0.0,0.1
1446036240370013057,377,1446036240366569995,robocape,6.22066965402,-1.33129117543,6.22066965402,0.0,10.0,0.0,0.0,0.0,10.0,0.0,0.0,0.0,10.0,3.48567839275,0.309059844504,-1.93159073863,1.0,0.0,0.0,0.0,1.0,0.0,0.0,0.0,1.0,-1.37114868164,-1.43102416992,8.81486938477,0.1,0.0,0.0,0.0,0.1,0.0,0.0,0.0,0.1
1446036240402392432,378,1446036240398526906,robocape,13.6950257727,-0.615039112234,13.6950257727,0.0,10.0,0.0,0.0,0.0,10.0,0.0,0.0,0.0,10.0,3.87183675081,0.082957467956,-1.74277261735,1.0,0.0,0.0,0.0,1.0,0.0,0.0,0.0,1.0,-2.65607666016,0.621507568359,5.97317871094,0.1,0.0,0.0,0.0,0.1,0.0,0.0,0.0,0.1
1446036240436969224,379,1446036240432915925,robocape,21.1170668744,0.339981001541,21.1170668744,0.0,10.0,0.0,0.0,0.0,10.0,0.0,0.0,0.0,10.0,3.94667157744,0.172306522528,-1.06846022934,1.0,0.0,0.0,0.0,1.0,0.0,0.0,0.0,1.0,-2.92791137695,1.07177124023,6.81023803711,0.1,0.0,0.0,0.0,0.1,0.0,0.0,0.0,0.1
1446036240470013974,380,1446036240466424942,robocape,27.8401221529,1.24186288209,27.8401221529,0.0,10.0,0.0,0.0,0.0,10.0,0.0,0.0,0.0,10.0,3.69939707023,0.270843482861,-0.443948953716,1.0,0.0,0.0,0.0,1.0,0.0,0.0,0.0,1.0,0.567619628906,2.31598388672,6.88687866211,0.1,0.0,0.0,0.0,0.1,0.0,0.0,0.0,0.1
1446036240503419474,381,1446036240500231027,robocape,33.7097317104,1.81799575588,33.7097317104,0.0,10.0,0.0,0.0,0.0,10.0,0.0,0.0,0.0,10.0,3.36130876984,0.336090929568,0.106260127494,1.0,0.0,0.0,0.0,1.0,0.0,0.0,0.0,1.0,2.61296630859,3.59133178711,11.5667468262,0.1,0.0,0.0,0.0,0.1,0.0,0.0,0.0,0.1
1446036240535915224,382,1446036240532145977,robocape,38.9214209062,2.35389070474,38.9214209062,0.0,10.0,0.0,0.0,0.0,10.0,0.0,0.0,0.0,10.0,3.10764267601,0.478703205942,0.327968288243,1.0,0.0,0.0,0.0,1.0,0.0,0.0,0.0,1.0,7.83051635742,1.48012207031,8.30353271484,0.1,0.0,0.0,0.0,0.1,0.0,0.0,0.0,0.1
1446036240569908849,383,1446036240566575050,robocape,43.5812405968,2.49064904072,43.5812405968,0.0,10.0,0.0,0.0,0.0,10.0,0.0,0.0,0.0,10.0,2.91429718087,0.513057984004,0.656069734541,1.0,0.0,0.0,0.0,1.0,0.0,0.0,0.0,1.0,2.90156616211,2.27407104492,9.10346923828,0.1,0.0,0.0,0.0,0.1,0.0,0.0,0.0,0.1
1446036240603601891,384,1446036240600163936,robocape,47.6812675699,2.74814002735,47.6812675699,0.0,10.0,0.0,0.0,0.0,10.0,0.0,0.0,0.0,10.0,2.72188379212,0.985902235547,0.990962241618,1.0,0.0,0.0,0.0,1.0,0.0,0.0,0.0,1.0,-0.789158935547,4.85949462891,12.3786584473,0.1,0.0,0.0,0.0,0.1,0.0,0.0,0.0,0.1
1446036240637422932,385,1446036240633955001,robocape,48.993367012,2.23232641906,48.993367012,0.0,10.0,0.0,0.0,0.0,10.0,0.0,0.0,0.0,10.0,1.17844878236,1.4871091527,1.89989912166,1.0,0.0,0.0,0.0,1.0,0.0,0.0,0.0,1.0,5.64146850586,14.679074707,11.8661242676,0.1,0.0,0.0,0.0,0.1,0.0,0.0,0.0,0.1
1446036240670834599,386,1446036240667481899,robocape,46.5996817527,1.66860647335,46.5996817527,0.0,10.0,0.0,0.0,0.0,10.0,0.0,0.0,0.0,10.0,-1.02345280692,1.78804635588,2.15782627324,1.0,0.0,0.0,0.0,1.0,0.0,0.0,0.0,1.0,-1.49329467773,6.53361328125,11.3643676758,0.1,0.0,0.0,0.0,0.1,0.0,0.0,0.0,0.1
1446036240702877432,387,1446036240699140071,robocape,43.7664330541,1.41727356116,43.7664330541,0.0,10.0,0.0,0.0,0.0,10.0,0.0,0.0,0.0,10.0,-1.2933641834,1.4900386299,1.79590268109,1.0,0.0,0.0,0.0,1.0,0.0,0.0,0.0,1.0,2.12078979492,2.68481689453,10.1405126953,0.1,0.0,0.0,0.0,0.1,0.0,0.0,0.0,0.1
1446036240736704682,388,1446036240733215093,robocape,40.9832879711,1.18639662378,40.9832879711,0.0,10.0,0.0,0.0,0.0,10.0,0.0,0.0,0.0,10.0,-1.27552100409,1.1546134906,1.58151821334,1.0,0.0,0.0,0.0,1.0,0.0,0.0,0.0,1.0,-4.08350830078,1.79147460938,9.24717041016,0.1,0.0,0.0,0.0,0.1,0.0,0.0,0.0,0.1
1446036240769224557,389,1446036240765985012,robocape,38.2028441545,1.09264248563,38.2028441545,0.0,10.0,0.0,0.0,0.0,10.0,0.0,0.0,0.0,10.0,-1.28058101016,1.02105596194,1.45701543238,1.0,0.0,0.0,0.0,1.0,0.0,0.0,0.0,1.0,-2.02858154297,2.069296875,9.95010864258,0.1,0.0,0.0,0.0,0.1,0.0,0.0,0.0,0.1
1446036240801302099,390,1446036240798238039,robocape,35.4466682861,1.27468701087,35.4466682861,0.0,10.0,0.0,0.0,0.0,10.0,0.0,0.0,0.0,10.0,-1.28284469709,0.985902235547,1.30694630496,1.0,0.0,0.0,0.0,1.0,0.0,0.0,0.0,1.0,-0.643062744141,1.7208215332,10.1944006348,0.1,0.0,0.0,0.0,0.1,0.0,0.0,0.0,0.1
1446036240832030682,391,1446036240828844070,robocape,32.6712470183,1.3699769603,32.6712470183,0.0,10.0,0.0,0.0,0.0,10.0,0.0,0.0,0.0,10.0,-1.30761209523,0.809734129439,1.26340362113,1.0,0.0,0.0,0.0,1.0,0.0,0.0,0.0,1.0,-4.2571472168,1.97110107422,13.0229187012,0.1,0.0,0.0,0.0,0.1,0.0,0.0,0.0,0.1
1446036240865737683,392,1446036240862349987,robocape,29.821347094,1.08069487476,29.821347094,0.0,10.0,0.0,0.0,0.0,10.0,0.0,0.0,0.0,10.0,-1.37126164528,0.429301567721,1.14436032041,1.0,0.0,0.0,0.0,1.0,0.0,0.0,0.0,1.0,-0.573607177734,1.57712036133,9.53577026367,0.1,0.0,0.0,0.0,0.1,0.0,0.0,0.0,0.1
1446036240899440058,393,1446036240895683050,robocape,26.8742064299,1.17481807511,26.8742064299,0.0,10.0,0.0,0.0,0.0,10.0,0.0,0.0,0.0,10.0,-1.43224803424,0.551274345646,1.0656639102,1.0,0.0,0.0,0.0,1.0,0.0,0.0,0.0,1.0,-0.246687011719,1.37833374023,10.8206982422,0.1,0.0,0.0,0.0,0.1,0.0,0.0,0.0,0.1
1446036240932705849,394,1446036240928950071,robocape,23.7916373291,1.2990604939,23.7916373291,0.0,10.0,0.0,0.0,0.0,10.0,0.0,0.0,0.0,10.0,-1.52212972103,0.470580564617,0.984038022784,1.0,0.0,0.0,0.0,1.0,0.0,0.0,0.0,1.0,-0.0718505859375,1.74357421875,10.923684082,0.1,0.0,0.0,0.0,0.1,0.0,0.0,0.0,0.1
