%time,field.header.seq,field.header.stamp,field.header.frame_id,field.orientation.x,field.orientation.y,field.orientation.z,field.orientation.w,field.orientation_covariance0,field.orientation_covariance1,field.orientation_covariance2,field.orientation_covariance3,field.orientation_covariance4,field.orientation_covariance5,field.orientation_covariance6,field.orientation_covariance7,field.orientation_covariance8,field.angular_velocity.x,field.angular_velocity.y,field.angular_velocity.z,field.angular_velocity_covariance0,field.angular_velocity_covariance1,field.angular_velocity_covariance2,field.angular_velocity_covariance3,field.angular_velocity_covariance4,field.angular_velocity_covariance5,field.angular_velocity_covariance6,field.angular_velocity_covariance7,field.angular_velocity_covariance8,field.linear_acceleration.x,field.linear_acceleration.y,field.linear_acceleration.z,field.linear_acceleration_covariance0,field.linear_acceleration_covariance1,field.linear_acceleration_covariance2,field.linear_acceleration_covariance3,field.linear_acceleration_covariance4,field.linear_acceleration_covariance5,field.linear_acceleration_covariance6,field.linear_acceleration_covariance7,field.linear_acceleration_covariance8
1446040130451391042,1,1446040130448379993,robocape,-9.19027057737,-1.17934542552,-67.6347943767,0.0,10.0,0.0,0.0,0.0,10.0,0.0,0.0,0.0,10.0,-0.106792759712,0.38669099028,-1.64290407647,1.0,0.0,0.0,0.0,1.0,0.0,0.0,0.0,1.0,-0.203576660156,-0.112565917969,10.1165625,0.1,0.0,0.0,0.0,0.1,0.0,0.0,0.0,0.1
1446040130484525792,2,1446040130481519937,robocape,-9.31572727523,-0.993123746606,-70.3310918086,0.0,10.0,0.0,0.0,0.0,10.0,0.0,0.0,0.0,10.0,-0.134622793104,0.346477257819,-1.70708625874,1.0,0.0,0.0,0.0,1.0,0.0,0.0,0.0,1.0,-1.01788330078,0.159268798828,10.003996582,0.1,0.0,0.0,0.0,0.1,0.0,0.0,0.0,0.1
1446040130517580375,3,1446040130514591932,robocape,-9.56487091009,-1.10697936093,-72.9338541766,0.0,10.0,0.0,0.0,0.0,10.0,0.0,0.0,0.0,10.0,-0.197872868993,0.188951279341,-1.69669993049,1.0,0.0,0.0,0.0,1.0,0.0,0.0,0.0,1.0,-1.29450805664,0.304167480469,9.99082397461,0.1,0.0,0.0,0.0,0.1,0.0,0.0,0.0,0.1
1446040130550645667,4,1446040130547651052,robocape,-9.79385750212,-1.43194007152,-75.4866643768,0.0,10.0,0.0,0.0,0.0,10.0,0.0,0.0,0.0,10.0,-0.193478653194,0.0820253615744,-1.70535520403,1.0,0.0,0.0,0.0,1.0,0.0,0.0,0.0,1.0,-0.894539794922,-0.24908203125,10.0842297363,0.1,0.0,0.0,0.0,0.1,0.0,0.0,0.0,0.1
1446040130584667833,5,1446040130581214904,robocape,-9.83172464557,-1.72627155362,-78.0505927993,0.0,10.0,0.0,0.0,0.0,10.0,0.0,0.0,0.0,10.0,-0.102798018077,0.103197492241,-1.72958996995,1.0,0.0,0.0,0.0,1.0,0.0,0.0,0.0,1.0,-0.748443603516,0.110170898438,10.0818347168,0.1,0.0,0.0,0.0,0.1,0.0,0.0,0.0,0.1
1446040130617958042,6,1446040130614933013,robocape,-9.9604937058,-1.93471689679,-80.5379411938,0.0,10.0,0.0,0.0,0.0,10.0,0.0,0.0,0.0,10.0,-0.154729659334,0.142079644156,-1.68205254449,1.0,0.0,0.0,0.0,1.0,0.0,0.0,0.0,1.0,-0.928070068359,0.980760498047,10.1153649902,0.1,0.0,0.0,0.0,0.1,0.0,0.0,0.0,0.1
1446040130650758708,7,1446040130647820949,robocape,-10.3408402372,-2.08742066666,-82.9709494411,0.0,10.0,0.0,0.0,0.0,10.0,0.0,0.0,0.0,10.0,-0.291616139364,0.172572838637,-1.66114672994,1.0,0.0,0.0,0.0,1.0,0.0,0.0,0.0,1.0,-1.0765612793,1.01429077148,9.98483642578,0.1,0.0,0.0,0.0,0.1,0.0,0.0,0.0,0.1
1446040130684688292,8,1446040130681751012,robocape,-10.8665344887,-2.2756977327,-85.4636295238,0.0,10.0,0.0,0.0,0.0,10.0,0.0,0.0,0.0,10.0,-0.380965193936,0.175235999727,-1.75422421004,1.0,0.0,0.0,0.0,1.0,0.0,0.0,0.0,1.0,-1.50766479492,0.525706787109,9.95370117188,0.1,0.0,0.0,0.0,0.1,0.0,0.0,0.0,0.1
1446040130717360000,9,1446040130714432954,robocape,-11.3620393347,-2.51252884266,-88.0891836739,0.0,10.0,0.0,0.0,0.0,10.0,0.0,0.0,0.0,10.0,-0.385625725843,0.18389127327,-1.92107125233,1.0,0.0,0.0,0.0,1.0,0.0,0.0,0.0,1.0,-1.49928222656,0.359252929688,9.97884887695,0.1,0.0,0.0,0.0,0.1,0.0,0.0,0.0,0.1
1446040130750672833,10,1446040130747756958,robocape,-11.904613887,-2.55795263644,-90.7267825953,0.0,10.0,0.0,0.0,0.0,10.0,0.0,0.0,0.0,10.0,-0.419847345851,0.301336677342,-1.94211022494,1.0,0.0,0.0,0.0,1.0,0.0,0.0,0.0,1.0,-1.62981079102,0.748443603516,9.89143066406,0.1,0.0,0.0,0.0,0.1,0.0,0.0,0.0,0.1
1446040130784509083,11,1446040130781215906,robocape,-12.5403269344,-2.48377901179,-93.239013678,0.0,10.0,0.0,0.0,0.0,10.0,0.0,0.0,0.0,10.0,-0.46179213302,0.363388330741,-1.82852640445,1.0,0.0,0.0,0.0,1.0,0.0,0.0,0.0,1.0,-1.78069702148,0.176033935547,9.75850708008,0.1,0.0,0.0,0.0,0.1,0.0,0.0,0.0,0.1
1446040130817464083,12,1446040130814469099,robocape,-13.0957522619,-2.45036165801,-95.5805806816,0.0,10.0,0.0,0.0,0.0,10.0,0.0,0.0,0.0,10.0,-0.404800485692,0.332761978205,-1.66793779072,1.0,0.0,0.0,0.0,1.0,0.0,0.0,0.0,1.0,-1.91002807617,-0.337697753906,9.68905151367,0.1,0.0,0.0,0.0,0.1,0.0,0.0,0.0,0.1
1446040130850694375,13,1446040130847765922,robocape,-13.3281170438,-2.48080651776,-97.7656614049,0.0,10.0,0.0,0.0,0.0,10.0,0.0,0.0,0.0,10.0,-0.218112893277,0.282295075548,-1.49230231683,1.0,0.0,0.0,0.0,1.0,0.0,0.0,0.0,1.0,-1.91002807617,-1.56155273438,9.80401245117,0.1,0.0,0.0,0.0,0.1,0.0,0.0,0.0,0.1
1446040130884442125,14,1446040130881195068,robocape,-13.0467339197,-2.48039246231,-99.9347507466,0.0,10.0,0.0,0.0,0.0,10.0,0.0,0.0,0.0,10.0,0.0584563859272,0.292148771582,-1.43571014366,1.0,0.0,0.0,0.0,1.0,0.0,0.0,0.0,1.0,-1.55436767578,-1.13643676758,9.83275268555,0.1,0.0,0.0,0.0,0.1,0.0,0.0,0.0,0.1
1446040130917381792,15,1446040130914406061,robocape,-12.4998985162,-2.38084445971,-102.117553398,0.0,10.0,0.0,0.0,0.0,10.0,0.0,0.0,0.0,10.0,0.201734452574,0.335025665132,-1.42345960265,1.0,0.0,0.0,0.0,1.0,0.0,0.0,0.0,1.0,-1.76872192383,-1.01788330078,10.0075891113,0.1,0.0,0.0,0.0,0.1,0.0,0.0,0.0,0.1
1446040130950755167,16,1446040130947734117,robocape,-11.7338328082,-2.19452456155,-104.34531067,0.0,10.0,0.0,0.0,0.0,10.0,0.0,0.0,0.0,10.0,0.318913540537,0.373242026775,-1.46593702203,1.0,0.0,0.0,0.0,1.0,0.0,0.0,0.0,1.0,-2.23215820313,-0.330512695313,9.96807128906,0.1,0.0,0.0,0.0,0.1,0.0,0.0,0.0,0.1
1446040130984332500,17,1446040130981129884,robocape,-11.1509936847,-2.05638018464,-106.528393915,0.0,10.0,0.0,0.0,0.0,10.0,0.0,0.0,0.0,10.0,0.229963960128,0.329033552679,-1.45421911324,1.0,0.0,0.0,0.0,1.0,0.0,0.0,0.0,1.0,-2.58302856445,0.635877685547,9.96567626953,0.1,0.0,0.0,0.0,0.1,0.0,0.0,0.0,0.1
1446040131017413542,18,1446040131014391899,robocape,-11.0774524203,-2.0835810595,-108.524149124,0.0,10.0,0.0,0.0,0.0,10.0,0.0,0.0,0.0,10.0,-0.0210389726116,0.20812603919,-1.27099363024,1.0,0.0,0.0,0.0,1.0,0.0,0.0,0.0,1.0,-2.32316894531,1.43581420898,10.0590820312,0.1,0.0,0.0,0.0,0.1,0.0,0.0,0.0,0.1
1446040131050800708,19,1446040131047808885,robocape,-11.4462538212,-2.15054452801,-110.306252656,0.0,10.0,0.0,0.0,0.0,10.0,0.0,0.0,0.0,10.0,-0.233292911491,0.15313176268,-0.985236445275,1.0,0.0,0.0,0.0,1.0,0.0,0.0,0.0,1.0,-1.45138183594,0.0179626464844,10.1716479492,0.1,0.0,0.0,0.0,0.1,0.0,0.0,0.0,0.1
1446040131090730417,20,1446040131087589025,robocape,-11.6756599921,-2.11842924478,-111.993647189,0.0,10.0,0.0,0.0,0.0,10.0,0.0,0.0,0.0,10.0,-0.145674911627,0.186154960197,-0.779374093012,1.0,0.0,0.0,0.0,1.0,0.0,0.0,0.0,1.0,-1.03943847656,-1.04662353516,10.1105749512,0.1,0.0,0.0,0.0,0.1,0.0,0.0,0.0,0.1
1446040131117741459,21,1446040131114656925,robocape,-11.4249211632,-1.94346907135,-113.633594891,0.0,10.0,0.0,0.0,0.0,10.0,0.0,0.0,0.0,10.0,0.120508039326,0.240483446434,-0.592420184488,1.0,0.0,0.0,0.0,1.0,0.0,0.0,0.0,1.0,-1.33642089844,-0.996328125,9.98244140625,0.1,0.0,0.0,0.0,0.1,0.0,0.0,0.0,0.1
1446040131150845875,22,1446040131147933006,robocape,-10.8044096961,-1.68444901377,-115.109872346,0.0,10.0,0.0,0.0,0.0,10.0,0.0,0.0,0.0,10.0,0.340618303421,0.235290282309,-0.219444473823,1.0,0.0,0.0,0.0,1.0,0.0,0.0,0.0,1.0,-1.55796020508,-0.313747558594,9.75611206055,0.1,0.0,0.0,0.0,0.1,0.0,0.0,0.0,0.1
1446040131184176167,23,1446040131181221961,robocape,-9.64757343504,-1.47808631204,-116.502886751,0.0,10.0,0.0,0.0,0.0,10.0,0.0,0.0,0.0,10.0,0.633299707221,0.174836525564,0.00226368692657,1.0,0.0,0.0,0.0,1.0,0.0,0.0,0.0,1.0,-1.67890869141,-0.231119384766,9.51780761719,0.1,0.0,0.0,0.0,0.1,0.0,0.0,0.0,0.1
1446040131217301834,24,1446040131214359998,robocape,-8.03176199909,-1.36059361852,-117.913651605,0.0,10.0,0.0,0.0,0.0,10.0,0.0,0.0,0.0,10.0,0.869122621747,0.117179087963,0.015845808486,1.0,0.0,0.0,0.0,1.0,0.0,0.0,0.0,1.0,-1.66693359375,0.435893554688,9.35135375977,0.1,0.0,0.0,0.0,0.1,0.0,0.0,0.0,0.1
1446040131250779709,25,1446040131247688055,robocape,-6.406468493,-1.29830606029,-119.375185771,0.0,10.0,0.0,0.0,0.0,10.0,0.0,0.0,0.0,10.0,0.864195773731,0.085087996828,-0.0747016685767,1.0,0.0,0.0,0.0,1.0,0.0,0.0,0.0,1.0,-1.50047973633,1.31007568359,9.16573974609,0.1,0.0,0.0,0.0,0.1,0.0,0.0,0.0,0.1
1446040131284342125,26,1446040131281236886,robocape,-4.56266166205,-1.30049857476,-121.020342037,0.0,10.0,0.0,0.0,0.0,10.0,0.0,0.0,0.0,10.0,0.960735363246,0.0599211245268,-0.429701041884,1.0,0.0,0.0,0.0,1.0,0.0,0.0,0.0,1.0,-1.6896862793,2.25850341797,9.01365600586,0.1,0.0,0.0,0.0,0.1,0.0,0.0,0.0,0.1
1446040131317428542,27,1446040131314452886,robocape,-2.80760509247,-1.71705369871,-122.811842687,0.0,10.0,0.0,0.0,0.0,10.0,0.0,0.0,0.0,10.0,0.898550551793,-0.162719142604,-0.781904096047,1.0,0.0,0.0,0.0,1.0,0.0,0.0,0.0,1.0,-2.03696411133,2.37705688477,8.67715576172,0.1,0.0,0.0,0.0,0.1,0.0,0.0,0.0,0.1
1446040131350797375,28,1446040131347707986,robocape,-1.41588334348,-2.55039386462,-124.727302379,0.0,10.0,0.0,0.0,0.0,10.0,0.0,0.0,0.0,10.0,0.689891880385,-0.398275741021,-1.08630340864,1.0,0.0,0.0,0.0,1.0,0.0,0.0,0.0,1.0,-1.18194213867,4.1038659668,8.65200805664,0.1,0.0,0.0,0.0,0.1,0.0,0.0,0.0,0.1
1446040131384293750,29,1446040131381077051,robocape,-0.590805641792,-3.31568979826,-126.728568506,0.0,10.0,0.0,0.0,0.0,10.0,0.0,0.0,0.0,10.0,0.372309920393,-0.382962564753,-1.294828922,1.0,0.0,0.0,0.0,1.0,0.0,0.0,0.0,1.0,0.620310058594,2.96742919922,9.1932824707,0.1,0.0,0.0,0.0,0.1,0.0,0.0,0.0,0.1
1446040131427511042,30,1446040131424304962,robocape,0.422910847055,-3.44814162171,-128.887709969,0.0,10.0,0.0,0.0,0.0,10.0,0.0,0.0,0.0,10.0,0.449408433951,-0.0729706138682,-1.66487515546,1.0,0.0,0.0,0.0,1.0,0.0,0.0,0.0,1.0,0.992735595703,2.76744506836,9.11185180664,0.1,0.0,0.0,0.0,0.1,0.0,0.0,0.0,0.1
1446040131450904834,31,1446040131447896957,robocape,1.02858615222,-3.30527580907,-131.105668978,0.0,10.0,0.0,0.0,0.0,10.0,0.0,0.0,0.0,10.0,0.229697644019,0.0474042674034,-1.88884700314,1.0,0.0,0.0,0.0,1.0,0.0,0.0,0.0,1.0,0.462238769531,4.14338378906,8.87594238281,0.1,0.0,0.0,0.0,0.1,0.0,0.0,0.0,0.1
1446040131484212375,32,1446040131480989933,robocape,1.1044627979,-3.06999574928,-133.34413811,0.0,10.0,0.0,0.0,0.0,10.0,0.0,0.0,0.0,10.0,-0.0468716351854,0.0830906260105,-2.03798402418,1.0,0.0,0.0,0.0,1.0,0.0,0.0,0.0,1.0,0.386795654297,3.8703515625,9.07233398437,0.1,0.0,0.0,0.0,0.1,0.0,0.0,0.0,0.1
1446040131517954834,33,1446040131514986038,robocape,0.972148263455,-2.71627035421,-135.612715605,0.0,10.0,0.0,0.0,0.0,10.0,0.0,0.0,0.0,10.0,-0.153264920734,0.143278066646,-2.21748108165,1.0,0.0,0.0,0.0,1.0,0.0,0.0,0.0,1.0,0.177231445313,2.87162841797,9.47589477539,0.1,0.0,0.0,0.0,0.1,0.0,0.0,0.0,0.1
1446040131550985250,34,1446040131548011064,robocape,0.905759467117,-2.3765305504,-137.910141697,0.0,10.0,0.0,0.0,0.0,10.0,0.0,0.0,0.0,10.0,-0.113051188274,0.137818586412,-2.40576657072,1.0,0.0,0.0,0.0,1.0,0.0,0.0,0.0,1.0,-0.450263671875,2.31119384766,9.72497680664,0.1,0.0,0.0,0.0,0.1,0.0,0.0,0.0,0.1
1446040131584806709,35,1446040131581357002,robocape,1.05098633657,-2.21084113682,-140.176027281,0.0,10.0,0.0,0.0,0.0,10.0,0.0,0.0,0.0,10.0,0.00812264132474,0.0484695318394,-2.36195757079,1.0,0.0,0.0,0.0,1.0,0.0,0.0,0.0,1.0,-0.929267578125,1.90164550781,9.47349975586,0.1,0.0,0.0,0.0,0.1,0.0,0.0,0.0,0.1
1446040131617931792,36,1446040131614834070,robocape,1.36973965155,-2.21297287104,-142.387863317,0.0,10.0,0.0,0.0,0.0,10.0,0.0,0.0,0.0,10.0,0.106526443603,-0.0423442613323,-2.19271368352,1.0,0.0,0.0,0.0,1.0,0.0,0.0,0.0,1.0,-1.35198852539,2.36987182617,9.34177368164,0.1,0.0,0.0,0.0,0.1,0.0,0.0,0.0,0.1
1446040131650664250,37,1446040131647614002,robocape,1.77762046487,-2.4505345669,-144.54954062,0.0,10.0,0.0,0.0,0.0,10.0,0.0,0.0,0.0,10.0,0.155262291552,-0.172040206419,-1.9896476504,1.0,0.0,0.0,0.0,1.0,0.0,0.0,0.0,1.0,-1.75315429688,3.55181396484,9.28668823242,0.1,0.0,0.0,0.0,0.1,0.0,0.0,0.0,0.1
1446040131684477334,38,1446040131681407928,robocape,2.31116911851,-2.92305063824,-146.689864674,0.0,10.0,0.0,0.0,0.0,10.0,0.0,0.0,0.0,10.0,0.215183416078,-0.305464577032,-1.87952593932,1.0,0.0,0.0,0.0,1.0,0.0,0.0,0.0,1.0,-2.08246948242,3.39613769531,9.14897460938,0.1,0.0,0.0,0.0,0.1,0.0,0.0,0.0,0.1
1446040131717355417,39,1446040131714409112,robocape,2.96655065519,-3.63164705322,-148.839078169,0.0,10.0,0.0,0.0,0.0,10.0,0.0,0.0,0.0,10.0,0.26431873819,-0.446345798697,-1.9112175563,1.0,0.0,0.0,0.0,1.0,0.0,0.0,0.0,1.0,-1.65615600586,3.87993164063,8.91785522461,0.1,0.0,0.0,0.0,0.1,0.0,0.0,0.0,0.1
1446040131750590542,40,1446040131747679948,robocape,3.45701790622,-4.37710652355,-151.007170508,0.0,10.0,0.0,0.0,0.0,10.0,0.0,0.0,0.0,10.0,0.154463343225,-0.489089534193,-2.08858408489,1.0,0.0,0.0,0.0,1.0,0.0,0.0,0.0,1.0,-1.37953125,4.03201538086,8.87713989258,0.1,0.0,0.0,0.0,0.1,0.0,0.0,0.0,0.1
1446040131784528084,41,1446040131781366109,robocape,3.62647867125,-5.28847952049,-153.194512298,0.0,10.0,0.0,0.0,0.0,10.0,0.0,0.0,0.0,10.0,-0.0456732126949,-0.599610719431,-2.36009335803,1.0,0.0,0.0,0.0,1.0,0.0,0.0,0.0,1.0,-1.58191040039,3.98291748047,8.84121459961,0.1,0.0,0.0,0.0,0.1,0.0,0.0,0.0,0.1
1446040131817385042,42,1446040131814423084,robocape,3.46298745799,-6.38176425259,-155.389273339,0.0,10.0,0.0,0.0,0.0,10.0,0.0,0.0,0.0,10.0,-0.263919264027,-0.712528749651,-2.67021846697,1.0,0.0,0.0,0.0,1.0,0.0,0.0,0.0,1.0,-1.11847412109,4.62837524414,8.29395263672,0.1,0.0,0.0,0.0,0.1,0.0,0.0,0.0,0.1
1446040131850633542,43,1446040131847661972,robocape,3.06833199742,-7.41528458467,-157.569785558,0.0,10.0,0.0,0.0,0.0,10.0,0.0,0.0,0.0,10.0,-0.435826312391,-0.686296612913,-2.93307246656,1.0,0.0,0.0,0.0,1.0,0.0,0.0,0.0,1.0,-0.781973876953,4.73615112305,8.12630126953,0.1,0.0,0.0,0.0,0.1,0.0,0.0,0.0,0.1
1446040131884695292,44,1446040131881419897,robocape,2.44146786009,-8.4286691907,-159.717669075,0.0,10.0,0.0,0.0,0.0,10.0,0.0,0.0,0.0,10.0,-0.605070199666,-0.666456062792,-3.08740265173,1.0,0.0,0.0,0.0,1.0,0.0,0.0,0.0,1.0,-0.993933105469,4.3337878418,7.87961425781,0.1,0.0,0.0,0.0,0.1,0.0,0.0,0.0,0.1
1446040131917561042,45,1446040131914529085,robocape,1.72282517093,-9.45570644403,-161.832793392,0.0,10.0,0.0,0.0,0.0,10.0,0.0,0.0,0.0,10.0,-0.6992129442,-0.653539731505,-3.18780382482,1.0,0.0,0.0,0.0,1.0,0.0,0.0,0.0,1.0,-0.971180419922,4.10985351563,8.03289550781,0.1,0.0,0.0,0.0,0.1,0.0,0.0,0.0,0.1
1446040131950797959,46,1446040131947768926,robocape,0.979104532803,-10.4004853131,-163.915310464,0.0,10.0,0.0,0.0,0.0,10.0,0.0,0.0,0.0,10.0,-0.752609324056,-0.583365436782,-3.20791069105,1.0,0.0,0.0,0.0,1.0,0.0,0.0,0.0,1.0,-1.13643676758,3.96016479492,8.35502563477,0.1,0.0,0.0,0.0,0.1,0.0,0.0,0.0,0.1
1446040131984367417,47,1446040131981139898,robocape,0.305335045905,-11.3156571778,-165.973955135,0.0,10.0,0.0,0.0,0.0,10.0,0.0,0.0,0.0,10.0,-0.744220366623,-0.537692224087,-3.12521953921,1.0,0.0,0.0,0.0,1.0,0.0,0.0,0.0,1.0,-1.67890869141,3.23088134766,8.10833862305,0.1,0.0,0.0,0.0,0.1,0.0,0.0,0.0,0.1
1446040132017369417,48,1446040132014313936,robocape,-0.183345571898,-12.1600787077,-168.026803781,0.0,10.0,0.0,0.0,0.0,10.0,0.0,0.0,0.0,10.0,-0.667521327228,-0.473776357925,-2.99112937832,1.0,0.0,0.0,0.0,1.0,0.0,0.0,0.0,1.0,-1.35198852539,2.74828491211,8.200546875,0.1,0.0,0.0,0.0,0.1,0.0,0.0,0.0,0.1
1446040132050937334,49,1446040132047761917,robocape,-0.434061176542,-12.5613616483,-170.094702882,0.0,10.0,0.0,0.0,0.0,10.0,0.0,0.0,0.0,10.0,-0.557266458099,-0.222373951022,-2.87168660343,1.0,0.0,0.0,0.0,1.0,0.0,0.0,0.0,1.0,-0.831071777344,2.03337158203,8.58255249023,0.1,0.0,0.0,0.0,0.1,0.0,0.0,0.0,0.1
1446040132091227126,50,1446040132088020086,robocape,-0.402339433904,-12.3776060591,-172.190787776,0.0,10.0,0.0,0.0,0.0,10.0,0.0,0.0,0.0,10.0,-0.400139953784,0.0949416928613,-2.69724955203,1.0,0.0,0.0,0.0,1.0,0.0,0.0,0.0,1.0,-1.74477172852,2.36029174805,8.86995483398,0.1,0.0,0.0,0.0,0.1,0.0,0.0,0.0,0.1
1446040132117920376,51,1446040132114396095,robocape,-0.451940288398,-12.2281382124,-174.270336792,0.0,10.0,0.0,0.0,0.0,10.0,0.0,0.0,0.0,10.0,-0.41212417869,0.0808269390839,-2.47940297486,1.0,0.0,0.0,0.0,1.0,0.0,0.0,0.0,1.0,-3.31949707031,2.26928100586,9.03281616211,0.1,0.0,0.0,0.0,0.1,0.0,0.0,0.0,0.1
1446040132150616709,52,1446040132147557973,robocape,-0.659719814449,-12.5726703227,-176.32464472,0.0,10.0,0.0,0.0,0.0,10.0,0.0,0.0,0.0,10.0,-0.476306360961,-0.172173364474,-2.32214331249,1.0,0.0,0.0,0.0,1.0,0.0,0.0,0.0,1.0,-3.19495605469,2.68002685547,9.02682861328,0.1,0.0,0.0,0.0,0.1,0.0,0.0,0.0,0.1
1446040132184357292,53,1446040132181211948,robocape,-1.04788426495,-12.8603609973,-178.357638973,0.0,10.0,0.0,0.0,0.0,10.0,0.0,0.0,0.0,10.0,-0.567120154132,-0.132625422286,-2.21268739169,1.0,0.0,0.0,0.0,1.0,0.0,0.0,0.0,1.0,-2.07049438477,2.64889160156,9.46631469727,0.1,0.0,0.0,0.0,0.1,0.0,0.0,0.0,0.1
1446040132217312584,54,1446040132214375972,robocape,-1.72085283051,-13.0168442604,179.641360672,0.0,10.0,0.0,0.0,0.0,10.0,0.0,0.0,0.0,10.0,-0.704805582489,-0.049401638221,-2.06608037368,1.0,0.0,0.0,0.0,1.0,0.0,0.0,0.0,1.0,-1.58909545898,2.39262451172,10.2363134766,0.1,0.0,0.0,0.0,0.1,0.0,0.0,0.0,0.1
1446040132250716334,55,1446040132247770071,robocape,-2.07997261493,-13.0677333476,177.602970952,0.0,10.0,0.0,0.0,0.0,10.0,0.0,0.0,0.0,10.0,-0.542485914049,0.0231695014837,-2.03625296947,1.0,0.0,0.0,0.0,1.0,0.0,0.0,0.0,1.0,-0.578397216797,1.12206665039,10.3512744141,0.1,0.0,0.0,0.0,0.1,0.0,0.0,0.0,0.1
1446040132284524626,56,1446040132281234979,robocape,-2.24093837065,-12.8746812432,175.537164368,0.0,10.0,0.0,0.0,0.0,10.0,0.0,0.0,0.0,10.0,-0.427836829121,0.158857559023,-1.93265600307,1.0,0.0,0.0,0.0,1.0,0.0,0.0,0.0,1.0,-0.179626464844,0.562829589844,10.096204834,0.1,0.0,0.0,0.0,0.1,0.0,0.0,0.0,0.1
1446040132317324751,57,1446040132314378976,robocape,-2.08925462702,-12.4120318719,173.434217638,0.0,10.0,0.0,0.0,0.0,10.0,0.0,0.0,0.0,10.0,-0.215716048296,0.294146142399,-1.54742975139,1.0,0.0,0.0,0.0,1.0,0.0,0.0,0.0,1.0,-0.250279541016,-0.735270996094,9.27471313477,0.1,0.0,0.0,0.0,0.1,0.0,0.0,0.0,0.1
1446040132350608959,58,1446040132347642898,robocape,-1.54437891871,-11.8033308577,171.297632041,0.0,10.0,0.0,0.0,0.0,10.0,0.0,0.0,0.0,10.0,0.0617853372898,0.350738315563,-0.97977696504,1.0,0.0,0.0,0.0,1.0,0.0,0.0,0.0,1.0,-0.486188964844,-0.700543212891,9.36332885742,0.1,0.0,0.0,0.0,0.1,0.0,0.0,0.0,0.1
1446040132384626334,59,1446040132381156921,robocape,-0.945928915433,-11.1711057409,169.169755051,0.0,10.0,0.0,0.0,0.0,10.0,0.0,0.0,0.0,10.0,0.125168571234,0.347808838364,-0.755805117364,1.0,0.0,0.0,0.0,1.0,0.0,0.0,0.0,1.0,0.067060546875,0.537681884766,9.7680871582,0.1,0.0,0.0,0.0,0.1,0.0,0.0,0.0,0.1
1446040132417316459,60,1446040132414334058,robocape,-0.54448655486,-10.2014082646,167.07338937,0.0,10.0,0.0,0.0,0.0,10.0,0.0,0.0,0.0,10.0,0.0291616139364,0.517851673966,-0.84022732392,1.0,0.0,0.0,0.0,1.0,0.0,0.0,0.0,1.0,0.674197998047,1.04542602539,10.1836230469,0.1,0.0,0.0,0.0,0.1,0.0,0.0,0.0,0.1
1446040132450792126,61,1446040132447752952,robocape,-0.360178058086,-9.08211557726,165.001454026,0.0,10.0,0.0,0.0,0.0,10.0,0.0,0.0,0.0,10.0,-0.0906806351172,0.595349661687,-1.1265171411,1.0,0.0,0.0,0.0,1.0,0.0,0.0,0.0,1.0,0.408350830078,0.949625244141,10.8757836914,0.1,0.0,0.0,0.0,0.1,0.0,0.0,0.0,0.1
1446040132484829834,62,1446040132481400012,robocape,-0.299845199174,-7.97166851227,162.937551788,0.0,10.0,0.0,0.0,0.0,10.0,0.0,0.0,0.0,10.0,-0.152732288516,0.591354920052,-1.37046269695,1.0,0.0,0.0,0.0,1.0,0.0,0.0,0.0,1.0,-0.0778381347656,-0.0526904296875,11.7511633301,0.1,0.0,0.0,0.0,0.1,0.0,0.0,0.0,0.1
1446040132517443793,63,1446040132514398097,robocape,-0.0942174212785,-7.13020426025,160.861439903,0.0,10.0,0.0,0.0,0.0,10.0,0.0,0.0,0.0,10.0,-0.0624511275624,0.449008959787,-1.46899965729,1.0,0.0,0.0,0.0,1.0,0.0,0.0,0.0,1.0,-1.12565917969,-0.778381347656,12.3451281738,0.1,0.0,0.0,0.0,0.1,0.0,0.0,0.0,0.1
1446040132550933376,64,1446040132547769069,robocape,0.547691354456,-6.75996804537,158.75871657,0.0,10.0,0.0,0.0,0.0,10.0,0.0,0.0,0.0,10.0,0.179230741362,0.193611811249,-1.47086387005,1.0,0.0,0.0,0.0,1.0,0.0,0.0,0.0,1.0,-0.82388671875,-1.23822509766,12.5020019531,0.1,0.0,0.0,0.0,0.1,0.0,0.0,0.0,0.1
1446040132586926501,65,1446040132582597970,robocape,1.77670675455,-6.45103257697,156.631385962,0.0,10.0,0.0,0.0,0.0,10.0,0.0,0.0,0.0,10.0,0.497212175518,0.14101437972,-1.40375221058,1.0,0.0,0.0,0.0,1.0,0.0,0.0,0.0,1.0,0.0215551757813,0.106578369141,12.5043969727,0.1,0.0,0.0,0.0,0.1,0.0,0.0,0.0,0.1
1446040132617842168,66,1446040132614355087,robocape,2.90711918934,-5.99462279407,154.529893157,0.0,10.0,0.0,0.0,0.0,10.0,0.0,0.0,0.0,10.0,0.460860026638,0.193212337085,-1.29416313172,1.0,0.0,0.0,0.0,1.0,0.0,0.0,0.0,1.0,-0.0407153320313,1.38432128906,13.2121252441,0.1,0.0,0.0,0.0,0.1,0.0,0.0,0.0,0.1
1446040132651062709,67,1446040132647636890,robocape,3.36430173816,-5.7358659627,152.462777256,0.0,10.0,0.0,0.0,0.0,10.0,0.0,0.0,0.0,10.0,0.115448033255,0.0732369299772,-1.30907683383,1.0,0.0,0.0,0.0,1.0,0.0,0.0,0.0,1.0,-1.74477172852,1.98786621094,12.5008044434,0.1,0.0,0.0,0.0,0.1,0.0,0.0,0.0,0.1
1446040132685279584,68,1446040132681862115,robocape,3.29071626412,-5.71623645946,150.413352868,0.0,10.0,0.0,0.0,0.0,10.0,0.0,0.0,0.0,10.0,-0.161520720113,-0.0564590151097,-1.34622793104,1.0,0.0,0.0,0.0,1.0,0.0,0.0,0.0,1.0,-1.64897094727,0.159268798828,11.7511633301,0.1,0.0,0.0,0.0,0.1,0.0,0.0,0.0,0.1
1446040132717268001,69,1446040132714349985,robocape,3.22676099079,-5.67700664585,148.377748563,0.0,10.0,0.0,0.0,0.0,10.0,0.0,0.0,0.0,10.0,-0.150734917698,-0.0428768935503,-1.26034098588,1.0,0.0,0.0,0.0,1.0,0.0,0.0,0.0,1.0,-1.02746337891,-0.934057617188,12.2720800781,0.1,0.0,0.0,0.0,0.1,0.0,0.0,0.0,0.1
1446040132750700584,70,1446040132747755050,robocape,3.45355257896,-5.68089757014,146.369386291,0.0,10.0,0.0,0.0,0.0,10.0,0.0,0.0,0.0,10.0,0.0181094954125,-0.0621848114534,-0.985369603329,1.0,0.0,0.0,0.0,1.0,0.0,0.0,0.0,1.0,-0.986748046875,-0.816701660156,12.5870251465,0.1,0.0,0.0,0.0,0.1,0.0,0.0,0.0,0.1
1446040132785262709,71,1446040132781687021,robocape,4.03259949053,-5.70657440205,144.399760839,0.0,10.0,0.0,0.0,0.0,10.0,0.0,0.0,0.0,10.0,0.221308686586,-0.0753674588492,-0.682568187387,1.0,0.0,0.0,0.0,1.0,0.0,0.0,0.0,1.0,-0.955612792969,-0.814306640625,12.3978186035,0.1,0.0,0.0,0.0,0.1,0.0,0.0,0.0,0.1
1446040132817479626,72,1446040132814503908,robocape,4.77487396799,-5.84173183473,142.464708915,0.0,10.0,0.0,0.0,0.0,10.0,0.0,0.0,0.0,10.0,0.319446172755,-0.13835121863,-0.479901628432,1.0,0.0,0.0,0.0,1.0,0.0,0.0,0.0,1.0,-0.8813671875,-0.05748046875,11.7391882324,0.1,0.0,0.0,0.0,0.1,0.0,0.0,0.0,0.1
1446040132850586043,73,1446040132847664117,robocape,5.33550414992,-6.11053789487,140.55712419,0.0,10.0,0.0,0.0,0.0,10.0,0.0,0.0,0.0,10.0,0.226368692657,-0.214917099969,-0.424108403595,1.0,0.0,0.0,0.0,1.0,0.0,0.0,0.0,1.0,-0.653840332031,0.0323327636719,11.6146472168,0.1,0.0,0.0,0.0,0.1,0.0,0.0,0.0,0.1
1446040132885243501,74,1446040132881860971,robocape,5.81130770176,-6.30526432517,138.681579989,0.0,10.0,0.0,0.0,0.0,10.0,0.0,0.0,0.0,10.0,0.183225482997,-0.181361270234,-0.396411528258,1.0,0.0,0.0,0.0,1.0,0.0,0.0,0.0,1.0,-0.117355957031,-0.814306640625,11.5487841797,0.1,0.0,0.0,0.0,0.1,0.0,0.0,0.0,0.1
1446040132917632709,75,1446040132914460897,robocape,6.31942506938,-6.20096853256,136.888808682,0.0,10.0,0.0,0.0,0.0,10.0,0.0,0.0,0.0,10.0,0.217979735223,-0.0229031853747,-0.217047628841,1.0,0.0,0.0,0.0,1.0,0.0,0.0,0.0,1.0,-0.320932617188,-1.15559692383,11.7739160156,0.1,0.0,0.0,0.0,0.1,0.0,0.0,0.0,0.1
1446040132950737668,76,1446040132947705030,robocape,6.76504837087,-5.80150056476,135.227137639,0.0,10.0,0.0,0.0,0.0,10.0,0.0,0.0,0.0,10.0,0.216781312732,0.142612276374,0.0797616746479,1.0,0.0,0.0,0.0,1.0,0.0,0.0,0.0,1.0,-1.31606323242,-1.23223754883,11.8325939941,0.1,0.0,0.0,0.0,0.1,0.0,0.0,0.0,0.1
1446040132984938876,77,1446040132981548070,robocape,6.91410563226,-5.22120495858,133.652497455,0.0,10.0,0.0,0.0,0.0,10.0,0.0,0.0,0.0,10.0,0.0748348266312,0.244078713906,0.157259662369,1.0,0.0,0.0,0.0,1.0,0.0,0.0,0.0,1.0,-1.77111694336,-0.141306152344,11.4817236328,0.1,0.0,0.0,0.0,0.1,0.0,0.0,0.0,0.1
1446040133017530751,78,1446040133014368057,robocape,6.74940166374,-4.71558815409,132.088987088,0.0,10.0,0.0,0.0,0.0,10.0,0.0,0.0,0.0,10.0,-0.0940095864798,0.203598665337,0.0519316412565,1.0,0.0,0.0,0.0,1.0,0.0,0.0,0.0,1.0,-2.35430419922,0.147293701172,10.770402832,0.1,0.0,0.0,0.0,0.1,0.0,0.0,0.0,0.1
1446040133050657084,79,1446040133047653913,robocape,6.56908030401,-4.30964564985,130.513631604,0.0,10.0,0.0,0.0,0.0,10.0,0.0,0.0,0.0,10.0,-0.106526443603,0.148870704935,-0.0480700576759,1.0,0.0,0.0,0.0,1.0,0.0,0.0,0.0,1.0,-2.37106933594,-0.383203125,10.8386608887,0.1,0.0,0.0,0.0,0.1,0.0,0.0,0.0,0.1
1446040133092165709,80,1446040133088886976,robocape,6.63021509419,-4.0376611568,128.928140891,0.0,10.0,0.0,0.0,0.0,10.0,0.0,0.0,0.0,10.0,0.0198405501211,0.0768321974488,-0.0873516837546,1.0,0.0,0.0,0.0,1.0,0.0,0.0,0.0,1.0,-3.20214111328,-0.0239501953125,10.6278991699,0.1,0.0,0.0,0.0,0.1,0.0,0.0,0.0,0.1
1446040133118105001,81,1446040133114458084,robocape,6.85458211601,-4.06481011198,127.335913967,0.0,10.0,0.0,0.0,0.0,10.0,0.0,0.0,0.0,10.0,0.105461179167,-0.0820253615744,-0.0886832642996,1.0,0.0,0.0,0.0,1.0,0.0,0.0,0.0,1.0,-2.86923339844,0.387993164063,10.5955664063,0.1,0.0,0.0,0.0,0.1,0.0,0.0,0.0,0.1
1446040133150771834,82,1446040133147670984,robocape,7.16697210624,-4.29149807895,125.7435537,0.0,10.0,0.0,0.0,0.0,10.0,0.0,0.0,0.0,10.0,0.150069127426,-0.190282859886,-0.0986701183874,1.0,0.0,0.0,0.0,1.0,0.0,0.0,0.0,1.0,-2.16629516602,0.734073486328,10.213560791,0.1,0.0,0.0,0.0,0.1,0.0,0.0,0.0,0.1
1446040133185434543,83,1446040133182255029,robocape,7.3568144347,-4.46323353126,124.191369266,0.0,10.0,0.0,0.0,0.0,10.0,0.0,0.0,0.0,10.0,0.0868190515366,-0.162053352331,-0.0886832642996,1.0,0.0,0.0,0.0,1.0,0.0,0.0,0.0,1.0,-1.36755615234,1.43461669922,10.0411193848,0.1,0.0,0.0,0.0,0.1,0.0,0.0,0.0,0.1
1446040133217566960,84,1446040133214423894,robocape,7.1825578277,-4.45073072455,122.692850774,0.0,10.0,0.0,0.0,0.0,10.0,0.0,0.0,0.0,10.0,-0.104395914731,-0.0639158661619,-0.113317504383,1.0,0.0,0.0,0.0,1.0,0.0,0.0,0.0,1.0,-1.25499023438,1.25379272461,10.3392993164,0.1,0.0,0.0,0.0,0.1,0.0,0.0,0.0,0.1
1446040133250936793,85,1446040133247983932,robocape,6.87581423281,-4.34855196789,121.206610005,0.0,10.0,0.0,0.0,0.0,10.0,0.0,0.0,0.0,10.0,-0.177632844708,-0.017177389031,-0.180296005798,1.0,0.0,0.0,0.0,1.0,0.0,0.0,0.0,1.0,-1.36755615234,0.366437988281,9.91657836914,0.1,0.0,0.0,0.0,0.1,0.0,0.0,0.0,0.1
1446040133285015710,86,1446040133281805038,robocape,6.62560837623,-4.20761640043,119.757822674,0.0,10.0,0.0,0.0,0.0,10.0,0.0,0.0,0.0,10.0,-0.1448759633,0.00785632521573,-0.153664394898,1.0,0.0,0.0,0.0,1.0,0.0,0.0,0.0,1.0,-0.968785400391,-0.241896972656,9.5070300293,0.1,0.0,0.0,0.0,0.1,0.0,0.0,0.0,0.1
1446040133317611335,87,1446040133314434051,robocape,6.61496186092,-3.99683078162,118.375485318,0.0,10.0,0.0,0.0,0.0,10.0,0.0,0.0,0.0,10.0,-0.0099868540878,0.0513990090385,-0.0548611184556,1.0,0.0,0.0,0.0,1.0,0.0,0.0,0.0,1.0,-1.10410400391,-0.584384765625,9.63157104492,0.1,0.0,0.0,0.0,0.1,0.0,0.0,0.0,0.1
1446040133350763501,88,1446040133347795963,robocape,6.95099724575,-3.68234488074,117.091066003,0.0,10.0,0.0,0.0,0.0,10.0,0.0,0.0,0.0,10.0,0.186953908524,0.114249610764,0.102931176132,1.0,0.0,0.0,0.0,1.0,0.0,0.0,0.0,1.0,-1.41066650391,-0.196391601563,9.85550537109,0.1,0.0,0.0,0.0,0.1,0.0,0.0,0.0,0.1
1446040133390248793,89,1446040133387140035,robocape,7.20281745971,-4.16032021299,115.673709723,0.0,10.0,0.0,0.0,0.0,10.0,0.0,0.0,0.0,10.0,0.125834361506,-0.315584589174,-0.0697748205601,1.0,0.0,0.0,0.0,1.0,0.0,0.0,0.0,1.0,-4.20924682617,-0.262254638672,11.6589550781,0.1,0.0,0.0,0.0,0.1,0.0,0.0,0.0,0.1
1446040133417656793,90,1446040133414405107,robocape,7.28904698116,-4.49888024702,114.333233841,0.0,10.0,0.0,0.0,0.0,10.0,0.0,0.0,0.0,10.0,0.0426105774413,-0.239285023944,-0.0102531701968,1.0,0.0,0.0,0.0,1.0,0.0,0.0,0.0,1.0,-1.13284423828,0.307760009766,9.66629882813,0.1,0.0,0.0,0.0,0.1,0.0,0.0,0.0,0.1
1446040133450797376,91,1446040133447757005,robocape,7.5282267867,-4.86187795968,112.98632538,0.0,10.0,0.0,0.0,0.0,10.0,0.0,0.0,0.0,10.0,0.119043300727,-0.256728729084,-0.0428768935503,1.0,0.0,0.0,0.0,1.0,0.0,0.0,0.0,1.0,-1.48970214844,-0.550854492188,10.0099841309,0.1,0.0,0.0,0.0,0.1,0.0,0.0,0.0,0.1
1446040133484685418,92,1446040133481654882,robocape,7.93832612443,-5.33306946604,111.65173704,0.0,10.0,0.0,0.0,0.0,10.0,0.0,0.0,0.0,10.0,0.208791829462,-0.316383537501,-0.0195742340121,1.0,0.0,0.0,0.0,1.0,0.0,0.0,0.0,1.0,-1.56394775391,-0.0610729980469,10.1465002441,0.1,0.0,0.0,0.0,0.1,0.0,0.0,0.0,0.1
1446040133517669793,93,1446040133514415025,robocape,8.32594587966,-5.78873580693,110.347427718,0.0,10.0,0.0,0.0,0.0,10.0,0.0,0.0,0.0,10.0,0.197473394829,-0.310657741158,-0.00492684801665,1.0,0.0,0.0,0.0,1.0,0.0,0.0,0.0,1.0,-0.808319091797,0.350870361328,10.1884130859,0.1,0.0,0.0,0.0,0.1,0.0,0.0,0.0,0.1
1446040133550952293,94,1446040133547787904,robocape,8.61182818145,-6.19785866305,109.013060024,0.0,10.0,0.0,0.0,0.0,10.0,0.0,0.0,0.0,10.0,0.133424370613,-0.29534456489,-0.103197492241,1.0,0.0,0.0,0.0,1.0,0.0,0.0,0.0,1.0,-0.24908203125,0.738863525391,10.0722546387,0.1,0.0,0.0,0.0,0.1,0.0,0.0,0.0,0.1
1446040133584946918,95,1446040133581621885,robocape,8.82173927132,-6.36949238273,107.728199611,0.0,10.0,0.0,0.0,0.0,10.0,0.0,0.0,0.0,10.0,0.0945422186978,-0.171640732256,-0.111719607729,1.0,0.0,0.0,0.0,1.0,0.0,0.0,0.0,1.0,-0.227526855469,0.444276123047,10.6650219727,0.1,0.0,0.0,0.0,0.1,0.0,0.0,0.0,0.1
1446040133618089335,96,1446040133614458084,robocape,9.08709576028,-6.35898391081,106.544671897,0.0,10.0,0.0,0.0,0.0,10.0,0.0,0.0,0.0,10.0,0.13688648003,-0.0695085044511,-0.0210389726116,1.0,0.0,0.0,0.0,1.0,0.0,0.0,0.0,1.0,-0.814306640625,0.420325927734,10.4530627441,0.1,0.0,0.0,0.0,0.1,0.0,0.0,0.0,0.1
1446040133650757001,97,1446040133647667884,robocape,9.27021184646,-6.30830644691,105.441048463,0.0,10.0,0.0,0.0,0.0,10.0,0.0,0.0,0.0,10.0,0.103596966404,-0.0423442613323,0.0466053190764,1.0,0.0,0.0,0.0,1.0,0.0,0.0,0.0,1.0,-0.743653564453,1.54359008789,10.4758154297,0.1,0.0,0.0,0.0,0.1,0.0,0.0,0.0,0.1
1446040133684887501,98,1446040133681713104,robocape,9.19496813691,-6.23628308322,104.396051857,0.0,10.0,0.0,0.0,0.0,10.0,0.0,0.0,0.0,10.0,-0.0284958236638,-0.0264984528463,0.066579027252,1.0,0.0,0.0,0.0,1.0,0.0,0.0,0.0,1.0,-0.876577148438,1.28612548828,10.1309326172,0.1,0.0,0.0,0.0,0.1,0.0,0.0,0.0,0.1
1446040133717951043,99,1446040133714713096,robocape,9.01057915659,-6.19903520556,103.277519408,0.0,10.0,0.0,0.0,0.0,10.0,0.0,0.0,0.0,10.0,-0.101599595587,-0.0539290120741,-0.0715058752686,1.0,0.0,0.0,0.0,1.0,0.0,0.0,0.0,1.0,-1.01668579102,0.735270996094,9.9213684082,0.1,0.0,0.0,0.0,0.1,0.0,0.0,0.0,0.1
1446040133750694001,100,1446040133747764110,robocape,8.85226303797,-6.22145083288,102.137329597,0.0,10.0,0.0,0.0,0.0,10.0,0.0,0.0,0.0,10.0,-0.0936101123163,-0.0874848418091,-0.116380139636,1.0,0.0,0.0,0.0,1.0,0.0,0.0,0.0,1.0,-0.438288574219,0.279019775391,9.77287719727,0.1,0.0,0.0,0.0,0.1,0.0,0.0,0.0,0.1
1446040133784943501,101,1446040133781702041,robocape,8.80445997053,-6.21171989364,101.083126149,0.0,10.0,0.0,0.0,0.0,10.0,0.0,0.0,0.0,10.0,-0.0246342400832,-0.0623179695079,-0.0251668723012,1.0,0.0,0.0,0.0,1.0,0.0,0.0,0.0,1.0,-0.911304931641,0.5748046875,10.0435144043,0.1,0.0,0.0,0.0,0.1,0.0,0.0,0.0,0.1
1446040133817702251,102,1446040133814481019,robocape,8.69082294114,-6.31182561133,100.069914191,0.0,10.0,0.0,0.0,0.0,10.0,0.0,0.0,0.0,10.0,-0.0559263828917,-0.115847507418,0.0143810698864,1.0,0.0,0.0,0.0,1.0,0.0,0.0,0.0,1.0,-0.556842041016,0.631087646484,9.90939331055,0.1,0.0,0.0,0.0,0.1,0.0,0.0,0.0,0.1
1446040133850716460,103,1446040133847769021,robocape,8.59594602961,-6.44111150241,99.1017497801,0.0,10.0,0.0,0.0,0.0,10.0,0.0,0.0,0.0,10.0,-0.0423442613323,-0.127565416215,0.0525974315291,1.0,0.0,0.0,0.0,1.0,0.0,0.0,0.0,1.0,-0.935255126953,0.0323327636719,10.0171691895,0.1,0.0,0.0,0.0,0.1,0.0,0.0,0.0,0.1
1446040133884918668,104,1446040133881668090,robocape,8.56247210575,-6.60862519456,98.150310881,0.0,10.0,0.0,0.0,0.0,10.0,0.0,0.0,0.0,10.0,-0.00985369603329,-0.147139650227,0.0608532309083,1.0,0.0,0.0,0.0,1.0,0.0,0.0,0.0,1.0,-0.693358154297,0.140108642578,9.80520996094,0.1,0.0,0.0,0.0,0.1,0.0,0.0,0.0,0.1
1446040133917772835,105,1446040133914537906,robocape,8.61149018323,-6.89188312155,97.1781738263,0.0,10.0,0.0,0.0,0.0,10.0,0.0,0.0,0.0,10.0,0.0291616139364,-0.210922358334,0.0391484680242,1.0,0.0,0.0,0.0,1.0,0.0,0.0,0.0,1.0,-0.395178222656,0.307760009766,9.74772949219,0.1,0.0,0.0,0.0,0.1,0.0,0.0,0.0,0.1
1446040133950747793,106,1446040133947730064,robocape,8.73382590291,-7.21507055679,96.1834829616,0.0,10.0,0.0,0.0,0.0,10.0,0.0,0.0,0.0,10.0,0.0623179695079,-0.236089230636,0.00439421579863,1.0,0.0,0.0,0.0,1.0,0.0,0.0,0.0,1.0,-0.312550048828,0.340092773437,9.97765136719,0.1,0.0,0.0,0.0,0.1,0.0,0.0,0.0,0.1
1446040133984752752,107,1446040133981539011,robocape,8.81492941986,-7.56987716579,95.193903318,0.0,10.0,0.0,0.0,0.0,10.0,0.0,0.0,0.0,10.0,0.0379500455336,-0.254465042157,-0.00719053494321,1.0,0.0,0.0,0.0,1.0,0.0,0.0,0.0,1.0,0.0946032714844,0.473016357422,10.0950073242,0.1,0.0,0.0,0.0,0.1,0.0,0.0,0.0,0.1
1446040134017812377,108,1446040134014525890,robocape,8.9281953965,-7.84156849052,94.2091105249,0.0,10.0,0.0,0.0,0.0,10.0,0.0,0.0,0.0,10.0,0.0519316412565,-0.213319203315,-0.0312921428084,1.0,0.0,0.0,0.0,1.0,0.0,0.0,0.0,1.0,0.113763427734,0.8813671875,10.0650695801,0.1,0.0,0.0,0.0,0.1,0.0,0.0,0.0,0.1
1446040134050659752,109,1446040134047662019,robocape,8.99048745517,-7.98493667107,93.2459565876,0.0,10.0,0.0,0.0,0.0,10.0,0.0,0.0,0.0,10.0,0.0238352917562,-0.146740176063,-0.0511326929295,1.0,0.0,0.0,0.0,1.0,0.0,0.0,0.0,1.0,0.13412109375,0.907712402344,10.1405126953,0.1,0.0,0.0,0.0,0.1,0.0,0.0,0.0,0.1
1446040134091881502,110,1446040134088764905,robocape,8.94582815062,-8.10919162286,92.3324594356,0.0,10.0,0.0,0.0,0.0,10.0,0.0,0.0,0.0,10.0,-0.0287621397729,-0.133557528667,-0.0268979270098,1.0,0.0,0.0,0.0,1.0,0.0,0.0,0.0,1.0,0.116158447266,0.749641113281,9.68306396484,0.1,0.0,0.0,0.0,0.1,0.0,0.0,0.0,0.1
1446040134120494168,111,1446040134117368936,robocape,8.83327214015,-8.39974132077,91.4160679204,0.0,10.0,0.0,0.0,0.0,10.0,0.0,0.0,0.0,10.0,-0.067377975579,-0.220909212422,-0.0264984528463,1.0,0.0,0.0,0.0,1.0,0.0,0.0,0.0,1.0,-0.0790356445313,0.905317382813,9.34297119141,0.1,0.0,0.0,0.0,0.1,0.0,0.0,0.0,0.1
1446040134150715793,112,1446040134147609949,robocape,8.69208045325,-8.80990065702,90.5075207341,0.0,10.0,0.0,0.0,0.0,10.0,0.0,0.0,0.0,10.0,-0.0844222065555,-0.283493498039,-0.0183758115215,1.0,0.0,0.0,0.0,1.0,0.0,0.0,0.0,1.0,-0.449066162109,0.652642822266,9.25675048828,0.1,0.0,0.0,0.0,0.1,0.0,0.0,0.0,0.1
1446040134184653627,113,1446040134181478977,robocape,8.52157197477,-9.41817106595,89.5801100273,0.0,10.0,0.0,0.0,0.0,10.0,0.0,0.0,0.0,10.0,-0.10612696944,-0.38935415137,-0.0254331884103,1.0,0.0,0.0,0.0,1.0,0.0,0.0,0.0,1.0,-0.359252929688,0.572409667969,9.86987548828,0.1,0.0,0.0,0.0,0.1,0.0,0.0,0.0,0.1
1446040134217735710,114,1446040134214452028,robocape,8.10697132635,-9.00647659386,88.8221245649,0.0,10.0,0.0,0.0,0.0,10.0,0.0,0.0,0.0,10.0,-0.223705531567,0.154463343225,-0.0464721610219,1.0,0.0,0.0,0.0,1.0,0.0,0.0,0.0,1.0,1.60107055664,0.758023681641,12.5834326172,0.1,0.0,0.0,0.0,0.1,0.0,0.0,0.0,0.1
1446040134250644877,115,1446040134247725963,robocape,7.88076015894,-8.74341239445,88.0870315329,0.0,10.0,0.0,0.0,0.0,10.0,0.0,0.0,0.0,10.0,-0.119043300727,0.0802943068659,0.000798948327024,1.0,0.0,0.0,0.0,1.0,0.0,0.0,0.0,1.0,-0.566422119141,-0.792751464844,10.6434667969,0.1,0.0,0.0,0.0,0.1,0.0,0.0,0.0,0.1
1446040134284891960,116,1446040134281645059,robocape,7.82275919132,-8.6022993806,87.437057048,0.0,10.0,0.0,0.0,0.0,10.0,0.0,0.0,0.0,10.0,-0.016378440704,0.0229031853747,0.102931176132,1.0,0.0,0.0,0.0,1.0,0.0,0.0,0.0,1.0,-0.253872070313,-0.0407153320313,10.1045874023,0.1,0.0,0.0,0.0,0.1,0.0,0.0,0.0,0.1
1446040134317574585,117,1446040134314428091,robocape,7.83816261964,-8.51746197781,86.7247657505,0.0,10.0,0.0,0.0,0.0,10.0,0.0,0.0,0.0,10.0,0.0126500151779,-0.0105194863058,0.0400805744057,1.0,0.0,0.0,0.0,1.0,0.0,0.0,0.0,1.0,-0.451461181641,0.623902587891,10.0710571289,0.1,0.0,0.0,0.0,0.1,0.0,0.0,0.0,0.1
1446040134350725793,118,1446040134347784996,robocape,7.78823611123,-8.34511642778,86.0152018684,0.0,10.0,0.0,0.0,0.0,10.0,0.0,0.0,0.0,10.0,-0.0239684498107,0.0356863586071,0.0122505410144,1.0,0.0,0.0,0.0,1.0,0.0,0.0,0.0,1.0,-1.1532019043,0.513731689453,10.0614770508,0.1,0.0,0.0,0.0,0.1,0.0,0.0,0.0,0.1
1446040134385060543,119,1446040134381824970,robocape,7.68052871698,-8.11178073412,85.3176946753,0.0,10.0,0.0,0.0,0.0,10.0,0.0,0.0,0.0,10.0,-0.0548611184556,0.0691090302876,-0.00146473859954,1.0,0.0,0.0,0.0,1.0,0.0,0.0,0.0,1.0,0.198786621094,0.265847167969,9.91897338867,0.1,0.0,0.0,0.0,0.1,0.0,0.0,0.0,0.1
1446040134417599127,120,1446040134414457082,robocape,7.61872494751,-7.81290621476,84.6225483623,0.0,10.0,0.0,0.0,0.0,10.0,0.0,0.0,0.0,10.0,-0.0314253008629,0.104262756677,-0.017710021249,1.0,0.0,0.0,0.0,1.0,0.0,0.0,0.0,1.0,0.0359252929688,0.401165771484,10.075847168,0.1,0.0,0.0,0.0,0.1,0.0,0.0,0.0,0.1
1446040134450603835,121,1446040134447676897,robocape,7.52291174202,-7.51820936508,83.9641323084,0.0,10.0,0.0,0.0,0.0,10.0,0.0,0.0,0.0,10.0,-0.0454068965859,0.105594337222,0.00372842552611,1.0,0.0,0.0,0.0,1.0,0.0,0.0,0.0,1.0,0.0203576660156,0.1916015625,9.99441650391,0.1,0.0,0.0,0.0,0.1,0.0,0.0,0.0,0.1
1446040134484725918,122,1446040134481506109,robocape,7.4074332399,-7.20155865105,83.3326773478,0.0,10.0,0.0,0.0,0.0,10.0,0.0,0.0,0.0,10.0,-0.0533963798561,0.119975407108,0.0138484376684,1.0,0.0,0.0,0.0,1.0,0.0,0.0,0.0,1.0,-0.184416503906,0.342487792969,10.2075732422,0.1,0.0,0.0,0.0,0.1,0.0,0.0,0.0,0.1
1446040134517486335,123,1446040134514391899,robocape,7.25649436323,-7.01616203256,82.7005127088,0.0,10.0,0.0,0.0,0.0,10.0,0.0,0.0,0.0,10.0,-0.0725711397047,0.0525974315291,0.016644756813,1.0,0.0,0.0,0.0,1.0,0.0,0.0,0.0,1.0,-0.160466308594,0.473016357422,10.3033740234,0.1,0.0,0.0,0.0,0.1,0.0,0.0,0.0,0.1
1446040134550808668,124,1446040134547684907,robocape,7.04309113896,-6.90389731703,82.0671821167,0.0,10.0,0.0,0.0,0.0,10.0,0.0,0.0,0.0,10.0,-0.106925917767,0.015313176268,0.0102531701968,1.0,0.0,0.0,0.0,1.0,0.0,0.0,0.0,1.0,0.288599853516,0.371228027344,10.0027990723,0.1,0.0,0.0,0.0,0.1,0.0,0.0,0.0,0.1
1446040134584936460,125,1446040134581429958,robocape,6.80855522227,-6.80351095764,81.4519994578,0.0,10.0,0.0,0.0,0.0,10.0,0.0,0.0,0.0,10.0,-0.117578562127,0.0110521185238,0.0167779148675,1.0,0.0,0.0,0.0,1.0,0.0,0.0,0.0,1.0,0.0718505859375,0.0706530761719,10.039921875,0.1,0.0,0.0,0.0,0.1,0.0,0.0,0.0,0.1
1446040134619300294,126,1446040134615628957,robocape,6.62654916153,-6.69198526878,80.8470165294,0.0,10.0,0.0,0.0,0.0,10.0,0.0,0.0,0.0,10.0,-0.0900148448447,0.0181094954125,0.01744370514,1.0,0.0,0.0,0.0,1.0,0.0,0.0,0.0,1.0,-0.0886157226563,-0.0299377441406,10.0985998535,0.1,0.0,0.0,0.0,0.1,0.0,0.0,0.0,0.1
1446040134650592794,127,1446040134647605895,robocape,6.45325010894,-6.58041305859,80.2628013172,0.0,10.0,0.0,0.0,0.0,10.0,0.0,0.0,0.0,10.0,-0.0844222065555,0.0199737081756,0.0268979270098,1.0,0.0,0.0,0.0,1.0,0.0,0.0,0.0,1.0,0.01916015625,0.137713623047,10.0866247559,0.1,0.0,0.0,0.0,0.1,0.0,0.0,0.0,0.1
1446040134684791669,128,1446040134681622982,robocape,6.29661125026,-6.4732571497,79.6654711855,0.0,10.0,0.0,0.0,0.0,10.0,0.0,0.0,0.0,10.0,-0.0781637779938,0.0175768631945,0.00705737688871,1.0,0.0,0.0,0.0,1.0,0.0,0.0,0.0,1.0,-0.0502954101563,-0.0347277832031,10.0267492676,0.1,0.0,0.0,0.0,0.1,0.0,0.0,0.0,0.1
1446040134717417627,129,1446040134714402914,robocape,6.15605738253,-6.36681476278,79.1044616314,0.0,10.0,0.0,0.0,0.0,10.0,0.0,0.0,0.0,10.0,-0.0669785014155,0.0197073920666,0.0308926686449,1.0,0.0,0.0,0.0,1.0,0.0,0.0,0.0,1.0,-0.0119750976563,0.0359252929688,10.0471069336,0.1,0.0,0.0,0.0,0.1,0.0,0.0,0.0,0.1
1446040134750692169,130,1446040134747750997,robocape,6.05181276734,-6.26111507088,78.5288262427,0.0,10.0,0.0,0.0,0.0,10.0,0.0,0.0,0.0,10.0,-0.050200586548,0.0190416017941,0.0109189604693,1.0,0.0,0.0,0.0,1.0,0.0,0.0,0.0,1.0,-0.0251477050781,-0.0730480957031,10.0087866211,0.1,0.0,0.0,0.0,0.1,0.0,0.0,0.0,0.1
1446040134784827919,131,1446040134781282901,robocape,6.01062013037,-6.15435623792,77.9544230376,0.0,10.0,0.0,0.0,0.0,10.0,0.0,0.0,0.0,10.0,-0.01744370514,0.0199737081756,0.00585895439817,1.0,0.0,0.0,0.0,1.0,0.0,0.0,0.0,1.0,-0.00838256835938,-0.265847167969,10.0662670898,0.1,0.0,0.0,0.0,0.1,0.0,0.0,0.0,0.1
1446040134817348585,132,1446040134814388990,robocape,6.03457234274,-6.04395746944,77.3867037069,0.0,10.0,0.0,0.0,0.0,10.0,0.0,0.0,0.0,10.0,0.017177389031,0.0223705531567,0.00545948023466,1.0,0.0,0.0,0.0,1.0,0.0,0.0,0.0,1.0,-0.0227526855469,-0.286204833984,10.0710571289,0.1,0.0,0.0,0.0,0.1,0.0,0.0,0.0,0.1
1446040134850631085,133,1446040134847687005,robocape,6.1059515596,-5.9338071728,76.8283748178,0.0,10.0,0.0,0.0,0.0,10.0,0.0,0.0,0.0,10.0,0.0428768935503,0.0227700273202,0.00719053494321,1.0,0.0,0.0,0.0,1.0,0.0,0.0,0.0,1.0,-0.0467028808594,-0.0814306640625,10.0710571289,0.1,0.0,0.0,0.0,0.1,0.0,0.0,0.0,0.1
1446040134885041002,134,1446040134881500005,robocape,6.17265379375,-5.82334929997,76.2805838114,0.0,10.0,0.0,0.0,0.0,10.0,0.0,0.0,0.0,10.0,0.0411458388417,0.0235689756472,0.00798948327024,1.0,0.0,0.0,0.0,1.0,0.0,0.0,0.0,1.0,-0.0311352539063,0.141306152344,10.0770446777,0.1,0.0,0.0,0.0,0.1,0.0,0.0,0.0,0.1
1446040134917491710,135,1446040134914450883,robocape,6.19369601552,-5.71837969777,75.7427372066,0.0,10.0,0.0,0.0,0.0,10.0,0.0,0.0,0.0,10.0,0.0175768631945,0.0214384467751,0.00745685105222,1.0,0.0,0.0,0.0,1.0,0.0,0.0,0.0,1.0,-0.0395178222656,0.232316894531,10.0435144043,0.1,0.0,0.0,0.0,0.1,0.0,0.0,0.0,0.1
1446040134950847127,136,1446040134947794914,robocape,6.15909358861,-5.61735666273,75.2148924816,0.0,10.0,0.0,0.0,0.0,10.0,0.0,0.0,0.0,10.0,-0.0114515926873,0.0202400242846,0.0066579027252,1.0,0.0,0.0,0.0,1.0,0.0,0.0,0.0,1.0,-0.0347277832031,0.164058837891,10.0231567383,0.1,0.0,0.0,0.0,0.1,0.0,0.0,0.0,0.1
1446040134984769044,137,1446040134981239080,robocape,6.09757422847,-5.51913929052,74.6951561492,0.0,10.0,0.0,0.0,0.0,10.0,0.0,0.0,0.0,10.0,-0.0255663464648,0.0195742340121,0.00545948023466,1.0,0.0,0.0,0.0,1.0,0.0,0.0,0.0,1.0,-0.0167651367188,-0.00359252929688,10.0530944824,0.1,0.0,0.0,0.0,0.1,0.0,0.0,0.0,0.1
1446040135017385419,138,1446040135014362096,robocape,6.06248164962,-5.42073757632,74.1833970463,0.0,10.0,0.0,0.0,0.0,10.0,0.0,0.0,0.0,10.0,-0.0114515926873,0.0203731823391,0.00599211245268,1.0,0.0,0.0,0.0,1.0,0.0,0.0,0.0,1.0,-0.0251477050781,-0.146096191406,10.0423168945,0.1,0.0,0.0,0.0,0.1,0.0,0.0,0.0,0.1
1446040135050789835,139,1446040135047801017,robocape,6.07010158087,-5.32109898144,73.6787153587,0.0,10.0,0.0,0.0,0.0,10.0,0.0,0.0,0.0,10.0,0.0113184346328,0.0215716048296,0.00639158661619,1.0,0.0,0.0,0.0,1.0,0.0,0.0,0.0,1.0,-0.0215551757813,-0.186811523438,10.0219592285,0.1,0.0,0.0,0.0,0.1,0.0,0.0,0.0,0.1
1446040135091698002,140,1446040135088551998,robocape,6.11021562106,-5.22046357002,73.1821785345,0.0,10.0,0.0,0.0,0.0,10.0,0.0,0.0,0.0,10.0,0.0288952978274,0.0226368692657,0.00745685105222,1.0,0.0,0.0,0.0,1.0,0.0,0.0,0.0,1.0,-0.028740234375,-0.0634680175781,10.0375268555,0.1,0.0,0.0,0.0,0.1,0.0,0.0,0.0,0.1
1446040135117804210,141,1446040135114789962,robocape,6.14835712873,-5.12057977826,72.6930508229,0.0,10.0,0.0,0.0,0.0,10.0,0.0,0.0,0.0,10.0,0.0282295075548,0.0227700273202,0.00705737688871,1.0,0.0,0.0,0.0,1.0,0.0,0.0,0.0,1.0,-0.0347277832031,0.086220703125,10.0435144043,0.1,0.0,0.0,0.0,0.1,0.0,0.0,0.0,0.1
1446040135150662002,142,1446040135147675991,robocape,6.15476861482,-5.0252527536,72.2122823584,0.0,10.0,0.0,0.0,0.0,10.0,0.0,0.0,0.0,10.0,0.0118510668509,0.0210389726116,0.00692421883421,1.0,0.0,0.0,0.0,1.0,0.0,0.0,0.0,1.0,-0.0299377441406,0.130528564453,10.0650695801,0.1,0.0,0.0,0.0,0.1,0.0,0.0,0.0,0.1
1446040135185088127,143,1446040135181499958,robocape,6.11729430868,-4.93188813855,71.7402888232,0.0,10.0,0.0,0.0,0.0,10.0,0.0,0.0,0.0,10.0,-0.0110521185238,0.0207726565026,0.0066579027252,1.0,0.0,0.0,0.0,1.0,0.0,0.0,0.0,1.0,-0.0263452148438,0.0993933105469,10.0459094238,0.1,0.0,0.0,0.0,0.1,0.0,0.0,0.0,0.1
1446040135217567127,144,1446040135214601993,robocape,6.07226247154,-4.84111578449,71.2758305043,0.0,10.0,0.0,0.0,0.0,10.0,0.0,0.0,0.0,10.0,-0.0149137021044,0.0201068662301,0.0067910607797,1.0,0.0,0.0,0.0,1.0,0.0,0.0,0.0,1.0,-0.0311352539063,-0.0347277832031,10.024354248,0.1,0.0,0.0,0.0,0.1,0.0,0.0,0.0,0.1
1446040135250765377,145,1446040135247807979,robocape,6.04954519999,-4.74962696849,70.8175814117,0.0,10.0,0.0,0.0,0.0,10.0,0.0,0.0,0.0,10.0,-0.00306263525359,0.0210389726116,0.0066579027252,1.0,0.0,0.0,0.0,1.0,0.0,0.0,0.0,1.0,-0.00359252929688,-0.141306152344,10.0339343262,0.1,0.0,0.0,0.0,0.1,0.0,0.0,0.0,0.1
1446040135284877669,146,1446040135281430959,robocape,6.05954508421,-4.65831345552,70.3655813477,0.0,10.0,0.0,0.0,0.0,10.0,0.0,0.0,0.0,10.0,0.0143810698864,0.0214384467751,0.00705737688871,1.0,0.0,0.0,0.0,1.0,0.0,0.0,0.0,1.0,-0.0155676269531,-0.123343505859,10.0698596191,0.1,0.0,0.0,0.0,0.1,0.0,0.0,0.0,0.1
1446040135317308669,147,1446040135314371109,robocape,6.08500004021,-4.56635458975,69.9197656837,0.0,10.0,0.0,0.0,0.0,10.0,0.0,0.0,0.0,10.0,0.0227700273202,0.0222373951022,0.00692421883421,1.0,0.0,0.0,0.0,1.0,0.0,0.0,0.0,1.0,-0.0311352539063,-0.0155676269531,10.0530944824,0.1,0.0,0.0,0.0,0.1,0.0,0.0,0.0,0.1
1446040135350718086,148,1446040135347774982,robocape,6.09935844041,-4.47691275361,69.4806516044,0.0,10.0,0.0,0.0,0.0,10.0,0.0,0.0,0.0,10.0,0.017177389031,0.0214384467751,0.0067910607797,1.0,0.0,0.0,0.0,1.0,0.0,0.0,0.0,1.0,-0.01916015625,0.0802331542969,10.0483044434,0.1,0.0,0.0,0.0,0.1,0.0,0.0,0.0,0.1
1446040135384995127,149,1446040135381357908,robocape,6.14184369814,-4.38969202432,69.0466485322,0.0,10.0,0.0,0.0,0.0,10.0,0.0,0.0,0.0,10.0,0.03222424919,0.0206394984481,0.0066579027252,1.0,0.0,0.0,0.0,1.0,0.0,0.0,0.0,1.0,-0.0215551757813,0.104183349609,10.0578845215,0.1,0.0,0.0,0.0,0.1,0.0,0.0,0.0,0.1
1446040135417562252,150,1446040135414525032,robocape,6.0990190796,-4.30564413144,68.6212126679,0.0,10.0,0.0,0.0,0.0,10.0,0.0,0.0,0.0,10.0,-0.0125168571234,0.0197073920666,0.00612527050718,1.0,0.0,0.0,0.0,1.0,0.0,0.0,0.0,1.0,-0.0155676269531,0.0263452148438,10.0530944824,0.1,0.0,0.0,0.0,0.1,0.0,0.0,0.0,0.1
1446040135453494461,151,1446040135450145006,robocape,6.06292748398,-4.22163563978,68.2018024568,0.0,10.0,0.0,0.0,0.0,10.0,0.0,0.0,0.0,10.0,-0.00892158965177,0.0202400242846,0.00612527050718,1.0,0.0,0.0,0.0,1.0,0.0,0.0,0.0,1.0,-0.0263452148438,-0.1149609375,10.0506994629,0.1,0.0,0.0,0.0,0.1,0.0,0.0,0.0,0.1
1446040135485261669,152,1446040135481549978,robocape,6.052657493,-4.13678368131,67.7882174106,0.0,10.0,0.0,0.0,0.0,10.0,0.0,0.0,0.0,10.0,0.00479368996214,0.0211721306661,0.00652474467069,1.0,0.0,0.0,0.0,1.0,0.0,0.0,0.0,1.0,-0.0143701171875,-0.129331054688,10.0387243652,0.1,0.0,0.0,0.0,0.1,0.0,0.0,0.0,0.1
1446040135517595877,153,1446040135514503002,robocape,6.06588827528,-4.05118644966,67.3797144884,0.0,10.0,0.0,0.0,0.0,10.0,0.0,0.0,0.0,10.0,0.0173105470855,0.0219710789932,0.00639158661619,1.0,0.0,0.0,0.0,1.0,0.0,0.0,0.0,1.0,-0.0335302734375,-0.0706530761719,10.0530944824,0.1,0.0,0.0,0.0,0.1,0.0,0.0,0.0,0.1
1446040135550985794,154,1446040135547693014,robocape,6.08047614691,-3.96597806208,66.9773629565,0.0,10.0,0.0,0.0,0.0,10.0,0.0,0.0,0.0,10.0,0.018242653467,0.0222373951022,0.0066579027252,1.0,0.0,0.0,0.0,1.0,0.0,0.0,0.0,1.0,-0.028740234375,0.0359252929688,10.0351318359,0.1,0.0,0.0,0.0,0.1,0.0,0.0,0.0,0.1
1446040135584979002,155,1446040135581197977,robocape,6.07756736452,-3.88450650621,66.5809797256,0.0,10.0,0.0,0.0,0.0,10.0,0.0,0.0,0.0,10.0,0.00918790576077,0.0207726565026,0.0066579027252,1.0,0.0,0.0,0.0,1.0,0.0,0.0,0.0,1.0,-0.028740234375,0.0778381347656,10.0411193848,0.1,0.0,0.0,0.0,0.1,0.0,0.0,0.0,0.1
1446040135617428002,156,1446040135614337921,robocape,6.04861032997,-3.80464713656,66.1914851244,0.0,10.0,0.0,0.0,0.0,10.0,0.0,0.0,0.0,10.0,-0.00439421579863,0.0205063403936,0.00705737688871,1.0,0.0,0.0,0.0,1.0,0.0,0.0,0.0,1.0,-0.0227526855469,0.0490979003906,10.0746496582,0.1,0.0,0.0,0.0,0.1,0.0,0.0,0.0,0.1
1446040135650612836,157,1446040135647557973,robocape,6.0171224684,-3.72490722399,65.8068475138,0.0,10.0,0.0,0.0,0.0,10.0,0.0,0.0,0.0,10.0,-0.00572579634367,0.0209058145571,0.00652474467069,1.0,0.0,0.0,0.0,1.0,0.0,0.0,0.0,1.0,-0.0203576660156,-0.0562829589844,10.0506994629,0.1,0.0,0.0,0.0,0.1,0.0,0.0,0.0,0.1
1446040135684712544,158,1446040135681304931,robocape,6.00161395712,-3.64559485727,65.4280938923,0.0,10.0,0.0,0.0,0.0,10.0,0.0,0.0,0.0,10.0,0.00279631914458,0.0211721306661,0.00732369299772,1.0,0.0,0.0,0.0,1.0,0.0,0.0,0.0,1.0,-0.0275427246094,-0.105380859375,10.0363293457,0.1,0.0,0.0,0.0,0.1,0.0,0.0,0.0,0.1
1446040135717430836,159,1446040135714411973,robocape,6.00507323329,-3.56558677857,65.0524372049,0.0,10.0,0.0,0.0,0.0,10.0,0.0,0.0,0.0,10.0,0.0127831732324,0.0218379209386,0.00612527050718,1.0,0.0,0.0,0.0,1.0,0.0,0.0,0.0,1.0,-0.0275427246094,-0.0634680175781,10.0315393066,0.1,0.0,0.0,0.0,0.1,0.0,0.0,0.0,0.1
1446040135750715211,160,1446040135747713088,robocape,6.01600190158,-3.48746117505,64.6827844063,0.0,10.0,0.0,0.0,0.0,10.0,0.0,0.0,0.0,10.0,0.016911072922,0.0213052887206,0.00705737688871,1.0,0.0,0.0,0.0,1.0,0.0,0.0,0.0,1.0,-0.0299377441406,-0.00119750976563,10.024354248,0.1,0.0,0.0,0.0,0.1,0.0,0.0,0.0,0.1
1446040135784724544,161,1446040135781181097,robocape,6.01829143206,-3.40917001997,64.3188499867,0.0,10.0,0.0,0.0,0.0,10.0,0.0,0.0,0.0,10.0,0.0125168571234,0.0218379209386,0.00732369299772,1.0,0.0,0.0,0.0,1.0,0.0,0.0,0.0,1.0,-0.0311352539063,0.0443078613281,10.055489502,0.1,0.0,0.0,0.0,0.1,0.0,0.0,0.0,0.1
1446040135817499461,162,1446040135814435005,robocape,5.9985036661,-3.33396838667,63.9595189182,0.0,10.0,0.0,0.0,0.0,10.0,0.0,0.0,0.0,10.0,0.000932106381528,0.0206394984481,0.0067910607797,1.0,0.0,0.0,0.0,1.0,0.0,0.0,0.0,1.0,-0.0251477050781,0.0502954101563,10.0471069336,0.1,0.0,0.0,0.0,0.1,0.0,0.0,0.0,0.1
1446040135850702669,163,1446040135847670078,robocape,5.96888738622,-3.259532027,63.6043529184,0.0,10.0,0.0,0.0,0.0,10.0,0.0,0.0,0.0,10.0,-0.00426105774413,0.0206394984481,0.00612527050718,1.0,0.0,0.0,0.0,1.0,0.0,0.0,0.0,1.0,-0.0239501953125,-0.009580078125,10.0506994629,0.1,0.0,0.0,0.0,0.1,0.0,0.0,0.0,0.1
1446040135884813294,164,1446040135881165981,robocape,5.94269888624,-3.18548281069,63.2547141698,0.0,10.0,0.0,0.0,0.0,10.0,0.0,0.0,0.0,10.0,-0.00239684498107,0.0209058145571,0.0067910607797,1.0,0.0,0.0,0.0,1.0,0.0,0.0,0.0,1.0,-0.0203576660156,-0.0610729980469,10.0411193848,0.1,0.0,0.0,0.0,0.1,0.0,0.0,0.0,0.1
1446040135917741627,165,1446040135914599895,robocape,5.92936476613,-3.11189432476,62.9092857366,0.0,10.0,0.0,0.0,0.0,10.0,0.0,0.0,0.0,10.0,0.00439421579863,0.0210389726116,0.0067910607797,1.0,0.0,0.0,0.0,1.0,0.0,0.0,0.0,1.0,-0.0203576660156,-0.0838256835938,10.0231567383,0.1,0.0,0.0,0.0,0.1,0.0,0.0,0.0,0.1
1446040135950858711,166,1446040135947756052,robocape,5.93061433892,-3.03715778991,62.5677242928,0.0,10.0,0.0,0.0,0.0,10.0,0.0,0.0,0.0,10.0,0.0121173829599,0.0219710789932,0.00652474467069,1.0,0.0,0.0,0.0,1.0,0.0,0.0,0.0,1.0,-0.0227526855469,-0.0646655273438,10.0566870117,0.1,0.0,0.0,0.0,0.1,0.0,0.0,0.0,0.1
1446040135984770503,167,1446040135981163024,robocape,5.93567842291,-2.96317089049,62.2311904732,0.0,10.0,0.0,0.0,0.0,10.0,0.0,0.0,0.0,10.0,0.0142479118319,0.0219710789932,0.00705737688871,1.0,0.0,0.0,0.0,1.0,0.0,0.0,0.0,1.0,-0.0155676269531,-0.0107775878906,10.039921875,0.1,0.0,0.0,0.0,0.1,0.0,0.0,0.0,0.1
1446040136017458461,168,1446040136014347076,robocape,5.93129727292,-2.89186116896,61.8984843407,0.0,10.0,0.0,0.0,0.0,10.0,0.0,0.0,0.0,10.0,0.00932106381528,0.0209058145571,0.0066579027252,1.0,0.0,0.0,0.0,1.0,0.0,0.0,0.0,1.0,-0.0263452148438,0.0383203125,10.0423168945,0.1,0.0,0.0,0.0,0.1,0.0,0.0,0.0,0.1
1446040136051055794,169,1446040136047810077,robocape,5.91524459672,-2.82173299305,61.5697357919,0.0,10.0,0.0,0.0,0.0,10.0,0.0,0.0,0.0,10.0,0.0031957933081,0.0206394984481,0.00625842856169,1.0,0.0,0.0,0.0,1.0,0.0,0.0,0.0,1.0,-0.0407153320313,0.0359252929688,10.0279467773,0.1,0.0,0.0,0.0,0.1,0.0,0.0,0.0,0.1
1446040136092069169,170,1446040136088825941,robocape,5.89049021973,-2.75141369299,61.2462230833,0.0,10.0,0.0,0.0,0.0,10.0,0.0,0.0,0.0,10.0,-0.00133158054504,0.0211721306661,0.0067910607797,1.0,0.0,0.0,0.0,1.0,0.0,0.0,0.0,1.0,-0.0251477050781,-0.009580078125,10.039921875,0.1,0.0,0.0,0.0,0.1,0.0,0.0,0.0,0.1
1446040136117423628,171,1446040136114350080,robocape,5.8685581743,-2.68224442638,60.926258797,0.0,10.0,0.0,0.0,0.0,10.0,0.0,0.0,0.0,10.0,0.000133158054504,0.0209058145571,0.00652474467069,1.0,0.0,0.0,0.0,1.0,0.0,0.0,0.0,1.0,-0.0215551757813,-0.0419128417969,10.039921875,0.1,0.0,0.0,0.0,0.1,0.0,0.0,0.0,0.1
1446040136150724628,172,1446040136147671937,robocape,5.85652982249,-2.61439657978,60.6093620223,0.0,10.0,0.0,0.0,0.0,10.0,0.0,0.0,0.0,10.0,0.00532632218016,0.0205063403936,0.00612527050718,1.0,0.0,0.0,0.0,1.0,0.0,0.0,0.0,1.0,-0.0131726074219,-0.05748046875,10.0686621094,0.1,0.0,0.0,0.0,0.1,0.0,0.0,0.0,0.1
1446040136184876919,173,1446040136181199073,robocape,5.8536996292,-2.54371238199,60.2974141058,0.0,10.0,0.0,0.0,0.0,10.0,0.0,0.0,0.0,10.0,0.0102531701968,0.0223705531567,0.0067910607797,1.0,0.0,0.0,0.0,1.0,0.0,0.0,0.0,1.0,-0.0251477050781,-0.0455053710938,10.0447119141,0.1,0.0,0.0,0.0,0.1,0.0,0.0,0.0,0.1
1446040136217369544,174,1446040136214345932,robocape,5.850981312,-2.47523687377,59.9898943827,0.0,10.0,0.0,0.0,0.0,10.0,0.0,0.0,0.0,10.0,0.0103863282513,0.0215716048296,0.00732369299772,1.0,0.0,0.0,0.0,1.0,0.0,0.0,0.0,1.0,-0.0227526855469,-0.00598754882813,10.0506994629,0.1,0.0,0.0,0.0,0.1,0.0,0.0,0.0,0.1
1446040136250804878,175,1446040136247811079,robocape,5.83994310186,-2.40828769132,59.6851151173,0.0,10.0,0.0,0.0,0.0,10.0,0.0,0.0,0.0,10.0,0.00599211245268,0.0210389726116,0.00652474467069,1.0,0.0,0.0,0.0,1.0,0.0,0.0,0.0,1.0,-0.0215551757813,0.0323327636719,10.0530944824,0.1,0.0,0.0,0.0,0.1,0.0,0.0,0.0,0.1
1446040136284942586,176,1446040136281078100,robocape,5.82077291311,-2.34200303348,59.3844265288,0.0,10.0,0.0,0.0,0.0,10.0,0.0,0.0,0.0,10.0,0.00173105470855,0.0210389726116,0.0066579027252,1.0,0.0,0.0,0.0,1.0,0.0,0.0,0.0,1.0,-0.0323327636719,-0.009580078125,10.0483044434,0.1,0.0,0.0,0.0,0.1,0.0,0.0,0.0,0.1
1446040136324225086,177,1446040136320893049,robocape,5.80257008144,-2.27691040406,59.0880334838,0.0,10.0,0.0,0.0,0.0,10.0,0.0,0.0,0.0,10.0,0.00226368692657,0.0207726565026,0.00719053494321,1.0,0.0,0.0,0.0,1.0,0.0,0.0,0.0,1.0,-0.0299377441406,-0.0419128417969,10.0459094238,0.1,0.0,0.0,0.0,0.1,0.0,0.0,0.0,0.1
1446040136351149878,178,1446040136348007917,robocape,5.78826458778,-2.21174771678,58.7937925811,0.0,10.0,0.0,0.0,0.0,10.0,0.0,0.0,0.0,10.0,0.00426105774413,0.0210389726116,0.00625842856169,1.0,0.0,0.0,0.0,1.0,0.0,0.0,0.0,1.0,-0.0203576660156,-0.0443078613281,10.0375268555,0.1,0.0,0.0,0.0,0.1,0.0,0.0,0.0,0.1
1446040136385017919,179,1446040136381161928,robocape,5.7825037599,-2.14540019759,58.5033714153,0.0,10.0,0.0,0.0,0.0,10.0,0.0,0.0,0.0,10.0,0.00878843159726,0.0219710789932,0.00652474467069,1.0,0.0,0.0,0.0,1.0,0.0,0.0,0.0,1.0,-0.0143701171875,-0.0502954101563,10.0447119141,0.1,0.0,0.0,0.0,0.1,0.0,0.0,0.0,0.1
1446040136417807253,180,1446040136414674997,robocape,5.77715815648,-2.08119937101,58.2169774782,0.0,10.0,0.0,0.0,0.0,10.0,0.0,0.0,0.0,10.0,0.00905474770627,0.0211721306661,0.00705737688871,1.0,0.0,0.0,0.0,1.0,0.0,0.0,0.0,1.0,-0.028740234375,-0.0167651367188,10.0590820312,0.1,0.0,0.0,0.0,0.1,0.0,0.0,0.0,0.1
1446040136450845294,181,1446040136447729110,robocape,5.76828001804,-2.01799369079,57.9333967253,0.0,10.0,0.0,0.0,0.0,10.0,0.0,0.0,0.0,10.0,0.00719053494321,0.0209058145571,0.0066579027252,1.0,0.0,0.0,0.0,1.0,0.0,0.0,0.0,1.0,-0.01916015625,0.00119750976563,10.055489502,0.1,0.0,0.0,0.0,0.1,0.0,0.0,0.0,0.1
1446040136484745753,182,1446040136480978012,robocape,5.75304376717,-1.95564303982,57.6536271623,0.0,10.0,0.0,0.0,0.0,10.0,0.0,0.0,0.0,10.0,0.00386158358061,0.0207726565026,0.00692421883421,1.0,0.0,0.0,0.0,1.0,0.0,0.0,0.0,1.0,-0.0119750976563,0.00598754882813,10.060279541,0.1,0.0,0.0,0.0,0.1,0.0,0.0,0.0,0.1
1446040136517546461,183,1446040136514455080,robocape,5.73531470975,-1.89228684245,57.3769040422,0.0,10.0,0.0,0.0,0.0,10.0,0.0,0.0,0.0,10.0,0.00253000303558,0.0215716048296,0.0066579027252,1.0,0.0,0.0,0.0,1.0,0.0,0.0,0.0,1.0,-0.0179626464844,-0.0119750976563,10.0578845215,0.1,0.0,0.0,0.0,0.1,0.0,0.0,0.0,0.1
1446040136551103503,184,1446040136547841072,robocape,5.72116058135,-1.83096616181,57.1031179725,0.0,10.0,0.0,0.0,0.0,10.0,0.0,0.0,0.0,10.0,0.00439421579863,0.0207726565026,0.0066579027252,1.0,0.0,0.0,0.0,1.0,0.0,0.0,0.0,1.0,-0.0155676269531,-0.0359252929688,10.0542919922,0.1,0.0,0.0,0.0,0.1,0.0,0.0,0.0,0.1
1446040136585115961,185,1446040136581166982,robocape,5.71334118542,-1.77013317589,56.8322948688,0.0,10.0,0.0,0.0,0.0,10.0,0.0,0.0,0.0,10.0,0.00772316716123,0.0207726565026,0.0066579027252,1.0,0.0,0.0,0.0,1.0,0.0,0.0,0.0,1.0,-0.0131726074219,-0.0311352539063,10.0614770508,0.1,0.0,0.0,0.0,0.1,0.0,0.0,0.0,0.1
1446040136618442169,186,1446040136615400075,robocape,5.70600251745,-1.70905483903,56.564788598,0.0,10.0,0.0,0.0,0.0,10.0,0.0,0.0,0.0,10.0,0.00798948327024,0.0211721306661,0.0067910607797,1.0,0.0,0.0,0.0,1.0,0.0,0.0,0.0,1.0,-0.0239501953125,-0.0107775878906,10.0447119141,0.1,0.0,0.0,0.0,0.1,0.0,0.0,0.0,0.1
1446040136650924211,187,1446040136647913932,robocape,5.69589803081,-1.64817986291,56.2999852913,0.0,10.0,0.0,0.0,0.0,10.0,0.0,0.0,0.0,10.0,0.00652474467069,0.0213052887206,0.00652474467069,1.0,0.0,0.0,0.0,1.0,0.0,0.0,0.0,1.0,-0.0227526855469,0.00239501953125,10.0291442871,0.1,0.0,0.0,0.0,0.1,0.0,0.0,0.0,0.1
1446040136684561086,188,1446040136681121110,robocape,5.68251509762,-1.5878025675,56.0382114354,0.0,10.0,0.0,0.0,0.0,10.0,0.0,0.0,0.0,10.0,0.00479368996214,0.0213052887206,0.00652474467069,1.0,0.0,0.0,0.0,1.0,0.0,0.0,0.0,1.0,-0.0359252929688,0.00718505859375,10.0315393066,0.1,0.0,0.0,0.0,0.1,0.0,0.0,0.0,0.1
1446040136717449336,189,1446040136714415073,robocape,5.66388071681,-1.52939947182,55.7789232319,0.0,10.0,0.0,0.0,0.0,10.0,0.0,0.0,0.0,10.0,0.00199737081756,0.0205063403936,0.00625842856169,1.0,0.0,0.0,0.0,1.0,0.0,0.0,0.0,1.0,-0.01916015625,-0.0167651367188,10.0411193848,0.1,0.0,0.0,0.0,0.1,0.0,0.0,0.0,0.1
1446040136750911211,190,1446040136747828006,robocape,5.64500033617,-1.47105543512,55.523326421,0.0,10.0,0.0,0.0,0.0,10.0,0.0,0.0,0.0,10.0,0.00186421276306,0.0207726565026,0.0067910607797,1.0,0.0,0.0,0.0,1.0,0.0,0.0,0.0,1.0,-0.0227526855469,-0.0275427246094,10.0375268555,0.1,0.0,0.0,0.0,0.1,0.0,0.0,0.0,0.1
1446040136784677461,191,1446040136781182050,robocape,5.62923854881,-1.41260465634,55.2699094224,0.0,10.0,0.0,0.0,0.0,10.0,0.0,0.0,0.0,10.0,0.0034621094171,0.0210389726116,0.00639158661619,1.0,0.0,0.0,0.0,1.0,0.0,0.0,0.0,1.0,-0.0251477050781,-0.0371228027344,10.0327368164,0.1,0.0,0.0,0.0,0.1,0.0,0.0,0.0,0.1
1446040136817433336,192,1446040136814382076,robocape,5.62305023574,-1.3549759648,55.0203918634,0.0,10.0,0.0,0.0,0.0,10.0,0.0,0.0,0.0,10.0,0.00852211548825,0.0209058145571,0.00732369299772,1.0,0.0,0.0,0.0,1.0,0.0,0.0,0.0,1.0,-0.0239501953125,-0.0419128417969,10.0530944824,0.1,0.0,0.0,0.0,0.1,0.0,0.0,0.0,0.1
1446040136850899378,193,1446040136847882986,robocape,5.6209400955,-1.29770000827,54.7728872368,0.0,10.0,0.0,0.0,0.0,10.0,0.0,0.0,0.0,10.0,0.0106526443603,0.0209058145571,0.00692421883421,1.0,0.0,0.0,0.0,1.0,0.0,0.0,0.0,1.0,-0.0263452148438,-0.0215551757813,10.0387243652,0.1,0.0,0.0,0.0,0.1,0.0,0.0,0.0,0.1
1446040136884662586,194,1446040136881195068,robocape,5.6180445573,-1.23985588259,54.5283491545,0.0,10.0,0.0,0.0,0.0,10.0,0.0,0.0,0.0,10.0,0.0102531701968,0.0214384467751,0.00705737688871,1.0,0.0,0.0,0.0,1.0,0.0,0.0,0.0,1.0,-0.0107775878906,0.0131726074219,10.055489502,0.1,0.0,0.0,0.0,0.1,0.0,0.0,0.0,0.1
1446040136917554170,195,1446040136914429903,robocape,5.61058938832,-1.18397704875,54.2865783189,0.0,10.0,0.0,0.0,0.0,10.0,0.0,0.0,0.0,10.0,0.00785632521573,0.0206394984481,0.00719053494321,1.0,0.0,0.0,0.0,1.0,0.0,0.0,0.0,1.0,-0.0167651367188,0.0047900390625,10.0471069336,0.1,0.0,0.0,0.0,0.1,0.0,0.0,0.0,0.1
1446040136950933128,196,1446040136947830915,robocape,5.59657523212,-1.12727154551,54.0476275363,0.0,10.0,0.0,0.0,0.0,10.0,0.0,0.0,0.0,10.0,0.00439421579863,0.0213052887206,0.00719053494321,1.0,0.0,0.0,0.0,1.0,0.0,0.0,0.0,1.0,-0.0131726074219,0.00838256835938,10.0483044434,0.1,0.0,0.0,0.0,0.1,0.0,0.0,0.0,0.1
1446040136984512711,197,1446040136980937957,robocape,5.58011241213,-1.07194088356,53.8105526756,0.0,10.0,0.0,0.0,0.0,10.0,0.0,0.0,0.0,10.0,0.00306263525359,0.0207726565026,0.0067910607797,1.0,0.0,0.0,0.0,1.0,0.0,0.0,0.0,1.0,-0.0239501953125,-0.00598754882813,10.0339343262,0.1,0.0,0.0,0.0,0.1,0.0,0.0,0.0,0.1
1446040137017633461,198,1446040137014317035,robocape,5.56496192084,-1.01653757122,53.5761757995,0.0,10.0,0.0,0.0,0.0,10.0,0.0,0.0,0.0,10.0,0.00372842552611,0.0210389726116,0.00692421883421,1.0,0.0,0.0,0.0,1.0,0.0,0.0,0.0,1.0,-0.0119750976563,-0.0203576660156,10.0363293457,0.1,0.0,0.0,0.0,0.1,0.0,0.0,0.0,0.1
1446040137051214503,199,1446040137047873020,robocape,5.55240161636,-0.961259606281,53.3440034578,0.0,10.0,0.0,0.0,0.0,10.0,0.0,0.0,0.0,10.0,0.00506000607115,0.0211721306661,0.0067910607797,1.0,0.0,0.0,0.0,1.0,0.0,0.0,0.0,1.0,-0.0239501953125,-0.0227526855469,10.0351318359,0.1,0.0,0.0,0.0,0.1,0.0,0.0,0.0,0.1
1446040137091717503,200,1446040137088330030,robocape,5.54417412976,-0.906385485159,53.1143414974,0.0,10.0,0.0,0.0,0.0,10.0,0.0,0.0,0.0,10.0,0.00732369299772,0.0211721306661,0.00692421883421,1.0,0.0,0.0,0.0,1.0,0.0,0.0,0.0,1.0,-0.028740234375,-0.0131726074219,10.0506994629,0.1,0.0,0.0,0.0,0.1,0.0,0.0,0.0,0.1
1446040137117827586,201,1446040137114783048,robocape,5.53495502429,-0.851918524425,52.8872601842,0.0,10.0,0.0,0.0,0.0,10.0,0.0,0.0,0.0,10.0,0.0067910607797,0.0211721306661,0.00705737688871,1.0,0.0,0.0,0.0,1.0,0.0,0.0,0.0,1.0,-0.0347277832031,-0.0107775878906,10.0339343262,0.1,0.0,0.0,0.0,0.1,0.0,0.0,0.0,0.1
1446040137150949045,202,1446040137147919893,robocape,5.52555341471,-0.798753765517,52.6616018347,0.0,10.0,0.0,0.0,0.0,10.0,0.0,0.0,0.0,10.0,0.0066579027252,0.0206394984481,0.00652474467069,1.0,0.0,0.0,0.0,1.0,0.0,0.0,0.0,1.0,-0.0251477050781,-0.00718505859375,10.039921875,0.1,0.0,0.0,0.0,0.1,0.0,0.0,0.0,0.1
1446040137184190878,203,1446040137181133985,robocape,5.51641818207,-0.74398218129,52.4388123948,0.0,10.0,0.0,0.0,0.0,10.0,0.0,0.0,0.0,10.0,0.0067910607797,0.0217047628841,0.0067910607797,1.0,0.0,0.0,0.0,1.0,0.0,0.0,0.0,1.0,-0.028740234375,-0.01916015625,10.039921875,0.1,0.0,0.0,0.0,0.1,0.0,0.0,0.0,0.1
1446040137217542961,204,1446040137214350938,robocape,5.50630623627,-0.691622806295,52.2183099572,0.0,10.0,0.0,0.0,0.0,10.0,0.0,0.0,0.0,10.0,0.00625842856169,0.0206394984481,0.00692421883421,1.0,0.0,0.0,0.0,1.0,0.0,0.0,0.0,1.0,-0.0311352539063,-0.00119750976563,10.0315393066,0.1,0.0,0.0,0.0,0.1,0.0,0.0,0.0,0.1
1446040137250846503,205,1446040137247819900,robocape,5.49472584916,-0.638847758471,51.999910405,0.0,10.0,0.0,0.0,0.0,10.0,0.0,0.0,0.0,10.0,0.00545948023466,0.0210389726116,0.0067910607797,1.0,0.0,0.0,0.0,1.0,0.0,0.0,0.0,1.0,-0.0299377441406,-0.0179626464844,10.0327368164,0.1,0.0,0.0,0.0,0.1,0.0,0.0,0.0,0.1
1446040137284036378,206,1446040137281009912,robocape,5.48243135416,-0.586958441039,51.7838579558,0.0,10.0,0.0,0.0,0.0,10.0,0.0,0.0,0.0,10.0,0.00506000607115,0.0207726565026,0.00692421883421,1.0,0.0,0.0,0.0,1.0,0.0,0.0,0.0,1.0,-0.0323327636719,-0.0179626464844,10.0363293457,0.1,0.0,0.0,0.0,0.1,0.0,0.0,0.0,0.1
1446040137317508045,207,1446040137314287900,robocape,5.47193594566,-0.534217956523,51.5706332382,0.0,10.0,0.0,0.0,0.0,10.0,0.0,0.0,0.0,10.0,0.00599211245268,0.0214384467751,0.00732369299772,1.0,0.0,0.0,0.0,1.0,0.0,0.0,0.0,1.0,-0.0251477050781,-0.0047900390625,10.0411193848,0.1,0.0,0.0,0.0,0.1,0.0,0.0,0.0,0.1
1446040137351294378,208,1446040137348140954,robocape,5.46100368314,-0.482266022751,51.3588582438,0.0,10.0,0.0,0.0,0.0,10.0,0.0,0.0,0.0,10.0,0.00572579634367,0.0211721306661,0.00692421883421,1.0,0.0,0.0,0.0,1.0,0.0,0.0,0.0,1.0,-0.0227526855469,-0.0215551757813,10.0387243652,0.1,0.0,0.0,0.0,0.1,0.0,0.0,0.0,0.1
1446040137384101712,209,1446040137381078958,robocape,5.45038564211,-0.430106709761,51.1487835943,0.0,10.0,0.0,0.0,0.0,10.0,0.0,0.0,0.0,10.0,0.00585895439817,0.0214384467751,0.0066579027252,1.0,0.0,0.0,0.0,1.0,0.0,0.0,0.0,1.0,-0.0335302734375,-0.0143701171875,10.055489502,0.1,0.0,0.0,0.0,0.1,0.0,0.0,0.0,0.1
1446040137417861337,210,1446040137414561033,robocape,5.43877540703,-0.378899409791,50.9417502798,0.0,10.0,0.0,0.0,0.0,10.0,0.0,0.0,0.0,10.0,0.00532632218016,0.0211721306661,0.00732369299772,1.0,0.0,0.0,0.0,1.0,0.0,0.0,0.0,1.0,-0.0383203125,-0.00598754882813,10.0291442871,0.1,0.0,0.0,0.0,0.1,0.0,0.0,0.0,0.1
1446040137451022420,211,1446040137447937965,robocape,5.42951483159,-0.328204222976,50.7360368346,0.0,10.0,0.0,0.0,0.0,10.0,0.0,0.0,0.0,10.0,0.00652474467069,0.0210389726116,0.00692421883421,1.0,0.0,0.0,0.0,1.0,0.0,0.0,0.0,1.0,-0.0347277832031,-0.0215551757813,10.0447119141,0.1,0.0,0.0,0.0,0.1,0.0,0.0,0.0,0.1
1446040137484071378,212,1446040137480961084,robocape,5.42107326873,-0.278542039127,50.53180751,0.0,10.0,0.0,0.0,0.0,10.0,0.0,0.0,0.0,10.0,0.00692421883421,0.0206394984481,0.0066579027252,1.0,0.0,0.0,0.0,1.0,0.0,0.0,0.0,1.0,-0.0179626464844,-0.0227526855469,10.0375268555,0.1,0.0,0.0,0.0,0.1,0.0,0.0,0.0,0.1
1446040137517600253,213,1446040137514332056,robocape,5.41065539828,-0.227662825643,50.3294904949,0.0,10.0,0.0,0.0,0.0,10.0,0.0,0.0,0.0,10.0,0.00585895439817,0.0214384467751,0.00652474467069,1.0,0.0,0.0,0.0,1.0,0.0,0.0,0.0,1.0,-0.0203576660156,-0.00838256835938,10.0411193848,0.1,0.0,0.0,0.0,0.1,0.0,0.0,0.0,0.1
1446040137551026628,214,1446040137547979116,robocape,5.39923161575,-0.178054205992,50.1309047742,0.0,10.0,0.0,0.0,0.0,10.0,0.0,0.0,0.0,10.0,0.00532632218016,0.0210389726116,0.00772316716123,1.0,0.0,0.0,0.0,1.0,0.0,0.0,0.0,1.0,-0.01916015625,-0.01916015625,10.0638720703,0.1,0.0,0.0,0.0,0.1,0.0,0.0,0.0,0.1
1446040137584438295,215,1446040137581053972,robocape,5.38688513568,-0.128123577951,49.9330146264,0.0,10.0,0.0,0.0,0.0,10.0,0.0,0.0,0.0,10.0,0.00479368996214,0.0213052887206,0.00692421883421,1.0,0.0,0.0,0.0,1.0,0.0,0.0,0.0,1.0,-0.01916015625,-0.0227526855469,10.0506994629,0.1,0.0,0.0,0.0,0.1,0.0,0.0,0.0,0.1
1446040137617678253,216,1446040137614375114,robocape,5.37635895382,-0.079823537927,49.7374621978,0.0,10.0,0.0,0.0,0.0,10.0,0.0,0.0,0.0,10.0,0.00572579634367,0.0206394984481,0.00732369299772,1.0,0.0,0.0,0.0,1.0,0.0,0.0,0.0,1.0,-0.028740234375,-0.0215551757813,10.0435144043,0.1,0.0,0.0,0.0,0.1,0.0,0.0,0.0,0.1
1446040137650960837,217,1446040137647943019,robocape,5.36819487674,-0.031936586258,49.5424275173,0.0,10.0,0.0,0.0,0.0,10.0,0.0,0.0,0.0,10.0,0.00692421883421,0.0205063403936,0.00652474467069,1.0,0.0,0.0,0.0,1.0,0.0,0.0,0.0,1.0,-0.0131726074219,-0.0227526855469,10.0447119141,0.1,0.0,0.0,0.0,0.1,0.0,0.0,0.0,0.1
1446040137684214587,218,1446040137681188106,robocape,5.36033258779,0.0171981686548,49.3491189585,0.0,10.0,0.0,0.0,0.0,10.0,0.0,0.0,0.0,10.0,0.00705737688871,0.0213052887206,0.00639158661619,1.0,0.0,0.0,0.0,1.0,0.0,0.0,0.0,1.0,-0.0179626464844,-0.00239501953125,10.055489502,0.1,0.0,0.0,0.0,0.1,0.0,0.0,0.0,0.1
1446040137717556837,219,1446040137714353084,robocape,5.35124591169,0.0665231982021,49.1578653988,0.0,10.0,0.0,0.0,0.0,10.0,0.0,0.0,0.0,10.0,0.00639158661619,0.0215716048296,0.00652474467069,1.0,0.0,0.0,0.0,1.0,0.0,0.0,0.0,1.0,-0.0143701171875,-0.00359252929688,10.0674645996,0.1,0.0,0.0,0.0,0.1,0.0,0.0,0.0,0.1
1446040137750886920,220,1446040137747859954,robocape,5.33866855335,0.114267489696,48.9685259702,0.0,10.0,0.0,0.0,0.0,10.0,0.0,0.0,0.0,10.0,0.00452737385313,0.0209058145571,0.0066579027252,1.0,0.0,0.0,0.0,1.0,0.0,0.0,0.0,1.0,-0.0251477050781,-0.00239501953125,10.0794396973,0.1,0.0,0.0,0.0,0.1,0.0,0.0,0.0,0.1
1446040137784246795,221,1446040137781223058,robocape,5.32464026523,0.161975662105,48.7809585165,0.0,10.0,0.0,0.0,0.0,10.0,0.0,0.0,0.0,10.0,0.00372842552611,0.0210389726116,0.0066579027252,1.0,0.0,0.0,0.0,1.0,0.0,0.0,0.0,1.0,-0.0275427246094,-0.0203576660156,10.0566870117,0.1,0.0,0.0,0.0,0.1,0.0,0.0,0.0,0.1
1446040137817501087,222,1446040137814327955,robocape,5.31043595121,0.209168894026,48.5948631721,0.0,10.0,0.0,0.0,0.0,10.0,0.0,0.0,0.0,10.0,0.00359526747161,0.0209058145571,0.00652474467069,1.0,0.0,0.0,0.0,1.0,0.0,0.0,0.0,1.0,-0.01916015625,-0.0299377441406,10.0411193848,0.1,0.0,0.0,0.0,0.1,0.0,0.0,0.0,0.1
1446040137850795253,223,1446040137847762107,robocape,5.29982927547,0.255730717827,48.4114111039,0.0,10.0,0.0,0.0,0.0,10.0,0.0,0.0,0.0,10.0,0.00545948023466,0.0207726565026,0.00719053494321,1.0,0.0,0.0,0.0,1.0,0.0,0.0,0.0,1.0,-0.0311352539063,-0.0383203125,10.0542919922,0.1,0.0,0.0,0.0,0.1,0.0,0.0,0.0,0.1
1446040137884427128,224,1446040137881330966,robocape,5.29106225616,0.302850529084,48.2290087872,0.0,10.0,0.0,0.0,0.0,10.0,0.0,0.0,0.0,10.0,0.00639158661619,0.0211721306661,0.0067910607797,1.0,0.0,0.0,0.0,1.0,0.0,0.0,0.0,1.0,-0.0203576660156,-0.0179626464844,10.0471069336,0.1,0.0,0.0,0.0,0.1,0.0,0.0,0.0,0.1
1446040137917882212,225,1446040137914556980,robocape,5.28436203309,0.34989715341,48.0488510579,0.0,10.0,0.0,0.0,0.0,10.0,0.0,0.0,0.0,10.0,0.00745685105222,0.0213052887206,0.00719053494321,1.0,0.0,0.0,0.0,1.0,0.0,0.0,0.0,1.0,-0.0227526855469,-0.009580078125,10.0363293457,0.1,0.0,0.0,0.0,0.1,0.0,0.0,0.0,0.1
1446040137950988295,226,1446040137947706937,robocape,5.27694944122,0.396430852556,47.8702828143,0.0,10.0,0.0,0.0,0.0,10.0,0.0,0.0,0.0,10.0,0.00705737688871,0.0211721306661,0.00719053494321,1.0,0.0,0.0,0.0,1.0,0.0,0.0,0.0,1.0,-0.0275427246094,-0.00119750976563,10.0423168945,0.1,0.0,0.0,0.0,0.1,0.0,0.0,0.0,0.1
1446040137984290920,227,1446040137981180906,robocape,5.26653725346,0.443351077204,47.694455841,0.0,10.0,0.0,0.0,0.0,10.0,0.0,0.0,0.0,10.0,0.00545948023466,0.0215716048296,0.00785632521573,1.0,0.0,0.0,0.0,1.0,0.0,0.0,0.0,1.0,-0.0251477050781,-0.00119750976563,10.0566870117,0.1,0.0,0.0,0.0,0.1,0.0,0.0,0.0,0.1
1446040138017779420,228,1446040138014496088,robocape,5.25442972793,0.490392427564,47.5189544118,0.0,10.0,0.0,0.0,0.0,10.0,0.0,0.0,0.0,10.0,0.00452737385313,0.0217047628841,0.00705737688871,1.0,0.0,0.0,0.0,1.0,0.0,0.0,0.0,1.0,-0.0179626464844,-0.0203576660156,10.0650695801,0.1,0.0,0.0,0.0,0.1,0.0,0.0,0.0,0.1
1446040138050919587,229,1446040138047642946,robocape,5.24391769933,0.537034855059,47.3438805725,0.0,10.0,0.0,0.0,0.0,10.0,0.0,0.0,0.0,10.0,0.00532632218016,0.0215716048296,0.00639158661619,1.0,0.0,0.0,0.0,1.0,0.0,0.0,0.0,1.0,-0.0215551757813,-0.0179626464844,10.0363293457,0.1,0.0,0.0,0.0,0.1,0.0,0.0,0.0,0.1
1446040138090908212,230,1446040138087574005,robocape,5.23548185456,0.583341936776,47.1711383837,0.0,10.0,0.0,0.0,0.0,10.0,0.0,0.0,0.0,10.0,0.00639158661619,0.0215716048296,0.00692421883421,1.0,0.0,0.0,0.0,1.0,0.0,0.0,0.0,1.0,-0.0275427246094,-0.0251477050781,10.0542919922,0.1,0.0,0.0,0.0,0.1,0.0,0.0,0.0,0.1
1446040138117751295,231,1446040138114511013,robocape,5.22786083216,0.627890574329,46.9997496434,0.0,10.0,0.0,0.0,0.0,10.0,0.0,0.0,0.0,10.0,0.0067910607797,0.0207726565026,0.00692421883421,1.0,0.0,0.0,0.0,1.0,0.0,0.0,0.0,1.0,-0.0251477050781,-0.0167651367188,10.0375268555,0.1,0.0,0.0,0.0,0.1,0.0,0.0,0.0,0.1
1446040138150812920,232,1446040138147753000,robocape,5.22028934847,0.67241232881,46.8302771777,0.0,10.0,0.0,0.0,0.0,10.0,0.0,0.0,0.0,10.0,0.0067910607797,0.0209058145571,0.00719053494321,1.0,0.0,0.0,0.0,1.0,0.0,0.0,0.0,1.0,-0.01916015625,-0.0155676269531,10.0411193848,0.1,0.0,0.0,0.0,0.1,0.0,0.0,0.0,0.1
1446040138184187295,233,1446040138181165933,robocape,5.2117564985,0.717686754644,46.6625626497,0.0,10.0,0.0,0.0,0.0,10.0,0.0,0.0,0.0,10.0,0.00625842856169,0.0214384467751,0.00732369299772,1.0,0.0,0.0,0.0,1.0,0.0,0.0,0.0,1.0,-0.0275427246094,-0.0107775878906,10.0495019531,0.1,0.0,0.0,0.0,0.1,0.0,0.0,0.0,0.1
1446040138217618462,234,1446040138214426040,robocape,5.20252464197,0.76331697585,46.4954738051,0.0,10.0,0.0,0.0,0.0,10.0,0.0,0.0,0.0,10.0,0.00585895439817,0.0217047628841,0.0067910607797,1.0,0.0,0.0,0.0,1.0,0.0,0.0,0.0,1.0,-0.0335302734375,-0.00718505859375,10.0495019531,0.1,0.0,0.0,0.0,0.1,0.0,0.0,0.0,0.1
1446040138251047754,235,1446040138248020887,robocape,5.19082582845,0.807258541668,46.3290701777,0.0,10.0,0.0,0.0,0.0,10.0,0.0,0.0,0.0,10.0,0.00452737385313,0.0209058145571,0.00639158661619,1.0,0.0,0.0,0.0,1.0,0.0,0.0,0.0,1.0,-0.0299377441406,-0.0143701171875,10.0518969727,0.1,0.0,0.0,0.0,0.1,0.0,0.0,0.0,0.1
1446040138289011712,236,1446040138285748958,robocape,5.17919131614,0.851366067436,46.1651700473,0.0,10.0,0.0,0.0,0.0,10.0,0.0,0.0,0.0,10.0,0.00452737385313,0.0211721306661,0.00705737688871,1.0,0.0,0.0,0.0,1.0,0.0,0.0,0.0,1.0,-0.0347277832031,-0.0167651367188,10.0626745605,0.1,0.0,0.0,0.0,0.1,0.0,0.0,0.0,0.1
1446040138325701920,237,1446040138322247982,robocape,5.16888838363,0.895709383471,46.0030878748,0.0,10.0,0.0,0.0,0.0,10.0,0.0,0.0,0.0,10.0,0.00519316412565,0.0214384467751,0.00732369299772,1.0,0.0,0.0,0.0,1.0,0.0,0.0,0.0,1.0,-0.0167651367188,0.0,10.0375268555,0.1,0.0,0.0,0.0,0.1,0.0,0.0,0.0,0.1
1446040138357759504,238,1446040138354511022,robocape,5.15839783743,0.939684296865,45.8412664389,0.0,10.0,0.0,0.0,0.0,10.0,0.0,0.0,0.0,10.0,0.00506000607115,0.0213052887206,0.0066579027252,1.0,0.0,0.0,0.0,1.0,0.0,0.0,0.0,1.0,-0.0143701171875,-0.00359252929688,10.0890197754,0.1,0.0,0.0,0.0,0.1,0.0,0.0,0.0,0.1
1446040138387645754,239,1446040138384444952,robocape,5.14771889433,0.982361973872,45.6813464627,0.0,10.0,0.0,0.0,0.0,10.0,0.0,0.0,0.0,10.0,0.00492684801665,0.0207726565026,0.00705737688871,1.0,0.0,0.0,0.0,1.0,0.0,0.0,0.0,1.0,-0.01916015625,-0.0119750976563,10.0770446777,0.1,0.0,0.0,0.0,0.1,0.0,0.0,0.0,0.1
1446040138420698295,240,1446040138417268037,robocape,5.13811799774,1.02489191832,45.5220836437,0.0,10.0,0.0,0.0,0.0,10.0,0.0,0.0,0.0,10.0,0.00545948023466,0.0207726565026,0.0066579027252,1.0,0.0,0.0,0.0,1.0,0.0,0.0,0.0,1.0,-0.0143701171875,-0.0263452148438,10.0387243652,0.1,0.0,0.0,0.0,0.1,0.0,0.0,0.0,0.1
1446040138451142337,241,1446040138447901010,robocape,5.12984423728,1.06813523614,45.3650445631,0.0,10.0,0.0,0.0,0.0,10.0,0.0,0.0,0.0,10.0,0.00612527050718,0.0213052887206,0.00719053494321,1.0,0.0,0.0,0.0,1.0,0.0,0.0,0.0,1.0,-0.01916015625,-0.0155676269531,10.0459094238,0.1,0.0,0.0,0.0,0.1,0.0,0.0,0.0,0.1
1446040138484407545,242,1446040138481169939,robocape,5.12238421554,1.11247566802,45.2089439223,0.0,10.0,0.0,0.0,0.0,10.0,0.0,0.0,0.0,10.0,0.00652474467069,0.0219710789932,0.00692421883421,1.0,0.0,0.0,0.0,1.0,0.0,0.0,0.0,1.0,-0.0251477050781,-0.00598754882813,10.0435144043,0.1,0.0,0.0,0.0,0.1,0.0,0.0,0.0,0.1
1446040138517604129,243,1446040138514498949,robocape,5.11447186107,1.15483707479,45.0539734039,0.0,10.0,0.0,0.0,0.0,10.0,0.0,0.0,0.0,10.0,0.00625842856169,0.0210389726116,0.00692421883421,1.0,0.0,0.0,0.0,1.0,0.0,0.0,0.0,1.0,-0.0275427246094,-0.00838256835938,10.0459094238,0.1,0.0,0.0,0.0,0.1,0.0,0.0,0.0,0.1
1446040138551085920,244,1446040138547801017,robocape,5.1048465244,1.1969492116,44.9007069566,0.0,10.0,0.0,0.0,0.0,10.0,0.0,0.0,0.0,10.0,0.00532632218016,0.0210389726116,0.00719053494321,1.0,0.0,0.0,0.0,1.0,0.0,0.0,0.0,1.0,-0.01916015625,-0.0203576660156,10.0614770508,0.1,0.0,0.0,0.0,0.1,0.0,0.0,0.0,0.1
1446040138584604504,245,1446040138581146001,robocape,5.09502845938,1.23791484157,44.7479455882,0.0,10.0,0.0,0.0,0.0,10.0,0.0,0.0,0.0,10.0,0.00519316412565,0.0205063403936,0.0067910607797,1.0,0.0,0.0,0.0,1.0,0.0,0.0,0.0,1.0,-0.0299377441406,-0.01916015625,10.0459094238,0.1,0.0,0.0,0.0,0.1,0.0,0.0,0.0,0.1
1446040138618387837,246,1446040138615329027,robocape,5.08502462854,1.27988043616,44.5971528725,0.0,10.0,0.0,0.0,0.0,10.0,0.0,0.0,0.0,10.0,0.00506000607115,0.0211721306661,0.00719053494321,1.0,0.0,0.0,0.0,1.0,0.0,0.0,0.0,1.0,-0.0299377441406,-0.028740234375,10.0638720703,0.1,0.0,0.0,0.0,0.1,0.0,0.0,0.0,0.1
1446040138650868545,247,1446040138647784948,robocape,5.076344662,1.32047495346,44.4465752353,0.0,10.0,0.0,0.0,0.0,10.0,0.0,0.0,0.0,10.0,0.00572579634367,0.0205063403936,0.0066579027252,1.0,0.0,0.0,0.0,1.0,0.0,0.0,0.0,1.0,-0.0371228027344,-0.0371228027344,10.0447119141,0.1,0.0,0.0,0.0,0.1,0.0,0.0,0.0,0.1
1446040138684316712,248,1446040138681137084,robocape,5.06848014383,1.36218638549,44.2968419266,0.0,10.0,0.0,0.0,0.0,10.0,0.0,0.0,0.0,10.0,0.00612527050718,0.0211721306661,0.00639158661619,1.0,0.0,0.0,0.0,1.0,0.0,0.0,0.0,1.0,-0.0215551757813,-0.0131726074219,10.0483044434,0.1,0.0,0.0,0.0,0.1,0.0,0.0,0.0,0.1
1446040138717517629,249,1446040138714494943,robocape,5.05992299267,1.40382636538,44.1496135691,0.0,10.0,0.0,0.0,0.0,10.0,0.0,0.0,0.0,10.0,0.00572579634367,0.0213052887206,0.00719053494321,1.0,0.0,0.0,0.0,1.0,0.0,0.0,0.0,1.0,-0.0311352539063,-0.00718505859375,10.0674645996,0.1,0.0,0.0,0.0,0.1,0.0,0.0,0.0,0.1
1446040138750865587,250,1446040138747833967,robocape,5.05243280776,1.44456396374,44.003029605,0.0,10.0,0.0,0.0,0.0,10.0,0.0,0.0,0.0,10.0,0.00625842856169,0.0209058145571,0.00692421883421,1.0,0.0,0.0,0.0,1.0,0.0,0.0,0.0,1.0,-0.0227526855469,-0.0143701171875,10.0075891113,0.1,0.0,0.0,0.0,0.1,0.0,0.0,0.0,0.1
1446040138784322087,251,1446040138781111955,robocape,5.04247020253,1.48534423352,43.8578558787,0.0,10.0,0.0,0.0,0.0,10.0,0.0,0.0,0.0,10.0,0.00492684801665,0.0210389726116,0.00705737688871,1.0,0.0,0.0,0.0,1.0,0.0,0.0,0.0,1.0,-0.0371228027344,-0.0179626464844,10.0387243652,0.1,0.0,0.0,0.0,0.1,0.0,0.0,0.0,0.1
1446040138817495004,252,1446040138814460039,robocape,5.0318032845,1.52602540593,43.7129455601,0.0,10.0,0.0,0.0,0.0,10.0,0.0,0.0,0.0,10.0,0.00452737385313,0.0210389726116,0.00652474467069,1.0,0.0,0.0,0.0,1.0,0.0,0.0,0.0,1.0,-0.0263452148438,-0.0227526855469,10.0471069336,0.1,0.0,0.0,0.0,0.1,0.0,0.0,0.0,0.1
1446040138850993796,253,1446040138847980022,robocape,5.02349261445,1.56515350193,43.5701104253,0.0,10.0,0.0,0.0,0.0,10.0,0.0,0.0,0.0,10.0,0.00572579634367,0.0203731823391,0.00719053494321,1.0,0.0,0.0,0.0,1.0,0.0,0.0,0.0,1.0,-0.0275427246094,-0.0239501953125,10.0483044434,0.1,0.0,0.0,0.0,0.1,0.0,0.0,0.0,0.1
1446040138884293129,254,1446040138881016016,robocape,5.01548927773,1.60465583816,43.4279705846,0.0,10.0,0.0,0.0,0.0,10.0,0.0,0.0,0.0,10.0,0.00585895439817,0.0206394984481,0.00692421883421,1.0,0.0,0.0,0.0,1.0,0.0,0.0,0.0,1.0,-0.0263452148438,-0.0167651367188,10.0578845215,0.1,0.0,0.0,0.0,0.1,0.0,0.0,0.0,0.1
1446040138917992796,255,1446040138914900064,robocape,5.00880904841,1.64423799963,43.2869180495,0.0,10.0,0.0,0.0,0.0,10.0,0.0,0.0,0.0,10.0,0.00652474467069,0.0207726565026,0.00692421883421,1.0,0.0,0.0,0.0,1.0,0.0,0.0,0.0,1.0,-0.0179626464844,-0.0263452148438,10.0387243652,0.1,0.0,0.0,0.0,0.1,0.0,0.0,0.0,0.1
1446040138954884421,256,1446040138951739072,robocape,5.00090447459,1.68499672573,43.1461760849,0.0,10.0,0.0,0.0,0.0,10.0,0.0,0.0,0.0,10.0,0.00585895439817,0.0214384467751,0.00639158661619,1.0,0.0,0.0,0.0,1.0,0.0,0.0,0.0,1.0,-0.01916015625,0.0,10.0423168945,0.1,0.0,0.0,0.0,0.1,0.0,0.0,0.0,0.1
1446040138984340962,257,1446040138981080055,robocape,4.98901353321,1.72452075156,43.0069062085,0.0,10.0,0.0,0.0,0.0,10.0,0.0,0.0,0.0,10.0,0.00372842552611,0.0209058145571,0.0066579027252,1.0,0.0,0.0,0.0,1.0,0.0,0.0,0.0,1.0,-0.0359252929688,-0.00359252929688,10.075847168,0.1,0.0,0.0,0.0,0.1,0.0,0.0,0.0,0.1
1446040139017702754,258,1446040139014597892,robocape,4.97644099664,1.76382593976,42.8691281067,0.0,10.0,0.0,0.0,0.0,10.0,0.0,0.0,0.0,10.0,0.0033289513626,0.0209058145571,0.00692421883421,1.0,0.0,0.0,0.0,1.0,0.0,0.0,0.0,1.0,-0.0227526855469,-0.0203576660156,10.0626745605,0.1,0.0,0.0,0.0,0.1,0.0,0.0,0.0,0.1
1446040139050826129,259,1446040139047745943,robocape,4.96621163425,1.80300511456,42.7319128401,0.0,10.0,0.0,0.0,0.0,10.0,0.0,0.0,0.0,10.0,0.00452737385313,0.0209058145571,0.0066579027252,1.0,0.0,0.0,0.0,1.0,0.0,0.0,0.0,1.0,-0.0167651367188,-0.0359252929688,10.0279467773,0.1,0.0,0.0,0.0,0.1,0.0,0.0,0.0,0.1
1446040139090696171,260,1446040139087582111,robocape,4.95909131699,1.84248094587,42.5961569222,0.0,10.0,0.0,0.0,0.0,10.0,0.0,0.0,0.0,10.0,0.00612527050718,0.0211721306661,0.00692421883421,1.0,0.0,0.0,0.0,1.0,0.0,0.0,0.0,1.0,-0.0263452148438,-0.0263452148438,10.0710571289,0.1,0.0,0.0,0.0,0.1,0.0,0.0,0.0,0.1
1446040139117763337,261,1446040139114744901,robocape,4.95481227796,1.88152098061,42.4615728669,0.0,10.0,0.0,0.0,0.0,10.0,0.0,0.0,0.0,10.0,0.00759000910673,0.0210389726116,0.00705737688871,1.0,0.0,0.0,0.0,1.0,0.0,0.0,0.0,1.0,-0.0263452148438,-0.0107775878906,10.039921875,0.1,0.0,0.0,0.0,0.1,0.0,0.0,0.0,0.1
1446040139150877212,262,1446040139147809982,robocape,4.95030403531,1.92126850709,42.326944397,0.0,10.0,0.0,0.0,0.0,10.0,0.0,0.0,0.0,10.0,0.00745685105222,0.0214384467751,0.00639158661619,1.0,0.0,0.0,0.0,1.0,0.0,0.0,0.0,1.0,-0.0263452148438,0.009580078125,10.0662670898,0.1,0.0,0.0,0.0,0.1,0.0,0.0,0.0,0.1
1446040139184406462,263,1446040139181205987,robocape,4.94105294431,1.95897294135,42.1943269906,0.0,10.0,0.0,0.0,0.0,10.0,0.0,0.0,0.0,10.0,0.00492684801665,0.0205063403936,0.00705737688871,1.0,0.0,0.0,0.0,1.0,0.0,0.0,0.0,1.0,-0.0275427246094,-0.0047900390625,10.0315393066,0.1,0.0,0.0,0.0,0.1,0.0,0.0,0.0,0.1
1446040139217901837,264,1446040139214848995,robocape,4.93007482267,1.99711088306,42.0618571873,0.0,10.0,0.0,0.0,0.0,10.0,0.0,0.0,0.0,10.0,0.00399474163512,0.0207726565026,0.00652474467069,1.0,0.0,0.0,0.0,1.0,0.0,0.0,0.0,1.0,-0.028740234375,-0.028740234375,10.0435144043,0.1,0.0,0.0,0.0,0.1,0.0,0.0,0.0,0.1
1446040139250993712,265,1446040139247926950,robocape,4.92221468987,2.03477503176,41.9309544365,0.0,10.0,0.0,0.0,0.0,10.0,0.0,0.0,0.0,10.0,0.00559263828917,0.0206394984481,0.00692421883421,1.0,0.0,0.0,0.0,1.0,0.0,0.0,0.0,1.0,-0.0323327636719,-0.0275427246094,10.0471069336,0.1,0.0,0.0,0.0,0.1,0.0,0.0,0.0,0.1
1446040139284175754,266,1446040139281019926,robocape,4.91771182836,2.07325602313,41.8014763359,0.0,10.0,0.0,0.0,0.0,10.0,0.0,0.0,0.0,10.0,0.00732369299772,0.0211721306661,0.00719053494321,1.0,0.0,0.0,0.0,1.0,0.0,0.0,0.0,1.0,-0.028740234375,-0.0419128417969,10.0423168945,0.1,0.0,0.0,0.0,0.1,0.0,0.0,0.0,0.1
1446040139317612671,267,1446040139314553022,robocape,4.91324402648,2.11188198741,41.6725091911,0.0,10.0,0.0,0.0,0.0,10.0,0.0,0.0,0.0,10.0,0.00732369299772,0.0213052887206,0.00692421883421,1.0,0.0,0.0,0.0,1.0,0.0,0.0,0.0,1.0,-0.0311352539063,-0.00359252929688,10.0566870117,0.1,0.0,0.0,0.0,0.1,0.0,0.0,0.0,0.1
1446040139350910129,268,1446040139347887039,robocape,4.90705455581,2.15058607674,41.5447270081,0.0,10.0,0.0,0.0,0.0,10.0,0.0,0.0,0.0,10.0,0.00639158661619,0.0214384467751,0.00705737688871,1.0,0.0,0.0,0.0,1.0,0.0,0.0,0.0,1.0,-0.0263452148438,0.009580078125,10.0483044434,0.1,0.0,0.0,0.0,0.1,0.0,0.0,0.0,0.1
1446040139384460421,269,1446040139381186962,robocape,4.8976249291,2.18888292247,41.417875612,0.0,10.0,0.0,0.0,0.0,10.0,0.0,0.0,0.0,10.0,0.00466053190764,0.0213052887206,0.00705737688871,1.0,0.0,0.0,0.0,1.0,0.0,0.0,0.0,1.0,-0.0323327636719,0.009580078125,10.0375268555,0.1,0.0,0.0,0.0,0.1,0.0,0.0,0.0,0.1
1446040139418382546,270,1446040139415079116,robocape,4.88671542456,2.22711391133,41.2910567591,0.0,10.0,0.0,0.0,0.0,10.0,0.0,0.0,0.0,10.0,0.00386158358061,0.0213052887206,0.00652474467069,1.0,0.0,0.0,0.0,1.0,0.0,0.0,0.0,1.0,-0.0167651367188,-0.0179626464844,10.0375268555,0.1,0.0,0.0,0.0,0.1,0.0,0.0,0.0,0.1
1446040139451270254,271,1446040139448095083,robocape,4.87839647621,2.26521723572,41.1648822257,0.0,10.0,0.0,0.0,0.0,10.0,0.0,0.0,0.0,10.0,0.00519316412565,0.0213052887206,0.00639158661619,1.0,0.0,0.0,0.0,1.0,0.0,0.0,0.0,1.0,-0.0275427246094,-0.0431103515625,10.0483044434,0.1,0.0,0.0,0.0,0.1,0.0,0.0,0.0,0.1
1446040139484379671,272,1446040139481126070,robocape,4.87624984005,2.30277261098,41.0410582585,0.0,10.0,0.0,0.0,0.0,10.0,0.0,0.0,0.0,10.0,0.00838895743375,0.0211721306661,0.00732369299772,1.0,0.0,0.0,0.0,1.0,0.0,0.0,0.0,1.0,-0.0263452148438,-0.0371228027344,10.0746496582,0.1,0.0,0.0,0.0,0.1,0.0,0.0,0.0,0.1
1446040139518045546,273,1446040139514950990,robocape,4.87511087328,2.34135295769,40.9166139962,0.0,10.0,0.0,0.0,0.0,10.0,0.0,0.0,0.0,10.0,0.00892158965177,0.0217047628841,0.00639158661619,1.0,0.0,0.0,0.0,1.0,0.0,0.0,0.0,1.0,-0.0299377441406,-0.0119750976563,10.0291442871,0.1,0.0,0.0,0.0,0.1,0.0,0.0,0.0,0.1
1446040139551139088,274,1446040139547818899,robocape,4.87277587518,2.37890200503,40.7943280667,0.0,10.0,0.0,0.0,0.0,10.0,0.0,0.0,0.0,10.0,0.00825579937925,0.0213052887206,0.00719053494321,1.0,0.0,0.0,0.0,1.0,0.0,0.0,0.0,1.0,-0.0311352539063,0.0179626464844,10.0411193848,0.1,0.0,0.0,0.0,0.1,0.0,0.0,0.0,0.1
1446040139586244546,275,1446040139582096099,robocape,4.86335243317,2.41593361281,40.6716008761,0.0,10.0,0.0,0.0,0.0,10.0,0.0,0.0,0.0,10.0,0.00452737385313,0.0210389726116,0.00639158661619,1.0,0.0,0.0,0.0,1.0,0.0,0.0,0.0,1.0,-0.0299377441406,-0.00598754882813,10.0566870117,0.1,0.0,0.0,0.0,0.1,0.0,0.0,0.0,0.1
1446040139617976171,276,1446040139614928960,robocape,4.85145093787,2.45183332862,40.5494519112,0.0,10.0,0.0,0.0,0.0,10.0,0.0,0.0,0.0,10.0,0.0031957933081,0.0205063403936,0.00625842856169,1.0,0.0,0.0,0.0,1.0,0.0,0.0,0.0,1.0,-0.0251477050781,-0.0143701171875,10.0566870117,0.1,0.0,0.0,0.0,0.1,0.0,0.0,0.0,0.1
1446040139651013879,277,1446040139647991895,robocape,4.84042635032,2.48819897131,40.4297457649,0.0,10.0,0.0,0.0,0.0,10.0,0.0,0.0,0.0,10.0,0.00359526747161,0.0209058145571,0.00719053494321,1.0,0.0,0.0,0.0,1.0,0.0,0.0,0.0,1.0,-0.0203576660156,-0.0239501953125,10.0530944824,0.1,0.0,0.0,0.0,0.1,0.0,0.0,0.0,0.1
1446040139684288713,278,1446040139681138992,robocape,4.83429147421,2.52489155143,40.3112885996,0.0,10.0,0.0,0.0,0.0,10.0,0.0,0.0,0.0,10.0,0.00612527050718,0.0211721306661,0.00745685105222,1.0,0.0,0.0,0.0,1.0,0.0,0.0,0.0,1.0,-0.0251477050781,-0.0239501953125,10.0363293457,0.1,0.0,0.0,0.0,0.1,0.0,0.0,0.0,0.1
1446040139717769754,279,1446040139714719057,robocape,4.83119429536,2.56185831891,40.1920653637,0.0,10.0,0.0,0.0,0.0,10.0,0.0,0.0,0.0,10.0,0.00772316716123,0.0213052887206,0.00652474467069,1.0,0.0,0.0,0.0,1.0,0.0,0.0,0.0,1.0,-0.0227526855469,-0.0167651367188,10.0435144043,0.1,0.0,0.0,0.0,0.1,0.0,0.0,0.0,0.1
1446040139750879879,280,1446040139747823953,robocape,4.83041513746,2.59920038228,40.073664052,0.0,10.0,0.0,0.0,0.0,10.0,0.0,0.0,0.0,10.0,0.00892158965177,0.0215716048296,0.00652474467069,1.0,0.0,0.0,0.0,1.0,0.0,0.0,0.0,1.0,-0.0215551757813,0.00239501953125,10.0327368164,0.1,0.0,0.0,0.0,0.1,0.0,0.0,0.0,0.1
1446040139784199463,281,1446040139781021118,robocape,4.82741775823,2.63506016862,39.956889523,0.0,10.0,0.0,0.0,0.0,10.0,0.0,0.0,0.0,10.0,0.00772316716123,0.0209058145571,0.00705737688871,1.0,0.0,0.0,0.0,1.0,0.0,0.0,0.0,1.0,-0.0311352539063,0.00119750976563,10.0506994629,0.1,0.0,0.0,0.0,0.1,0.0,0.0,0.0,0.1
1446040139826112588,282,1446040139822791099,robocape,4.81937522819,2.67110818473,39.8403034048,0.0,10.0,0.0,0.0,0.0,10.0,0.0,0.0,0.0,10.0,0.00506000607115,0.0210389726116,0.0066579027252,1.0,0.0,0.0,0.0,1.0,0.0,0.0,0.0,1.0,-0.0299377441406,0.0047900390625,10.0303417969,0.1,0.0,0.0,0.0,0.1,0.0,0.0,0.0,0.1
1446040139850922129,283,1446040139847732067,robocape,4.80785218148,2.70700129531,39.7247581563,0.0,10.0,0.0,0.0,0.0,10.0,0.0,0.0,0.0,10.0,0.0031957933081,0.0210389726116,0.0067910607797,1.0,0.0,0.0,0.0,1.0,0.0,0.0,0.0,1.0,-0.0455053710938,-0.0143701171875,10.0255517578,0.1,0.0,0.0,0.0,0.1,0.0,0.0,0.0,0.1
1446040139884466379,284,1446040139881220102,robocape,4.79869803775,2.74295111519,39.6106474778,0.0,10.0,0.0,0.0,0.0,10.0,0.0,0.0,0.0,10.0,0.00439421579863,0.0211721306661,0.00719053494321,1.0,0.0,0.0,0.0,1.0,0.0,0.0,0.0,1.0,-0.0131726074219,-0.0203576660156,10.0315393066,0.1,0.0,0.0,0.0,0.1,0.0,0.0,0.0,0.1
1446040139917985796,285,1446040139914868116,robocape,4.79339261628,2.77955427136,39.4970849907,0.0,10.0,0.0,0.0,0.0,10.0,0.0,0.0,0.0,10.0,0.00639158661619,0.0215716048296,0.00705737688871,1.0,0.0,0.0,0.0,1.0,0.0,0.0,0.0,1.0,-0.01916015625,-0.028740234375,10.060279541,0.1,0.0,0.0,0.0,0.1,0.0,0.0,0.0,0.1
1446040139950956171,286,1446040139947755098,robocape,4.79067999493,2.81523066355,39.384641592,0.0,10.0,0.0,0.0,0.0,10.0,0.0,0.0,0.0,10.0,0.00772316716123,0.0211721306661,0.00732369299772,1.0,0.0,0.0,0.0,1.0,0.0,0.0,0.0,1.0,-0.0275427246094,-0.028740234375,10.0674645996,0.1,0.0,0.0,0.0,0.1,0.0,0.0,0.0,0.1
1446040139984344171,287,1446040139981076955,robocape,4.78823314705,2.85059931326,39.2722465724,0.0,10.0,0.0,0.0,0.0,10.0,0.0,0.0,0.0,10.0,0.00785632521573,0.0210389726116,0.00692421883421,1.0,0.0,0.0,0.0,1.0,0.0,0.0,0.0,1.0,-0.0143701171875,-0.00239501953125,10.0459094238,0.1,0.0,0.0,0.0,0.1,0.0,0.0,0.0,0.1
1446040140017788629,288,1446040140014668941,robocape,4.78227220963,2.88662589501,39.1604549547,0.0,10.0,0.0,0.0,0.0,10.0,0.0,0.0,0.0,10.0,0.00599211245268,0.0214384467751,0.0067910607797,1.0,0.0,0.0,0.0,1.0,0.0,0.0,0.0,1.0,-0.0263452148438,0.0047900390625,10.0351318359,0.1,0.0,0.0,0.0,0.1,0.0,0.0,0.0,0.1
1446040140050994629,289,1446040140047712087,robocape,4.77333803492,2.92197811087,39.0498365199,0.0,10.0,0.0,0.0,0.0,10.0,0.0,0.0,0.0,10.0,0.00439421579863,0.0211721306661,0.00705737688871,1.0,0.0,0.0,0.0,1.0,0.0,0.0,0.0,1.0,-0.0119750976563,-0.0107775878906,10.0471069336,0.1,0.0,0.0,0.0,0.1,0.0,0.0,0.0,0.1
1446040140092100296,290,1446040140088880062,robocape,4.76493959383,2.95651608643,38.9392032328,0.0,10.0,0.0,0.0,0.0,10.0,0.0,0.0,0.0,10.0,0.00466053190764,0.0207726565026,0.0066579027252,1.0,0.0,0.0,0.0,1.0,0.0,0.0,0.0,1.0,-0.0119750976563,-0.0239501953125,10.0471069336,0.1,0.0,0.0,0.0,0.1,0.0,0.0,0.0,0.1
1446040140117741004,291,1446040140114703893,robocape,4.75861299435,2.99070565367,38.8290224901,0.0,10.0,0.0,0.0,0.0,10.0,0.0,0.0,0.0,10.0,0.00572579634367,0.0206394984481,0.00652474467069,1.0,0.0,0.0,0.0,1.0,0.0,0.0,0.0,1.0,-0.0263452148438,-0.0299377441406,10.0650695801,0.1,0.0,0.0,0.0,0.1,0.0,0.0,0.0,0.1
1446040140150993629,292,1446040140147969961,robocape,4.7549144502,3.02492399616,38.7206702059,0.0,10.0,0.0,0.0,0.0,10.0,0.0,0.0,0.0,10.0,0.00705737688871,0.0207726565026,0.00719053494321,1.0,0.0,0.0,0.0,1.0,0.0,0.0,0.0,1.0,-0.0251477050781,-0.01916015625,10.0542919922,0.1,0.0,0.0,0.0,0.1,0.0,0.0,0.0,0.1
1446040140184168338,293,1446040140181101083,robocape,4.75230736091,3.05868966154,38.6138879792,0.0,10.0,0.0,0.0,0.0,10.0,0.0,0.0,0.0,10.0,0.00759000910673,0.0206394984481,0.00772316716123,1.0,0.0,0.0,0.0,1.0,0.0,0.0,0.0,1.0,-0.0299377441406,-0.00838256835938,10.0530944824,0.1,0.0,0.0,0.0,0.1,0.0,0.0,0.0,0.1
1446040140217950630,294,1446040140214879989,robocape,4.7466057075,3.09306832713,38.5056014728,0.0,10.0,0.0,0.0,0.0,10.0,0.0,0.0,0.0,10.0,0.00599211245268,0.0209058145571,0.00639158661619,1.0,0.0,0.0,0.0,1.0,0.0,0.0,0.0,1.0,-0.01916015625,-0.009580078125,10.0518969727,0.1,0.0,0.0,0.0,0.1,0.0,0.0,0.0,0.1
1446040140251107588,295,1446040140248075008,robocape,4.73723142302,3.12715559923,38.3998452872,0.0,10.0,0.0,0.0,0.0,10.0,0.0,0.0,0.0,10.0,0.00399474163512,0.0209058145571,0.00745685105222,1.0,0.0,0.0,0.0,1.0,0.0,0.0,0.0,1.0,-0.0215551757813,-0.00239501953125,10.0530944824,0.1,0.0,0.0,0.0,0.1,0.0,0.0,0.0,0.1
1446040140284213880,296,1446040140281188011,robocape,4.72734852183,3.16050201089,38.2933565037,0.0,10.0,0.0,0.0,0.0,10.0,0.0,0.0,0.0,10.0,0.00372842552611,0.0205063403936,0.0066579027252,1.0,0.0,0.0,0.0,1.0,0.0,0.0,0.0,1.0,-0.0263452148438,-0.00838256835938,10.0734521484,0.1,0.0,0.0,0.0,0.1,0.0,0.0,0.0,0.1
1446040140318168380,297,1446040140315032005,robocape,4.72005932556,3.19474787112,38.1875852499,0.0,10.0,0.0,0.0,0.0,10.0,0.0,0.0,0.0,10.0,0.00506000607115,0.0210389726116,0.0066579027252,1.0,0.0,0.0,0.0,1.0,0.0,0.0,0.0,1.0,-0.0143701171875,-0.0383203125,10.0471069336,0.1,0.0,0.0,0.0,0.1,0.0,0.0,0.0,0.1
1446040140351283046,298,1446040140348156929,robocape,4.71462386137,3.22856413551,38.0831219802,0.0,10.0,0.0,0.0,0.0,10.0,0.0,0.0,0.0,10.0,0.00599211245268,0.0209058145571,0.00705737688871,1.0,0.0,0.0,0.0,1.0,0.0,0.0,0.0,1.0,-0.0155676269531,-0.0215551757813,10.0387243652,0.1,0.0,0.0,0.0,0.1,0.0,0.0,0.0,0.1
1446040140384157088,299,1446040140381120920,robocape,4.71378069098,3.26204327203,37.97902646,0.0,10.0,0.0,0.0,0.0,10.0,0.0,0.0,0.0,10.0,0.00838895743375,0.0207726565026,0.00692421883421,1.0,0.0,0.0,0.0,1.0,0.0,0.0,0.0,1.0,0.0,-0.0299377441406,10.0423168945,0.1,0.0,0.0,0.0,0.1,0.0,0.0,0.0,0.1
1446040140418037880,300,1446040140414901971,robocape,4.71320159809,3.29546263808,37.8751266948,0.0,10.0,0.0,0.0,0.0,10.0,0.0,0.0,0.0,10.0,0.00852211548825,0.0207726565026,0.0066579027252,1.0,0.0,0.0,0.0,1.0,0.0,0.0,0.0,1.0,-0.0131726074219,-0.00359252929688,10.0590820312,0.1,0.0,0.0,0.0,0.1,0.0,0.0,0.0,0.1
1446040140451131380,301,1446040140447911024,robocape,4.71187450138,3.32983295425,37.7714978523,0.0,10.0,0.0,0.0,0.0,10.0,0.0,0.0,0.0,10.0,0.00812264132474,0.0213052887206,0.00639158661619,1.0,0.0,0.0,0.0,1.0,0.0,0.0,0.0,1.0,-0.0251477050781,0.0,10.0506994629,0.1,0.0,0.0,0.0,0.1,0.0,0.0,0.0,0.1
1446040140484157421,302,1446040140481045007,robocape,4.70631785464,3.36350258752,37.6694220428,0.0,10.0,0.0,0.0,0.0,10.0,0.0,0.0,0.0,10.0,0.00585895439817,0.0210389726116,0.00692421883421,1.0,0.0,0.0,0.0,1.0,0.0,0.0,0.0,1.0,-0.0227526855469,-0.0107775878906,10.060279541,0.1,0.0,0.0,0.0,0.1,0.0,0.0,0.0,0.1
1446040140517828963,303,1446040140514713048,robocape,4.69775794323,3.39733940702,37.5677936112,0.0,10.0,0.0,0.0,0.0,10.0,0.0,0.0,0.0,10.0,0.00426105774413,0.0211721306661,0.0067910607797,1.0,0.0,0.0,0.0,1.0,0.0,0.0,0.0,1.0,-0.0275427246094,-0.0251477050781,10.0447119141,0.1,0.0,0.0,0.0,0.1,0.0,0.0,0.0,0.1
1446040140551306588,304,1446040140548094034,robocape,4.69052832991,3.43054174045,37.4669678893,0.0,10.0,0.0,0.0,0.0,10.0,0.0,0.0,0.0,10.0,0.00492684801665,0.0209058145571,0.00692421883421,1.0,0.0,0.0,0.0,1.0,0.0,0.0,0.0,1.0,-0.0227526855469,-0.0239501953125,10.019564209,0.1,0.0,0.0,0.0,0.1,0.0,0.0,0.0,0.1
1446040140584442713,305,1446040140581079006,robocape,4.68433833507,3.46317884868,37.3662596376,0.0,10.0,0.0,0.0,0.0,10.0,0.0,0.0,0.0,10.0,0.00545948023466,0.0206394984481,0.0066579027252,1.0,0.0,0.0,0.0,1.0,0.0,0.0,0.0,1.0,-0.01916015625,-0.0323327636719,10.0626745605,0.1,0.0,0.0,0.0,0.1,0.0,0.0,0.0,0.1
1446040140617791421,306,1446040140614737033,robocape,4.68149896947,3.49569387376,37.2663616977,0.0,10.0,0.0,0.0,0.0,10.0,0.0,0.0,0.0,10.0,0.00719053494321,0.0206394984481,0.0067910607797,1.0,0.0,0.0,0.0,1.0,0.0,0.0,0.0,1.0,-0.0299377441406,-0.0251477050781,10.0459094238,0.1,0.0,0.0,0.0,0.1,0.0,0.0,0.0,0.1
1446040140650846338,307,1446040140647792100,robocape,4.67741996162,3.52838470371,37.1668716767,0.0,10.0,0.0,0.0,0.0,10.0,0.0,0.0,0.0,10.0,0.00652474467069,0.0207726565026,0.0066579027252,1.0,0.0,0.0,0.0,1.0,0.0,0.0,0.0,1.0,-0.0203576660156,-0.150886230469,10.0183666992,0.1,0.0,0.0,0.0,0.1,0.0,0.0,0.0,0.1
1446040140684175755,308,1446040140681118965,robocape,4.67086035688,3.56044846589,37.0681983739,0.0,10.0,0.0,0.0,0.0,10.0,0.0,0.0,0.0,10.0,0.00519316412565,0.0205063403936,0.0067910607797,1.0,0.0,0.0,0.0,1.0,0.0,0.0,0.0,1.0,-0.0143701171875,0.00718505859375,10.0483044434,0.1,0.0,0.0,0.0,0.1,0.0,0.0,0.0,0.1
1446040140717912838,309,1446040140714853048,robocape,4.66079232868,3.59243455714,36.9699223187,0.0,10.0,0.0,0.0,0.0,10.0,0.0,0.0,0.0,10.0,0.0033289513626,0.0205063403936,0.0066579027252,1.0,0.0,0.0,0.0,1.0,0.0,0.0,0.0,1.0,-0.0167651367188,0.0,10.0327368164,0.1,0.0,0.0,0.0,0.1,0.0,0.0,0.0,0.1
1446040140750888171,310,1446040140747842073,robocape,4.65153213537,3.62510057734,36.8720506824,0.0,10.0,0.0,0.0,0.0,10.0,0.0,0.0,0.0,10.0,0.00372842552611,0.0209058145571,0.00652474467069,1.0,0.0,0.0,0.0,1.0,0.0,0.0,0.0,1.0,-0.0239501953125,-0.0155676269531,10.0351318359,0.1,0.0,0.0,0.0,0.1,0.0,0.0,0.0,0.1
1446040140784217046,311,1446040140781178951,robocape,4.64539039786,3.65762299772,36.7751906886,0.0,10.0,0.0,0.0,0.0,10.0,0.0,0.0,0.0,10.0,0.00532632218016,0.0209058145571,0.0067910607797,1.0,0.0,0.0,0.0,1.0,0.0,0.0,0.0,1.0,-0.0215551757813,-0.0275427246094,10.0351318359,0.1,0.0,0.0,0.0,0.1,0.0,0.0,0.0,0.1
1446040140818116088,312,1446040140815004110,robocape,4.64355178641,3.69089451264,36.6780074256,0.0,10.0,0.0,0.0,0.0,10.0,0.0,0.0,0.0,10.0,0.00759000910673,0.0213052887206,0.00625842856169,1.0,0.0,0.0,0.0,1.0,0.0,0.0,0.0,1.0,-0.0263452148438,-0.01916015625,10.0566870117,0.1,0.0,0.0,0.0,0.1,0.0,0.0,0.0,0.1
1446040140851248671,313,1446040140848068952,robocape,4.64229772362,3.72196162455,36.5821714741,0.0,10.0,0.0,0.0,0.0,10.0,0.0,0.0,0.0,10.0,0.00785632521573,0.0202400242846,0.0067910607797,1.0,0.0,0.0,0.0,1.0,0.0,0.0,0.0,1.0,-0.0311352539063,-0.00718505859375,10.0375268555,0.1,0.0,0.0,0.0,0.1,0.0,0.0,0.0,0.1
1446040140884139005,314,1446040140881088018,robocape,4.63754965341,3.75544187851,36.4873321728,0.0,10.0,0.0,0.0,0.0,10.0,0.0,0.0,0.0,10.0,0.00599211245268,0.0215716048296,0.00692421883421,1.0,0.0,0.0,0.0,1.0,0.0,0.0,0.0,1.0,-0.0203576660156,0.0131726074219,10.0459094238,0.1,0.0,0.0,0.0,0.1,0.0,0.0,0.0,0.1
1446040140918125880,315,1446040140914962053,robocape,4.62854675386,3.78728561653,36.3932125029,0.0,10.0,0.0,0.0,0.0,10.0,0.0,0.0,0.0,10.0,0.00372842552611,0.0207726565026,0.00705737688871,1.0,0.0,0.0,0.0,1.0,0.0,0.0,0.0,1.0,-0.00838256835938,-0.0047900390625,10.0638720703,0.1,0.0,0.0,0.0,0.1,0.0,0.0,0.0,0.1
1446040140950924297,316,1446040140947683095,robocape,4.61734373181,3.8184842946,36.3000852784,0.0,10.0,0.0,0.0,0.0,10.0,0.0,0.0,0.0,10.0,0.00253000303558,0.0205063403936,0.00732369299772,1.0,0.0,0.0,0.0,1.0,0.0,0.0,0.0,1.0,-0.0155676269531,-0.01916015625,10.0471069336,0.1,0.0,0.0,0.0,0.1,0.0,0.0,0.0,0.1
1446040140984126797,317,1446040140981024980,robocape,4.60797605253,3.85034661228,36.2075354379,0.0,10.0,0.0,0.0,0.0,10.0,0.0,0.0,0.0,10.0,0.0034621094171,0.0209058145571,0.00732369299772,1.0,0.0,0.0,0.0,1.0,0.0,0.0,0.0,1.0,-0.0251477050781,-0.0215551757813,10.0483044434,0.1,0.0,0.0,0.0,0.1,0.0,0.0,0.0,0.1
1446040141022823588,318,1446040141019696950,robocape,4.60518406843,3.88348806283,36.1144064957,0.0,10.0,0.0,0.0,0.0,10.0,0.0,0.0,0.0,10.0,0.00692421883421,0.0215716048296,0.0066579027252,1.0,0.0,0.0,0.0,1.0,0.0,0.0,0.0,1.0,-0.0155676269531,-0.0323327636719,10.0411193848,0.1,0.0,0.0,0.0,0.1,0.0,0.0,0.0,0.1
1446040141051071463,319,1446040141047600984,robocape,4.60519692591,3.91580071941,36.0215132015,0.0,10.0,0.0,0.0,0.0,10.0,0.0,0.0,0.0,10.0,0.00838895743375,0.0211721306661,0.00652474467069,1.0,0.0,0.0,0.0,1.0,0.0,0.0,0.0,1.0,-0.0323327636719,-0.0107775878906,10.0363293457,0.1,0.0,0.0,0.0,0.1,0.0,0.0,0.0,0.1
1446040141091174713,320,1446040141088012933,robocape,4.60301560564,3.94945115631,35.9301930911,0.0,10.0,0.0,0.0,0.0,10.0,0.0,0.0,0.0,10.0,0.00719053494321,0.0219710789932,0.00705737688871,1.0,0.0,0.0,0.0,1.0,0.0,0.0,0.0,1.0,-0.0215551757813,0.00359252929688,10.0566870117,0.1,0.0,0.0,0.0,0.1,0.0,0.0,0.0,0.1
1446040141117728880,321,1446040141114612102,robocape,4.5965874915,3.98245764058,35.8398575384,0.0,10.0,0.0,0.0,0.0,10.0,0.0,0.0,0.0,10.0,0.00492684801665,0.0217047628841,0.00732369299772,1.0,0.0,0.0,0.0,1.0,0.0,0.0,0.0,1.0,-0.0263452148438,0.0143701171875,10.0698596191,0.1,0.0,0.0,0.0,0.1,0.0,0.0,0.0,0.1
1446040141151543797,322,1446040141148497104,robocape,4.58711886782,4.01366721303,35.7492564786,0.0,10.0,0.0,0.0,0.0,10.0,0.0,0.0,0.0,10.0,0.0033289513626,0.0207726565026,0.00692421883421,1.0,0.0,0.0,0.0,1.0,0.0,0.0,0.0,1.0,-0.0143701171875,-0.0179626464844,10.0626745605,0.1,0.0,0.0,0.0,0.1,0.0,0.0,0.0,0.1
1446040141184264672,323,1446040141181233882,robocape,4.57920943269,4.04455595618,35.6589115291,0.0,10.0,0.0,0.0,0.0,10.0,0.0,0.0,0.0,10.0,0.00412789968962,0.0206394984481,0.0067910607797,1.0,0.0,0.0,0.0,1.0,0.0,0.0,0.0,1.0,-0.0203576660156,-0.028740234375,10.0315393066,0.1,0.0,0.0,0.0,0.1,0.0,0.0,0.0,0.1
1446040141217874963,324,1446040141214795112,robocape,4.57875296487,4.07602792915,35.5699881148,0.0,10.0,0.0,0.0,0.0,10.0,0.0,0.0,0.0,10.0,0.00798948327024,0.0210389726116,0.00732369299772,1.0,0.0,0.0,0.0,1.0,0.0,0.0,0.0,1.0,-0.0275427246094,-0.0143701171875,10.0327368164,0.1,0.0,0.0,0.0,0.1,0.0,0.0,0.0,0.1
1446040141250829922,325,1446040141247814893,robocape,4.57850829738,4.10828206935,35.480468037,0.0,10.0,0.0,0.0,0.0,10.0,0.0,0.0,0.0,10.0,0.00812264132474,0.0214384467751,0.0066579027252,1.0,0.0,0.0,0.0,1.0,0.0,0.0,0.0,1.0,-0.0311352539063,0.00718505859375,10.0435144043,0.1,0.0,0.0,0.0,0.1,0.0,0.0,0.0,0.1
1446040141284287297,326,1446040141281105995,robocape,4.57610960125,4.13928557923,35.3930143201,0.0,10.0,0.0,0.0,0.0,10.0,0.0,0.0,0.0,10.0,0.00692421883421,0.0209058145571,0.00759000910673,1.0,0.0,0.0,0.0,1.0,0.0,0.0,0.0,1.0,-0.0227526855469,0.0,10.0363293457,0.1,0.0,0.0,0.0,0.1,0.0,0.0,0.0,0.1
1446040141318163672,327,1446040141315000057,robocape,4.56783337274,4.1708407453,35.3047520718,0.0,10.0,0.0,0.0,0.0,10.0,0.0,0.0,0.0,10.0,0.00386158358061,0.0211721306661,0.0067910607797,1.0,0.0,0.0,0.0,1.0,0.0,0.0,0.0,1.0,-0.0299377441406,-0.0119750976563,10.0423168945,0.1,0.0,0.0,0.0,0.1,0.0,0.0,0.0,0.1
1446040141350856713,328,1446040141347681999,robocape,4.55628345704,4.20184559155,35.2165142502,0.0,10.0,0.0,0.0,0.0,10.0,0.0,0.0,0.0,10.0,0.00213052887206,0.0209058145571,0.00652474467069,1.0,0.0,0.0,0.0,1.0,0.0,0.0,0.0,1.0,-0.0299377441406,-0.0047900390625,10.0530944824,0.1,0.0,0.0,0.0,0.1,0.0,0.0,0.0,0.1
1446040141384154463,329,1446040141381088972,robocape,4.5463270351,4.23274023608,35.1289837676,0.0,10.0,0.0,0.0,0.0,10.0,0.0,0.0,0.0,10.0,0.00292947719909,0.0209058145571,0.0066579027252,1.0,0.0,0.0,0.0,1.0,0.0,0.0,0.0,1.0,-0.028740234375,-0.0299377441406,10.0542919922,0.1,0.0,0.0,0.0,0.1,0.0,0.0,0.0,0.1
1446040141418162672,330,1446040141415016889,robocape,4.54104619033,4.26421874986,35.0428729382,0.0,10.0,0.0,0.0,0.0,10.0,0.0,0.0,0.0,10.0,0.00532632218016,0.0213052887206,0.00719053494321,1.0,0.0,0.0,0.0,1.0,0.0,0.0,0.0,1.0,-0.0107775878906,-0.0347277832031,10.0542919922,0.1,0.0,0.0,0.0,0.1,0.0,0.0,0.0,0.1
1446040141451023880,331,1446040141447652101,robocape,4.54338894889,4.29563459474,34.9569483071,0.0,10.0,0.0,0.0,0.0,10.0,0.0,0.0,0.0,10.0,0.00932106381528,0.0213052887206,0.00705737688871,1.0,0.0,0.0,0.0,1.0,0.0,0.0,0.0,1.0,-0.0275427246094,-0.0311352539063,10.0447119141,0.1,0.0,0.0,0.0,0.1,0.0,0.0,0.0,0.1
1446040141484215547,332,1446040141481092929,robocape,4.54641785824,4.32684890313,34.8700925348,0.0,10.0,0.0,0.0,0.0,10.0,0.0,0.0,0.0,10.0,0.00972053797879,0.0211721306661,0.00625842856169,1.0,0.0,0.0,0.0,1.0,0.0,0.0,0.0,1.0,-0.0179626464844,-0.0119750976563,10.039921875,0.1,0.0,0.0,0.0,0.1,0.0,0.0,0.0,0.1
1446040141518011463,333,1446040141514492034,robocape,4.54705582197,4.3580610401,34.7855980745,0.0,10.0,0.0,0.0,0.0,10.0,0.0,0.0,0.0,10.0,0.00838895743375,0.0213052887206,0.00732369299772,1.0,0.0,0.0,0.0,1.0,0.0,0.0,0.0,1.0,-0.0251477050781,0.0119750976563,10.0423168945,0.1,0.0,0.0,0.0,0.1,0.0,0.0,0.0,0.1
1446040141551095297,334,1446040141547791957,robocape,4.5403399211,4.38873112457,34.7011289963,0.0,10.0,0.0,0.0,0.0,10.0,0.0,0.0,0.0,10.0,0.00452737385313,0.0210389726116,0.00705737688871,1.0,0.0,0.0,0.0,1.0,0.0,0.0,0.0,1.0,-0.0263452148438,-0.00239501953125,10.0626745605,0.1,0.0,0.0,0.0,0.1,0.0,0.0,0.0,0.1
1446040141584358380,335,1446040141581013917,robocape,4.53061194678,4.41883545783,34.6168788368,0.0,10.0,0.0,0.0,0.0,10.0,0.0,0.0,0.0,10.0,0.00292947719909,0.0207726565026,0.00692421883421,1.0,0.0,0.0,0.0,1.0,0.0,0.0,0.0,1.0,-0.0119750976563,-0.0107775878906,10.0483044434,0.1,0.0,0.0,0.0,0.1,0.0,0.0,0.0,0.1
1446040141618030964,336,1446040141614490032,robocape,4.52218751567,4.44887964547,34.5328438444,0.0,10.0,0.0,0.0,0.0,10.0,0.0,0.0,0.0,10.0,0.00359526747161,0.0207726565026,0.0067910607797,1.0,0.0,0.0,0.0,1.0,0.0,0.0,0.0,1.0,-0.0143701171875,-0.0251477050781,10.0387243652,0.1,0.0,0.0,0.0,0.1,0.0,0.0,0.0,0.1
1446040141650994422,337,1446040141647986888,robocape,4.5192874498,4.4787221521,34.447816203,0.0,10.0,0.0,0.0,0.0,10.0,0.0,0.0,0.0,10.0,0.00652474467069,0.0206394984481,0.00599211245268,1.0,0.0,0.0,0.0,1.0,0.0,0.0,0.0,1.0,-0.0239501953125,-0.0383203125,10.0303417969,0.1,0.0,0.0,0.0,0.1,0.0,0.0,0.0,0.1
1446040141684183547,338,1446040141681162118,robocape,4.51879951145,4.50886167676,34.3646514495,0.0,10.0,0.0,0.0,0.0,10.0,0.0,0.0,0.0,10.0,0.00772316716123,0.0209058145571,0.0067910607797,1.0,0.0,0.0,0.0,1.0,0.0,0.0,0.0,1.0,-0.0299377441406,-0.0263452148438,10.060279541,0.1,0.0,0.0,0.0,0.1,0.0,0.0,0.0,0.1
1446040141717945755,339,1446040141714472055,robocape,4.51802213305,4.53977025138,34.2810595112,0.0,10.0,0.0,0.0,0.0,10.0,0.0,0.0,0.0,10.0,0.00759000910673,0.0213052887206,0.00625842856169,1.0,0.0,0.0,0.0,1.0,0.0,0.0,0.0,1.0,-0.0179626464844,-0.009580078125,10.0686621094,0.1,0.0,0.0,0.0,0.1,0.0,0.0,0.0,0.1
1446040141751001464,340,1446040141747931957,robocape,4.51581632816,4.57000813243,34.1988207729,0.0,10.0,0.0,0.0,0.0,10.0,0.0,0.0,0.0,10.0,0.0067910607797,0.0210389726116,0.0067910607797,1.0,0.0,0.0,0.0,1.0,0.0,0.0,0.0,1.0,-0.0155676269531,0.00239501953125,10.0638720703,0.1,0.0,0.0,0.0,0.1,0.0,0.0,0.0,0.1
1446040141784123505,341,1446040141781094074,robocape,4.50941812902,4.59980714978,34.1181956769,0.0,10.0,0.0,0.0,0.0,10.0,0.0,0.0,0.0,10.0,0.00452737385313,0.0209058145571,0.00745685105222,1.0,0.0,0.0,0.0,1.0,0.0,0.0,0.0,1.0,-0.0239501953125,-0.00718505859375,10.0423168945,0.1,0.0,0.0,0.0,0.1,0.0,0.0,0.0,0.1
1446040141818208380,342,1446040141814500093,robocape,4.50534493581,4.6302861825,34.0380307761,0.0,10.0,0.0,0.0,0.0,10.0,0.0,0.0,0.0,10.0,0.00572579634367,0.0213052887206,0.00745685105222,1.0,0.0,0.0,0.0,1.0,0.0,0.0,0.0,1.0,-0.0323327636719,-0.028740234375,10.0495019531,0.1,0.0,0.0,0.0,0.1,0.0,0.0,0.0,0.1
1446040141850900964,343,1446040141847641944,robocape,4.50220417819,4.66134577961,33.9566915652,0.0,10.0,0.0,0.0,0.0,10.0,0.0,0.0,0.0,10.0,0.00625842856169,0.0215716048296,0.00652474467069,1.0,0.0,0.0,0.0,1.0,0.0,0.0,0.0,1.0,-0.01916015625,-0.0215551757813,10.0566870117,0.1,0.0,0.0,0.0,0.1,0.0,0.0,0.0,0.1
1446040141884117880,344,1446040141881084918,robocape,4.50263585749,4.69030702995,33.8756256156,0.0,10.0,0.0,0.0,0.0,10.0,0.0,0.0,0.0,10.0,0.00812264132474,0.0205063403936,0.00652474467069,1.0,0.0,0.0,0.0,1.0,0.0,0.0,0.0,1.0,-0.0203576660156,-0.00718505859375,10.0506994629,0.1,0.0,0.0,0.0,0.1,0.0,0.0,0.0,0.1
1446040141918217672,345,1446040141914736986,robocape,4.50180892057,4.71947229376,33.7947810817,0.0,10.0,0.0,0.0,0.0,10.0,0.0,0.0,0.0,10.0,0.00745685105222,0.0206394984481,0.00639158661619,1.0,0.0,0.0,0.0,1.0,0.0,0.0,0.0,1.0,-0.0143701171875,-0.00598754882813,10.0339343262,0.1,0.0,0.0,0.0,0.1,0.0,0.0,0.0,0.1
1446040141951159464,346,1446040141947727918,robocape,4.49608352336,4.74889569036,33.7162891171,0.0,10.0,0.0,0.0,0.0,10.0,0.0,0.0,0.0,10.0,0.00479368996214,0.0209058145571,0.00745685105222,1.0,0.0,0.0,0.0,1.0,0.0,0.0,0.0,1.0,-0.0263452148438,0.00239501953125,10.0411193848,0.1,0.0,0.0,0.0,0.1,0.0,0.0,0.0,0.1
1446040141984163714,347,1446040141981067895,robocape,4.4868149051,4.77753117342,33.6377191061,0.0,10.0,0.0,0.0,0.0,10.0,0.0,0.0,0.0,10.0,0.00292947719909,0.0205063403936,0.00719053494321,1.0,0.0,0.0,0.0,1.0,0.0,0.0,0.0,1.0,-0.028740234375,-0.00718505859375,10.0530944824,0.1,0.0,0.0,0.0,0.1,0.0,0.0,0.0,0.1
1446040142018129630,348,1446040142014662027,robocape,4.47730643078,4.80563176558,33.5590615267,0.0,10.0,0.0,0.0,0.0,10.0,0.0,0.0,0.0,10.0,0.00279631914458,0.0202400242846,0.00692421883421,1.0,0.0,0.0,0.0,1.0,0.0,0.0,0.0,1.0,-0.0251477050781,-0.0263452148438,10.0638720703,0.1,0.0,0.0,0.0,0.1,0.0,0.0,0.0,0.1
1446040142051069589,349,1446040142047646999,robocape,4.47290428346,4.83570165104,33.480670952,0.0,10.0,0.0,0.0,0.0,10.0,0.0,0.0,0.0,10.0,0.00545948023466,0.0213052887206,0.0067910607797,1.0,0.0,0.0,0.0,1.0,0.0,0.0,0.0,1.0,-0.0335302734375,-0.0371228027344,10.0411193848,0.1,0.0,0.0,0.0,0.1,0.0,0.0,0.0,0.1
1446040142091347047,350,1446040142087858915,robocape,4.47286130255,4.86542225335,33.4028714127,0.0,10.0,0.0,0.0,0.0,10.0,0.0,0.0,0.0,10.0,0.00772316716123,0.0211721306661,0.00692421883421,1.0,0.0,0.0,0.0,1.0,0.0,0.0,0.0,1.0,-0.01916015625,-0.0311352539063,10.0447119141,0.1,0.0,0.0,0.0,0.1,0.0,0.0,0.0,0.1
1446040142117505297,351,1446040142114411115,robocape,4.47564608364,4.89479698438,33.3256710906,0.0,10.0,0.0,0.0,0.0,10.0,0.0,0.0,0.0,10.0,0.00918790576077,0.0210389726116,0.00705737688871,1.0,0.0,0.0,0.0,1.0,0.0,0.0,0.0,1.0,-0.028740234375,-0.00838256835938,10.0530944824,0.1,0.0,0.0,0.0,0.1,0.0,0.0,0.0,0.1
1446040142150953964,352,1446040142147696018,robocape,4.47443164506,4.92431187999,33.2493797564,0.0,10.0,0.0,0.0,0.0,10.0,0.0,0.0,0.0,10.0,0.00705737688871,0.0211721306661,0.00732369299772,1.0,0.0,0.0,0.0,1.0,0.0,0.0,0.0,1.0,-0.0311352539063,0.00359252929688,10.0303417969,0.1,0.0,0.0,0.0,0.1,0.0,0.0,0.0,0.1
1446040142184040339,353,1446040142180958986,robocape,4.46557098232,4.95359187821,33.1725843153,0.0,10.0,0.0,0.0,0.0,10.0,0.0,0.0,0.0,10.0,0.00306263525359,0.0210389726116,0.0067910607797,1.0,0.0,0.0,0.0,1.0,0.0,0.0,0.0,1.0,-0.0323327636719,-0.00239501953125,10.0722546387,0.1,0.0,0.0,0.0,0.1,0.0,0.0,0.0,0.1
1446040142218808589,354,1446040142215642929,robocape,4.45550801508,4.98227159414,33.0963886037,0.0,10.0,0.0,0.0,0.0,10.0,0.0,0.0,0.0,10.0,0.00239684498107,0.0207726565026,0.00692421883421,1.0,0.0,0.0,0.0,1.0,0.0,0.0,0.0,1.0,-0.0179626464844,-0.0215551757813,10.039921875,0.1,0.0,0.0,0.0,0.1,0.0,0.0,0.0,0.1
1446040142250923714,355,1446040142247705936,robocape,4.45031185957,5.01163591266,33.0205928706,0.0,10.0,0.0,0.0,0.0,10.0,0.0,0.0,0.0,10.0,0.00492684801665,0.0211721306661,0.00692421883421,1.0,0.0,0.0,0.0,1.0,0.0,0.0,0.0,1.0,-0.0227526855469,-0.0383203125,10.0411193848,0.1,0.0,0.0,0.0,0.1,0.0,0.0,0.0,0.1
1446040142284373881,356,1446040142281312942,robocape,4.45181611898,5.04134528194,32.946100769,0.0,10.0,0.0,0.0,0.0,10.0,0.0,0.0,0.0,10.0,0.00838895743375,0.0214384467751,0.00745685105222,1.0,0.0,0.0,0.0,1.0,0.0,0.0,0.0,1.0,-0.0203576660156,-0.0323327636719,10.0387243652,0.1,0.0,0.0,0.0,0.1,0.0,0.0,0.0,0.1
1446040142317977464,357,1446040142314563989,robocape,4.45655489044,5.07031532251,32.8709821142,0.0,10.0,0.0,0.0,0.0,10.0,0.0,0.0,0.0,10.0,0.0101200121423,0.0210389726116,0.00692421883421,1.0,0.0,0.0,0.0,1.0,0.0,0.0,0.0,1.0,-0.0179626464844,-0.0107775878906,10.055489502,0.1,0.0,0.0,0.0,0.1,0.0,0.0,0.0,0.1
1446040142350940506,358,1446040142347621917,robocape,4.45649509224,5.10023047831,32.7963406038,0.0,10.0,0.0,0.0,0.0,10.0,0.0,0.0,0.0,10.0,0.00759000910673,0.0215716048296,0.00692421883421,1.0,0.0,0.0,0.0,1.0,0.0,0.0,0.0,1.0,-0.0227526855469,0.0047900390625,10.0459094238,0.1,0.0,0.0,0.0,0.1,0.0,0.0,0.0,0.1
1446040142384052631,359,1446040142381014108,robocape,4.44987093769,5.12982424607,32.7221026777,0.0,10.0,0.0,0.0,0.0,10.0,0.0,0.0,0.0,10.0,0.00412789968962,0.0214384467751,0.00692421883421,1.0,0.0,0.0,0.0,1.0,0.0,0.0,0.0,1.0,-0.0239501953125,0.00718505859375,10.0363293457,0.1,0.0,0.0,0.0,0.1,0.0,0.0,0.0,0.1
1446040142417962422,360,1446040142414820909,robocape,4.43925138345,5.15882000873,32.6484635359,0.0,10.0,0.0,0.0,0.0,10.0,0.0,0.0,0.0,10.0,0.00199737081756,0.0211721306661,0.00705737688871,1.0,0.0,0.0,0.0,1.0,0.0,0.0,0.0,1.0,-0.0167651367188,-0.028740234375,10.0530944824,0.1,0.0,0.0,0.0,0.1,0.0,0.0,0.0,0.1
1446040142451141339,361,1446040142447658061,robocape,4.43273080361,5.18622873521,32.5750665533,0.0,10.0,0.0,0.0,0.0,10.0,0.0,0.0,0.0,10.0,0.00412789968962,0.0203731823391,0.00705737688871,1.0,0.0,0.0,0.0,1.0,0.0,0.0,0.0,1.0,-0.0107775878906,-0.0383203125,10.0530944824,0.1,0.0,0.0,0.0,0.1,0.0,0.0,0.0,0.1
1446040142484136797,362,1446040142481013059,robocape,4.43231753478,5.21510758672,32.5018541249,0.0,10.0,0.0,0.0,0.0,10.0,0.0,0.0,0.0,10.0,0.00732369299772,0.0211721306661,0.00692421883421,1.0,0.0,0.0,0.0,1.0,0.0,0.0,0.0,1.0,-0.0131726074219,-0.028740234375,10.0495019531,0.1,0.0,0.0,0.0,0.1,0.0,0.0,0.0,0.1
1446040142517879006,363,1446040142514605045,robocape,4.43574235257,5.24238298473,32.4291191789,0.0,10.0,0.0,0.0,0.0,10.0,0.0,0.0,0.0,10.0,0.00932106381528,0.0203731823391,0.00705737688871,1.0,0.0,0.0,0.0,1.0,0.0,0.0,0.0,1.0,-0.0239501953125,-0.0131726074219,10.0674645996,0.1,0.0,0.0,0.0,0.1,0.0,0.0,0.0,0.1
1446040142551148964,364,1446040142547709941,robocape,4.435888552,5.26959887209,32.3567678698,0.0,10.0,0.0,0.0,0.0,10.0,0.0,0.0,0.0,10.0,0.00759000910673,0.0203731823391,0.00705737688871,1.0,0.0,0.0,0.0,1.0,0.0,0.0,0.0,1.0,-0.0119750976563,0.0107775878906,10.0327368164,0.1,0.0,0.0,0.0,0.1,0.0,0.0,0.0,0.1
1446040142584558881,365,1446040142581141948,robocape,4.43126738067,5.29748975351,32.2850877003,0.0,10.0,0.0,0.0,0.0,10.0,0.0,0.0,0.0,10.0,0.00506000607115,0.0207726565026,0.00719053494321,1.0,0.0,0.0,0.0,1.0,0.0,0.0,0.0,1.0,-0.00838256835938,0.0047900390625,10.0339343262,0.1,0.0,0.0,0.0,0.1,0.0,0.0,0.0,0.1
1446040142617855464,366,1446040142614447116,robocape,4.42362234662,5.32559060783,32.2135600899,0.0,10.0,0.0,0.0,0.0,10.0,0.0,0.0,0.0,10.0,0.0034621094171,0.0209058145571,0.00705737688871,1.0,0.0,0.0,0.0,1.0,0.0,0.0,0.0,1.0,-0.0155676269531,-0.0167651367188,10.0447119141,0.1,0.0,0.0,0.0,0.1,0.0,0.0,0.0,0.1
1446040142650967339,367,1446040142647689104,robocape,4.41779167016,5.35311963649,32.142337614,0.0,10.0,0.0,0.0,0.0,10.0,0.0,0.0,0.0,10.0,0.00439421579863,0.0206394984481,0.00705737688871,1.0,0.0,0.0,0.0,1.0,0.0,0.0,0.0,1.0,-0.0167651367188,-0.0395178222656,10.0447119141,0.1,0.0,0.0,0.0,0.1,0.0,0.0,0.0,0.1
1446040142684159881,368,1446040142681142091,robocape,4.41776736774,5.38115392856,32.0707514441,0.0,10.0,0.0,0.0,0.0,10.0,0.0,0.0,0.0,10.0,0.00745685105222,0.0209058145571,0.0066579027252,1.0,0.0,0.0,0.0,1.0,0.0,0.0,0.0,1.0,-0.0263452148438,-0.028740234375,10.0578845215,0.1,0.0,0.0,0.0,0.1,0.0,0.0,0.0,0.1
1446040142718049339,369,1446040142714651107,robocape,4.42032360239,5.41011277533,31.9997950135,0.0,10.0,0.0,0.0,0.0,10.0,0.0,0.0,0.0,10.0,0.00878843159726,0.0214384467751,0.0067910607797,1.0,0.0,0.0,0.0,1.0,0.0,0.0,0.0,1.0,-0.0323327636719,-0.0131726074219,10.0459094238,0.1,0.0,0.0,0.0,0.1,0.0,0.0,0.0,0.1
1446040142750909256,370,1446040142747761964,robocape,4.41981398617,5.43905240623,31.9287333143,0.0,10.0,0.0,0.0,0.0,10.0,0.0,0.0,0.0,10.0,0.00719053494321,0.0214384467751,0.00652474467069,1.0,0.0,0.0,0.0,1.0,0.0,0.0,0.0,1.0,-0.01916015625,0.00359252929688,10.0506994629,0.1,0.0,0.0,0.0,0.1,0.0,0.0,0.0,0.1
1446040142783948047,371,1446040142780944108,robocape,4.41539311558,5.46653441479,31.8593715852,0.0,10.0,0.0,0.0,0.0,10.0,0.0,0.0,0.0,10.0,0.00506000607115,0.0207726565026,0.00732369299772,1.0,0.0,0.0,0.0,1.0,0.0,0.0,0.0,1.0,-0.0107775878906,0.0119750976563,10.0734521484,0.1,0.0,0.0,0.0,0.1,0.0,0.0,0.0,0.1
1446040142817968631,372,1446040142814431905,robocape,4.40790371999,5.49402039767,31.7896577692,0.0,10.0,0.0,0.0,0.0,10.0,0.0,0.0,0.0,10.0,0.0034621094171,0.0207726565026,0.00692421883421,1.0,0.0,0.0,0.0,1.0,0.0,0.0,0.0,1.0,-0.0299377441406,-0.0155676269531,10.0662670898,0.1,0.0,0.0,0.0,0.1,0.0,0.0,0.0,0.1
1446040142850897214,373,1446040142847626924,robocape,4.40349843276,5.52194675596,31.7202887266,0.0,10.0,0.0,0.0,0.0,10.0,0.0,0.0,0.0,10.0,0.00506000607115,0.0210389726116,0.00692421883421,1.0,0.0,0.0,0.0,1.0,0.0,0.0,0.0,1.0,-0.0311352539063,-0.0335302734375,10.0578845215,0.1,0.0,0.0,0.0,0.1,0.0,0.0,0.0,0.1
1446040142884083631,374,1446040142881052017,robocape,4.40354203876,5.55045613961,31.6524460589,0.0,10.0,0.0,0.0,0.0,10.0,0.0,0.0,0.0,10.0,0.00732369299772,0.0214384467751,0.00759000910673,1.0,0.0,0.0,0.0,1.0,0.0,0.0,0.0,1.0,-0.01916015625,-0.0239501953125,10.0578845215,0.1,0.0,0.0,0.0,0.1,0.0,0.0,0.0,0.1
1446040142917995381,375,1446040142914454936,robocape,4.40633261525,5.57947226501,31.584235177,0.0,10.0,0.0,0.0,0.0,10.0,0.0,0.0,0.0,10.0,0.00878843159726,0.0217047628841,0.00719053494321,1.0,0.0,0.0,0.0,1.0,0.0,0.0,0.0,1.0,-0.0179626464844,-0.00838256835938,10.0518969727,0.1,0.0,0.0,0.0,0.1,0.0,0.0,0.0,0.1
1446040142951128422,376,1446040142947654962,robocape,4.40706372661,5.60746036467,31.5158290738,0.0,10.0,0.0,0.0,0.0,10.0,0.0,0.0,0.0,10.0,0.00772316716123,0.0211721306661,0.00692421883421,1.0,0.0,0.0,0.0,1.0,0.0,0.0,0.0,1.0,-0.0227526855469,0.00119750976563,10.0734521484,0.1,0.0,0.0,0.0,0.1,0.0,0.0,0.0,0.1
1446040142984192381,377,1446040142980969905,robocape,4.40403581344,5.63536669523,31.4480070083,0.0,10.0,0.0,0.0,0.0,10.0,0.0,0.0,0.0,10.0,0.00572579634367,0.0211721306661,0.00705737688871,1.0,0.0,0.0,0.0,1.0,0.0,0.0,0.0,1.0,-0.0299377441406,-0.00598754882813,10.0710571289,0.1,0.0,0.0,0.0,0.1,0.0,0.0,0.0,0.1
1446040143017765173,378,1446040143014455080,robocape,4.39652005062,5.66316835574,31.3810041739,0.0,10.0,0.0,0.0,0.0,10.0,0.0,0.0,0.0,10.0,0.0033289513626,0.0211721306661,0.00732369299772,1.0,0.0,0.0,0.0,1.0,0.0,0.0,0.0,1.0,-0.0251477050781,0.0119750976563,10.0650695801,0.1,0.0,0.0,0.0,0.1,0.0,0.0,0.0,0.1
1446040143051292464,379,1446040143047857999,robocape,4.39075559631,5.69147666786,31.3136278665,0.0,10.0,0.0,0.0,0.0,10.0,0.0,0.0,0.0,10.0,0.00426105774413,0.0214384467751,0.00692421883421,1.0,0.0,0.0,0.0,1.0,0.0,0.0,0.0,1.0,-0.028740234375,-0.0167651367188,10.039921875,0.1,0.0,0.0,0.0,0.1,0.0,0.0,0.0,0.1
1446040143091480464,380,1446040143087619066,robocape,4.38753678143,5.71923764809,31.246283595,0.0,10.0,0.0,0.0,0.0,10.0,0.0,0.0,0.0,10.0,0.00559263828917,0.0211721306661,0.0067910607797,1.0,0.0,0.0,0.0,1.0,0.0,0.0,0.0,1.0,-0.0263452148438,-0.0215551757813,10.0207617188,0.1,0.0,0.0,0.0,0.1,0.0,0.0,0.0,0.1
1446040143117846839,381,1446040143114572048,robocape,4.38960338552,5.74725414417,31.1785292345,0.0,10.0,0.0,0.0,0.0,10.0,0.0,0.0,0.0,10.0,0.00838895743375,0.0213052887206,0.00639158661619,1.0,0.0,0.0,0.0,1.0,0.0,0.0,0.0,1.0,-0.0371228027344,-0.0203576660156,10.0315393066,0.1,0.0,0.0,0.0,0.1,0.0,0.0,0.0,0.1
1446040143150958964,382,1446040143147802114,robocape,4.39177538191,5.77537571573,31.1120509115,0.0,10.0,0.0,0.0,0.0,10.0,0.0,0.0,0.0,10.0,0.00838895743375,0.0214384467751,0.00692421883421,1.0,0.0,0.0,0.0,1.0,0.0,0.0,0.0,1.0,-0.0311352539063,-0.0119750976563,10.0662670898,0.1,0.0,0.0,0.0,0.1,0.0,0.0,0.0,0.1
1446040143184400339,383,1446040143181211948,robocape,4.39096157675,5.80213284555,31.0462957291,0.0,10.0,0.0,0.0,0.0,10.0,0.0,0.0,0.0,10.0,0.0067910607797,0.0207726565026,0.00719053494321,1.0,0.0,0.0,0.0,1.0,0.0,0.0,0.0,1.0,-0.0311352539063,-0.0143701171875,10.0387243652,0.1,0.0,0.0,0.0,0.1,0.0,0.0,0.0,0.1
1446040143217840923,384,1446040143214629888,robocape,4.38607925207,5.83039217594,30.9804913268,0.0,10.0,0.0,0.0,0.0,10.0,0.0,0.0,0.0,10.0,0.00466053190764,0.0215716048296,0.00692421883421,1.0,0.0,0.0,0.0,1.0,0.0,0.0,0.0,1.0,-0.0239501953125,-0.00239501953125,10.0267492676,0.1,0.0,0.0,0.0,0.1,0.0,0.0,0.0,0.1
1446040143250929464,385,1446040143247859001,robocape,4.37920192468,5.85833736324,30.9149859886,0.0,10.0,0.0,0.0,0.0,10.0,0.0,0.0,0.0,10.0,0.00359526747161,0.0214384467751,0.00692421883421,1.0,0.0,0.0,0.0,1.0,0.0,0.0,0.0,1.0,-0.0239501953125,-0.0131726074219,10.0435144043,0.1,0.0,0.0,0.0,0.1,0.0,0.0,0.0,0.1
1446040143284277381,386,1446040143281074047,robocape,4.37436381909,5.88548456247,30.8494854364,0.0,10.0,0.0,0.0,0.0,10.0,0.0,0.0,0.0,10.0,0.00466053190764,0.0210389726116,0.0067910607797,1.0,0.0,0.0,0.0,1.0,0.0,0.0,0.0,1.0,-0.0323327636719,-0.0227526855469,10.0459094238,0.1,0.0,0.0,0.0,0.1,0.0,0.0,0.0,0.1
1446040143317898173,387,1446040143314448118,robocape,4.37213823527,5.91252776026,30.7847422037,0.0,10.0,0.0,0.0,0.0,10.0,0.0,0.0,0.0,10.0,0.00599211245268,0.0210389726116,0.00705737688871,1.0,0.0,0.0,0.0,1.0,0.0,0.0,0.0,1.0,-0.01916015625,-0.028740234375,10.0435144043,0.1,0.0,0.0,0.0,0.1,0.0,0.0,0.0,0.1
1446040143350890589,388,1446040143347839117,robocape,4.37245231938,5.94003883795,30.7200745849,0.0,10.0,0.0,0.0,0.0,10.0,0.0,0.0,0.0,10.0,0.00732369299772,0.0213052887206,0.00692421883421,1.0,0.0,0.0,0.0,1.0,0.0,0.0,0.0,1.0,-0.0203576660156,-0.0167651367188,10.0471069336,0.1,0.0,0.0,0.0,0.1,0.0,0.0,0.0,0.1
