%time,field.header.seq,field.header.stamp,field.header.frame_id,field.orientation.x,field.orientation.y,field.orientation.z,field.orientation.w,field.orientation_covariance0,field.orientation_covariance1,field.orientation_covariance2,field.orientation_covariance3,field.orientation_covariance4,field.orientation_covariance5,field.orientation_covariance6,field.orientation_covariance7,field.orientation_covariance8,field.angular_velocity.x,field.angular_velocity.y,field.angular_velocity.z,field.angular_velocity_covariance0,field.angular_velocity_covariance1,field.angular_velocity_covariance2,field.angular_velocity_covariance3,field.angular_velocity_covariance4,field.angular_velocity_covariance5,field.angular_velocity_covariance6,field.angular_velocity_covariance7,field.angular_velocity_covariance8,field.linear_acceleration.x,field.linear_acceleration.y,field.linear_acceleration.z,field.linear_acceleration_covariance0,field.linear_acceleration_covariance1,field.linear_acceleration_covariance2,field.linear_acceleration_covariance3,field.linear_acceleration_covariance4,field.linear_acceleration_covariance5,field.linear_acceleration_covariance6,field.linear_acceleration_covariance7,field.linear_acceleration_covariance8
1446035580423771122,1,1446035580422040939,robocape,13.9840480292,6.88376700242,115.94752387,0.0,10.0,0.0,0.0,0.0,10.0,0.0,0.0,0.0,10.0,0.00572579634367,0.0256995045193,0.00705737688871,1.0,0.0,0.0,0.0,1.0,0.0,0.0,0.0,1.0,0.0371228027344,-0.270637207031,10.1141674805,0.1,0.0,0.0,0.0,0.1,0.0,0.0,0.0,0.1
1446035580455731872,2,1446035580453912973,robocape,13.9963344887,6.92220543366,115.971869025,0.0,10.0,0.0,0.0,0.0,10.0,0.0,0.0,0.0,10.0,0.00479368996214,0.0255663464648,0.0066579027252,1.0,0.0,0.0,0.0,1.0,0.0,0.0,0.0,1.0,0.0323327636719,-0.253872070313,10.1201550293,0.1,0.0,0.0,0.0,0.1,0.0,0.0,0.0,0.1
1446035580489440164,3,1446035580487533092,robocape,14.0090803614,6.95916173844,115.997657987,0.0,10.0,0.0,0.0,0.0,10.0,0.0,0.0,0.0,10.0,0.00492684801665,0.0249005561922,0.00759000910673,1.0,0.0,0.0,0.0,1.0,0.0,0.0,0.0,1.0,0.0490979003906,-0.267044677734,10.1141674805,0.1,0.0,0.0,0.0,0.1,0.0,0.0,0.0,0.1
1446035580522808289,4,1446035580521034955,robocape,14.0215767919,6.9983761345,116.023333616,0.0,10.0,0.0,0.0,0.0,10.0,0.0,0.0,0.0,10.0,0.00479368996214,0.0262321367373,0.00719053494321,1.0,0.0,0.0,0.0,1.0,0.0,0.0,0.0,1.0,0.047900390625,-0.263452148438,10.1273400879,0.1,0.0,0.0,0.0,0.1,0.0,0.0,0.0,0.1
1446035580555963289,5,1446035580554280042,robocape,14.0353828009,7.0370684408,116.04914689,0.0,10.0,0.0,0.0,0.0,10.0,0.0,0.0,0.0,10.0,0.00545948023466,0.0259658206283,0.00732369299772,1.0,0.0,0.0,0.0,1.0,0.0,0.0,0.0,1.0,0.0419128417969,-0.269439697266,10.1381176758,0.1,0.0,0.0,0.0,0.1,0.0,0.0,0.0,0.1
1446035580589853247,6,1446035580588016986,robocape,14.0509415833,7.07534600707,116.074600996,0.0,10.0,0.0,0.0,0.0,10.0,0.0,0.0,0.0,10.0,0.00639158661619,0.0256995045193,0.00719053494321,1.0,0.0,0.0,0.0,1.0,0.0,0.0,0.0,1.0,0.047900390625,-0.263452148438,10.1237475586,0.1,0.0,0.0,0.0,0.1,0.0,0.0,0.0,0.1
1446035580622938622,7,1446035580621120929,robocape,14.0653736815,7.1131562629,116.101002632,0.0,10.0,0.0,0.0,0.0,10.0,0.0,0.0,0.0,10.0,0.00572579634367,0.0255663464648,0.00772316716123,1.0,0.0,0.0,0.0,1.0,0.0,0.0,0.0,1.0,0.0383203125,-0.245489501953,10.1213525391,0.1,0.0,0.0,0.0,0.1,0.0,0.0,0.0,0.1
1446035580655849122,8,1446035580654109001,robocape,14.0788514865,7.15018157314,116.127728331,0.0,10.0,0.0,0.0,0.0,10.0,0.0,0.0,0.0,10.0,0.00519316412565,0.0251668723012,0.00798948327024,1.0,0.0,0.0,0.0,1.0,0.0,0.0,0.0,1.0,0.0586779785156,-0.251477050781,10.1381176758,0.1,0.0,0.0,0.0,0.1,0.0,0.0,0.0,0.1
1446035580689511164,9,1446035580687664031,robocape,14.0919965544,7.18732835782,116.153720064,0.0,10.0,0.0,0.0,0.0,10.0,0.0,0.0,0.0,10.0,0.00506000607115,0.0251668723012,0.00759000910673,1.0,0.0,0.0,0.0,1.0,0.0,0.0,0.0,1.0,0.0431103515625,-0.261057128906,10.136920166,0.1,0.0,0.0,0.0,0.1,0.0,0.0,0.0,0.1
1446035580720756747,10,1446035580718935966,robocape,14.1040787542,7.22544608756,116.179227355,0.0,10.0,0.0,0.0,0.0,10.0,0.0,0.0,0.0,10.0,0.00452737385313,0.0256995045193,0.00719053494321,1.0,0.0,0.0,0.0,1.0,0.0,0.0,0.0,1.0,0.0443078613281,-0.261057128906,10.1261425781,0.1,0.0,0.0,0.0,0.1,0.0,0.0,0.0,0.1
1446035580754322497,11,1446035580752387046,robocape,14.1179453382,7.26309933505,116.204622274,0.0,10.0,0.0,0.0,0.0,10.0,0.0,0.0,0.0,10.0,0.00545948023466,0.0254331884103,0.00719053494321,1.0,0.0,0.0,0.0,1.0,0.0,0.0,0.0,1.0,0.0323327636719,-0.267044677734,10.0985998535,0.1,0.0,0.0,0.0,0.1,0.0,0.0,0.0,0.1
1446035580787886414,12,1446035580786072969,robocape,14.132239469,7.29997173766,116.229282207,0.0,10.0,0.0,0.0,0.0,10.0,0.0,0.0,0.0,10.0,0.00572579634367,0.0249005561922,0.00692421883421,1.0,0.0,0.0,0.0,1.0,0.0,0.0,0.0,1.0,0.0323327636719,-0.24908203125,10.1333276367,0.1,0.0,0.0,0.0,0.1,0.0,0.0,0.0,0.1
1446035580820553997,13,1446035580818742990,robocape,14.146045062,7.33680583956,116.253955302,0.0,10.0,0.0,0.0,0.0,10.0,0.0,0.0,0.0,10.0,0.00545948023466,0.0249005561922,0.00692421883421,1.0,0.0,0.0,0.0,1.0,0.0,0.0,0.0,1.0,0.0335302734375,-0.253872070313,10.1345251465,0.1,0.0,0.0,0.0,0.1,0.0,0.0,0.0,0.1
1446035580853247914,14,1446035580851301908,robocape,14.157728094,7.37449969562,116.279701397,0.0,10.0,0.0,0.0,0.0,10.0,0.0,0.0,0.0,10.0,0.00426105774413,0.0255663464648,0.00732369299772,1.0,0.0,0.0,0.0,1.0,0.0,0.0,0.0,1.0,0.0407153320313,-0.259859619141,10.1357226563,0.1,0.0,0.0,0.0,0.1,0.0,0.0,0.0,0.1
1446035580886857581,15,1446035580885083913,robocape,14.1691260127,7.41178510062,116.305084517,0.0,10.0,0.0,0.0,0.0,10.0,0.0,0.0,0.0,10.0,0.00412789968962,0.0253000303558,0.00719053494321,1.0,0.0,0.0,0.0,1.0,0.0,0.0,0.0,1.0,0.0419128417969,-0.263452148438,10.1057849121,0.1,0.0,0.0,0.0,0.1,0.0,0.0,0.0,0.1
1446035580920110914,16,1446035580918339014,robocape,14.1820100781,7.44934961105,116.330044561,0.0,10.0,0.0,0.0,0.0,10.0,0.0,0.0,0.0,10.0,0.00492684801665,0.0254331884103,0.00692421883421,1.0,0.0,0.0,0.0,1.0,0.0,0.0,0.0,1.0,0.0443078613281,-0.263452148438,10.1153649902,0.1,0.0,0.0,0.0,0.1,0.0,0.0,0.0,0.1
1446035580952942414,17,1446035580951173067,robocape,14.196579511,7.48576422278,116.356011059,0.0,10.0,0.0,0.0,0.0,10.0,0.0,0.0,0.0,10.0,0.00572579634367,0.0249005561922,0.00759000910673,1.0,0.0,0.0,0.0,1.0,0.0,0.0,0.0,1.0,0.0311352539063,-0.259859619141,10.1345251465,0.1,0.0,0.0,0.0,0.1,0.0,0.0,0.0,0.1
1446035580986679831,18,1446035580984935045,robocape,14.2114249624,7.5230366804,116.381994456,0.0,10.0,0.0,0.0,0.0,10.0,0.0,0.0,0.0,10.0,0.00585895439817,0.0254331884103,0.00745685105222,1.0,0.0,0.0,0.0,1.0,0.0,0.0,0.0,1.0,0.0323327636719,-0.250279541016,10.1129699707,0.1,0.0,0.0,0.0,0.1,0.0,0.0,0.0,0.1
1446035581019263873,19,1446035581017524003,robocape,14.2246604007,7.5604295265,116.407244387,0.0,10.0,0.0,0.0,0.0,10.0,0.0,0.0,0.0,10.0,0.00506000607115,0.0254331884103,0.00705737688871,1.0,0.0,0.0,0.0,1.0,0.0,0.0,0.0,1.0,0.0383203125,-0.262254638672,10.1153649902,0.1,0.0,0.0,0.0,0.1,0.0,0.0,0.0,0.1
1446035581052728373,20,1446035581050978899,robocape,14.2383734469,7.59920447853,116.43213939,0.0,10.0,0.0,0.0,0.0,10.0,0.0,0.0,0.0,10.0,0.00532632218016,0.0262321367373,0.0066579027252,1.0,0.0,0.0,0.0,1.0,0.0,0.0,0.0,1.0,0.0395178222656,-0.253872070313,10.1165625,0.1,0.0,0.0,0.0,0.1,0.0,0.0,0.0,0.1
1446035581086449581,21,1446035581084743022,robocape,14.2530929121,7.63693357516,116.458602261,0.0,10.0,0.0,0.0,0.0,10.0,0.0,0.0,0.0,10.0,0.00572579634367,0.0258326625738,0.00759000910673,1.0,0.0,0.0,0.0,1.0,0.0,0.0,0.0,1.0,0.0395178222656,-0.259859619141,10.1189575195,0.1,0.0,0.0,0.0,0.1,0.0,0.0,0.0,0.1
1446035581119450206,22,1446035581117692947,robocape,14.2670974912,7.6734659078,116.485260878,0.0,10.0,0.0,0.0,0.0,10.0,0.0,0.0,0.0,10.0,0.00532632218016,0.0251668723012,0.00785632521573,1.0,0.0,0.0,0.0,1.0,0.0,0.0,0.0,1.0,0.0323327636719,-0.258662109375,10.1213525391,0.1,0.0,0.0,0.0,0.1,0.0,0.0,0.0,0.1
1446035581152582539,23,1446035581150847911,robocape,14.2811170509,7.71012337124,116.510126111,0.0,10.0,0.0,0.0,0.0,10.0,0.0,0.0,0.0,10.0,0.00545948023466,0.0250337142467,0.00692421883421,1.0,0.0,0.0,0.0,1.0,0.0,0.0,0.0,1.0,0.0359252929688,-0.252674560547,10.1105749512,0.1,0.0,0.0,0.0,0.1,0.0,0.0,0.0,0.1
1446035581186049998,24,1446035581184338092,robocape,14.2929051764,7.74758052707,116.535257644,0.0,10.0,0.0,0.0,0.0,10.0,0.0,0.0,0.0,10.0,0.00426105774413,0.0255663464648,0.00692421883421,1.0,0.0,0.0,0.0,1.0,0.0,0.0,0.0,1.0,0.0443078613281,-0.256267089844,10.1081799316,0.1,0.0,0.0,0.0,0.1,0.0,0.0,0.0,0.1
1446035581219310373,25,1446035581217592954,robocape,14.3051957944,7.78526090163,116.560215775,0.0,10.0,0.0,0.0,0.0,10.0,0.0,0.0,0.0,10.0,0.00452737385313,0.0256995045193,0.0067910607797,1.0,0.0,0.0,0.0,1.0,0.0,0.0,0.0,1.0,0.0407153320313,-0.2682421875,10.1225500488,0.1,0.0,0.0,0.0,0.1,0.0,0.0,0.0,0.1
1446035581252673831,26,1446035581250907897,robocape,14.3182337903,7.82295458417,116.58493756,0.0,10.0,0.0,0.0,0.0,10.0,0.0,0.0,0.0,10.0,0.00492684801665,0.0256995045193,0.0066579027252,1.0,0.0,0.0,0.0,1.0,0.0,0.0,0.0,1.0,0.0371228027344,-0.261057128906,10.1165625,0.1,0.0,0.0,0.0,0.1,0.0,0.0,0.0,0.1
1446035581286495081,27,1446035581284425020,robocape,14.333030687,7.86096757769,116.611109641,0.0,10.0,0.0,0.0,0.0,10.0,0.0,0.0,0.0,10.0,0.00572579634367,0.0260989786828,0.00732369299772,1.0,0.0,0.0,0.0,1.0,0.0,0.0,0.0,1.0,0.0443078613281,-0.259859619141,10.1345251465,0.1,0.0,0.0,0.0,0.1,0.0,0.0,0.0,0.1
1446035581319300789,28,1446035581317523956,robocape,14.3478690377,7.89935596882,116.637423913,0.0,10.0,0.0,0.0,0.0,10.0,0.0,0.0,0.0,10.0,0.00572579634367,0.0263652947918,0.00732369299772,1.0,0.0,0.0,0.0,1.0,0.0,0.0,0.0,1.0,0.0443078613281,-0.265847167969,10.1249450684,0.1,0.0,0.0,0.0,0.1,0.0,0.0,0.0,0.1
1446035581355206956,29,1446035581353415966,robocape,14.3626368048,7.93739164172,116.663127297,0.0,10.0,0.0,0.0,0.0,10.0,0.0,0.0,0.0,10.0,0.00572579634367,0.0260989786828,0.00705737688871,1.0,0.0,0.0,0.0,1.0,0.0,0.0,0.0,1.0,0.0359252929688,-0.238304443359,10.1225500488,0.1,0.0,0.0,0.0,0.1,0.0,0.0,0.0,0.1
1446035581386799414,30,1446035581384670019,robocape,14.3771216219,7.97376310232,116.690206442,0.0,10.0,0.0,0.0,0.0,10.0,0.0,0.0,0.0,10.0,0.00545948023466,0.0253000303558,0.00798948327024,1.0,0.0,0.0,0.0,1.0,0.0,0.0,0.0,1.0,0.0419128417969,-0.263452148438,10.1177600098,0.1,0.0,0.0,0.0,0.1,0.0,0.0,0.0,0.1
1446035581419439289,31,1446035581417651891,robocape,14.3912896246,8.00999435434,116.716737281,0.0,10.0,0.0,0.0,0.0,10.0,0.0,0.0,0.0,10.0,0.00532632218016,0.0251668723012,0.00772316716123,1.0,0.0,0.0,0.0,1.0,0.0,0.0,0.0,1.0,0.0323327636719,-0.255069580078,10.1333276367,0.1,0.0,0.0,0.0,0.1,0.0,0.0,0.0,0.1
1446035581452582164,32,1446035581450841903,robocape,14.4050278702,8.04654937981,116.743658879,0.0,10.0,0.0,0.0,0.0,10.0,0.0,0.0,0.0,10.0,0.00506000607115,0.0254331884103,0.00785632521573,1.0,0.0,0.0,0.0,1.0,0.0,0.0,0.0,1.0,0.0263452148438,-0.285007324219,10.1081799316,0.1,0.0,0.0,0.0,0.1,0.0,0.0,0.0,0.1
1446035581486049373,33,1446035581484280109,robocape,14.418617155,8.08286357631,116.769469124,0.0,10.0,0.0,0.0,0.0,10.0,0.0,0.0,0.0,10.0,0.00506000607115,0.0251668723012,0.00732369299772,1.0,0.0,0.0,0.0,1.0,0.0,0.0,0.0,1.0,0.0490979003906,-0.2682421875,10.1189575195,0.1,0.0,0.0,0.0,0.1,0.0,0.0,0.0,0.1
1446035581519830581,34,1446035581517947912,robocape,14.4320409661,8.11970816185,116.795734204,0.0,10.0,0.0,0.0,0.0,10.0,0.0,0.0,0.0,10.0,0.00492684801665,0.0255663464648,0.00745685105222,1.0,0.0,0.0,0.0,1.0,0.0,0.0,0.0,1.0,0.0431103515625,-0.263452148438,10.1033898926,0.1,0.0,0.0,0.0,0.1,0.0,0.0,0.0,0.1
1446035581553129164,35,1446035581551261901,robocape,14.4459422427,8.15645365184,116.823323306,0.0,10.0,0.0,0.0,0.0,10.0,0.0,0.0,0.0,10.0,0.00506000607115,0.0256995045193,0.00812264132474,1.0,0.0,0.0,0.0,1.0,0.0,0.0,0.0,1.0,0.0467028808594,-0.255069580078,10.0997973633,0.1,0.0,0.0,0.0,0.1,0.0,0.0,0.0,0.1
1446035581586010498,36,1446035581584233045,robocape,14.4584025247,8.19342634049,116.849679601,0.0,10.0,0.0,0.0,0.0,10.0,0.0,0.0,0.0,10.0,0.00439421579863,0.0256995045193,0.00745685105222,1.0,0.0,0.0,0.0,1.0,0.0,0.0,0.0,1.0,0.0323327636719,-0.253872070313,10.1345251465,0.1,0.0,0.0,0.0,0.1,0.0,0.0,0.0,0.1
1446035581619353331,37,1446035581617546081,robocape,14.4733097557,8.23061258755,116.876926119,0.0,10.0,0.0,0.0,0.0,10.0,0.0,0.0,0.0,10.0,0.00559263828917,0.0259658206283,0.00785632521573,1.0,0.0,0.0,0.0,1.0,0.0,0.0,0.0,1.0,0.0395178222656,-0.269439697266,10.1261425781,0.1,0.0,0.0,0.0,0.1,0.0,0.0,0.0,0.1
1446035581652671831,38,1446035581650993108,robocape,14.4883445848,8.26553914361,116.90323011,0.0,10.0,0.0,0.0,0.0,10.0,0.0,0.0,0.0,10.0,0.00572579634367,0.0245010820287,0.00772316716123,1.0,0.0,0.0,0.0,1.0,0.0,0.0,0.0,1.0,0.0395178222656,-0.253872070313,10.1057849121,0.1,0.0,0.0,0.0,0.1,0.0,0.0,0.0,0.1
1446035581686391290,39,1446035581684571981,robocape,14.5046175423,8.30270552436,116.929196116,0.0,10.0,0.0,0.0,0.0,10.0,0.0,0.0,0.0,10.0,0.00639158661619,0.0258326625738,0.00719053494321,1.0,0.0,0.0,0.0,1.0,0.0,0.0,0.0,1.0,0.0383203125,-0.262254638672,10.0794396973,0.1,0.0,0.0,0.0,0.1,0.0,0.0,0.0,0.1
1446035581719463915,40,1446035581717645883,robocape,14.520353137,8.33880001528,116.954855146,0.0,10.0,0.0,0.0,0.0,10.0,0.0,0.0,0.0,10.0,0.00612527050718,0.0251668723012,0.00719053494321,1.0,0.0,0.0,0.0,1.0,0.0,0.0,0.0,1.0,0.0263452148438,-0.251477050781,10.1105749512,0.1,0.0,0.0,0.0,0.1,0.0,0.0,0.0,0.1
1446035581753118123,41,1446035581751126050,robocape,14.534135482,8.37521424976,116.98090704,0.0,10.0,0.0,0.0,0.0,10.0,0.0,0.0,0.0,10.0,0.00506000607115,0.0254331884103,0.00732369299772,1.0,0.0,0.0,0.0,1.0,0.0,0.0,0.0,1.0,0.0395178222656,-0.243094482422,10.1417102051,0.1,0.0,0.0,0.0,0.1,0.0,0.0,0.0,0.1
1446035581786494123,42,1446035581784583091,robocape,14.5461506448,8.41226022693,117.00691673,0.0,10.0,0.0,0.0,0.0,10.0,0.0,0.0,0.0,10.0,0.00412789968962,0.0258326625738,0.00719053494321,1.0,0.0,0.0,0.0,1.0,0.0,0.0,0.0,1.0,0.0347277832031,-0.250279541016,10.1129699707,0.1,0.0,0.0,0.0,0.1,0.0,0.0,0.0,0.1
1446035581819706873,43,1446035581817542076,robocape,14.5590994224,8.44884743094,117.033872095,0.0,10.0,0.0,0.0,0.0,10.0,0.0,0.0,0.0,10.0,0.00452737385313,0.0256995045193,0.00772316716123,1.0,0.0,0.0,0.0,1.0,0.0,0.0,0.0,1.0,0.0443078613281,-0.265847167969,10.1141674805,0.1,0.0,0.0,0.0,0.1,0.0,0.0,0.0,0.1
1446035581852642206,44,1446035581850785017,robocape,14.573272829,8.48570701277,117.060407382,0.0,10.0,0.0,0.0,0.0,10.0,0.0,0.0,0.0,10.0,0.00519316412565,0.0258326625738,0.00745685105222,1.0,0.0,0.0,0.0,1.0,0.0,0.0,0.0,1.0,0.0419128417969,-0.263452148438,10.132130127,0.1,0.0,0.0,0.0,0.1,0.0,0.0,0.0,0.1
1446035581886098123,45,1446035581884316921,robocape,14.5887805593,8.52247264181,117.087206969,0.0,10.0,0.0,0.0,0.0,10.0,0.0,0.0,0.0,10.0,0.00585895439817,0.0258326625738,0.00759000910673,1.0,0.0,0.0,0.0,1.0,0.0,0.0,0.0,1.0,0.0371228027344,-0.258662109375,10.1261425781,0.1,0.0,0.0,0.0,0.1,0.0,0.0,0.0,0.1
1446035581919409956,46,1446035581917655944,robocape,14.6039338181,8.55848469444,117.113263285,0.0,10.0,0.0,0.0,0.0,10.0,0.0,0.0,0.0,10.0,0.00572579634367,0.0253000303558,0.00732369299772,1.0,0.0,0.0,0.0,1.0,0.0,0.0,0.0,1.0,0.0347277832031,-0.251477050781,10.1237475586,0.1,0.0,0.0,0.0,0.1,0.0,0.0,0.0,0.1
1446035581952671040,47,1446035581950912952,robocape,14.6190171668,8.5943596676,117.138770555,0.0,10.0,0.0,0.0,0.0,10.0,0.0,0.0,0.0,10.0,0.00572579634367,0.0251668723012,0.00705737688871,1.0,0.0,0.0,0.0,1.0,0.0,0.0,0.0,1.0,0.0455053710938,-0.240699462891,10.1033898926,0.1,0.0,0.0,0.0,0.1,0.0,0.0,0.0,0.1
1446035581986336623,48,1446035581984546899,robocape,14.6330365516,8.63126287619,117.165430954,0.0,10.0,0.0,0.0,0.0,10.0,0.0,0.0,0.0,10.0,0.00506000607115,0.0259658206283,0.00745685105222,1.0,0.0,0.0,0.0,1.0,0.0,0.0,0.0,1.0,0.0371228027344,-0.251477050781,10.1045874023,0.1,0.0,0.0,0.0,0.1,0.0,0.0,0.0,0.1
1446035582021159165,49,1446035582018955945,robocape,14.6477208808,8.66816953905,117.192919531,0.0,10.0,0.0,0.0,0.0,10.0,0.0,0.0,0.0,10.0,0.00532632218016,0.0260989786828,0.00785632521573,1.0,0.0,0.0,0.0,1.0,0.0,0.0,0.0,1.0,0.0347277832031,-0.259859619141,10.100994873,0.1,0.0,0.0,0.0,0.1,0.0,0.0,0.0,0.1
1446035582053015456,50,1446035582051136016,robocape,14.662964475,8.70489370116,117.219045683,0.0,10.0,0.0,0.0,0.0,10.0,0.0,0.0,0.0,10.0,0.00572579634367,0.0258326625738,0.00719053494321,1.0,0.0,0.0,0.0,1.0,0.0,0.0,0.0,1.0,0.028740234375,-0.252674560547,10.1045874023,0.1,0.0,0.0,0.0,0.1,0.0,0.0,0.0,0.1
1446035582087665331,51,1446035582085879087,robocape,14.6768936092,8.74035424043,117.244794741,0.0,10.0,0.0,0.0,0.0,10.0,0.0,0.0,0.0,10.0,0.00506000607115,0.0250337142467,0.00719053494321,1.0,0.0,0.0,0.0,1.0,0.0,0.0,0.0,1.0,0.0419128417969,-0.247884521484,10.1333276367,0.1,0.0,0.0,0.0,0.1,0.0,0.0,0.0,0.1
1446035582121602248,52,1446035582119385004,robocape,14.6902666182,8.77510288867,117.271674013,0.0,10.0,0.0,0.0,0.0,10.0,0.0,0.0,0.0,10.0,0.00466053190764,0.0247673981377,0.00785632521573,1.0,0.0,0.0,0.0,1.0,0.0,0.0,0.0,1.0,0.0251477050781,-0.251477050781,10.1093774414,0.1,0.0,0.0,0.0,0.1,0.0,0.0,0.0,0.1
1446035582154232873,53,1446035582152427911,robocape,14.7014075679,8.81129299536,117.298774339,0.0,10.0,0.0,0.0,0.0,10.0,0.0,0.0,0.0,10.0,0.0034621094171,0.0256995045193,0.00772316716123,1.0,0.0,0.0,0.0,1.0,0.0,0.0,0.0,1.0,0.0335302734375,-0.264649658203,10.1417102051,0.1,0.0,0.0,0.0,0.1,0.0,0.0,0.0,0.1
1446035582188766040,54,1446035582186760902,robocape,14.7143907833,8.84652451892,117.326124525,0.0,10.0,0.0,0.0,0.0,10.0,0.0,0.0,0.0,10.0,0.00439421579863,0.0251668723012,0.00798948327024,1.0,0.0,0.0,0.0,1.0,0.0,0.0,0.0,1.0,0.0311352539063,-0.273032226563,10.1177600098,0.1,0.0,0.0,0.0,0.1,0.0,0.0,0.0,0.1
1446035582220778831,55,1446035582218825101,robocape,14.729242863,8.88239107625,117.352372167,0.0,10.0,0.0,0.0,0.0,10.0,0.0,0.0,0.0,10.0,0.00545948023466,0.0254331884103,0.00732369299772,1.0,0.0,0.0,0.0,1.0,0.0,0.0,0.0,1.0,0.0443078613281,-0.267044677734,10.1273400879,0.1,0.0,0.0,0.0,0.1,0.0,0.0,0.0,0.1
1446035582257084748,56,1446035582254196882,robocape,14.7457498842,8.91851709323,117.379265679,0.0,10.0,0.0,0.0,0.0,10.0,0.0,0.0,0.0,10.0,0.00625842856169,0.0256995045193,0.00759000910673,1.0,0.0,0.0,0.0,1.0,0.0,0.0,0.0,1.0,0.0467028808594,-0.252674560547,10.1129699707,0.1,0.0,0.0,0.0,0.1,0.0,0.0,0.0,0.1
1446035582288425873,57,1446035582286410093,robocape,14.7616551973,8.95496544094,117.405492339,0.0,10.0,0.0,0.0,0.0,10.0,0.0,0.0,0.0,10.0,0.00599211245268,0.0258326625738,0.00719053494321,1.0,0.0,0.0,0.0,1.0,0.0,0.0,0.0,1.0,0.0335302734375,-0.257464599609,10.1165625,0.1,0.0,0.0,0.0,0.1,0.0,0.0,0.0,0.1
1446035582323910748,58,1446035582318500995,robocape,14.7761599149,8.98994513742,117.432337879,0.0,10.0,0.0,0.0,0.0,10.0,0.0,0.0,0.0,10.0,0.00519316412565,0.0250337142467,0.00772316716123,1.0,0.0,0.0,0.0,1.0,0.0,0.0,0.0,1.0,0.0371228027344,-0.244291992188,10.1093774414,0.1,0.0,0.0,0.0,0.1,0.0,0.0,0.0,0.1
1446035582361426165,59,1446035582359463930,robocape,14.7918691897,9.0261958181,117.460158601,0.0,10.0,0.0,0.0,0.0,10.0,0.0,0.0,0.0,10.0,0.00572579634367,0.0259658206283,0.00798948327024,1.0,0.0,0.0,0.0,1.0,0.0,0.0,0.0,1.0,0.0419128417969,-0.261057128906,10.1441052246,0.1,0.0,0.0,0.0,0.1,0.0,0.0,0.0,0.1
1446035582390547873,60,1446035582388603925,robocape,14.8065382455,9.06277951479,117.486247646,0.0,10.0,0.0,0.0,0.0,10.0,0.0,0.0,0.0,10.0,0.00532632218016,0.0259658206283,0.00705737688871,1.0,0.0,0.0,0.0,1.0,0.0,0.0,0.0,1.0,0.0251477050781,-0.256267089844,10.1500927734,0.1,0.0,0.0,0.0,0.1,0.0,0.0,0.0,0.1
1446035582425440457,61,1446035582421964883,robocape,14.8229691149,9.09819461024,117.513586126,0.0,10.0,0.0,0.0,0.0,10.0,0.0,0.0,0.0,10.0,0.00612527050718,0.0254331884103,0.00785632521573,1.0,0.0,0.0,0.0,1.0,0.0,0.0,0.0,1.0,0.0251477050781,-0.255069580078,10.1021923828,0.1,0.0,0.0,0.0,0.1,0.0,0.0,0.0,0.1
1446035582456782123,62,1446035582454406023,robocape,14.8375587225,9.13333939374,117.538994273,0.0,10.0,0.0,0.0,0.0,10.0,0.0,0.0,0.0,10.0,0.00532632218016,0.0250337142467,0.00692421883421,1.0,0.0,0.0,0.0,1.0,0.0,0.0,0.0,1.0,0.0455053710938,-0.252674560547,10.0974023437,0.1,0.0,0.0,0.0,0.1,0.0,0.0,0.0,0.1
1446035582489338873,63,1446035582487108945,robocape,14.8506203594,9.16804367791,117.564283921,0.0,10.0,0.0,0.0,0.0,10.0,0.0,0.0,0.0,10.0,0.00452737385313,0.0247673981377,0.00692421883421,1.0,0.0,0.0,0.0,1.0,0.0,0.0,0.0,1.0,0.0526904296875,-0.256267089844,10.1177600098,0.1,0.0,0.0,0.0,0.1,0.0,0.0,0.0,0.1
1446035582523999373,64,1446035582522181987,robocape,14.8643105382,9.20280571476,117.590152521,0.0,10.0,0.0,0.0,0.0,10.0,0.0,0.0,0.0,10.0,0.00479368996214,0.0249005561922,0.00719053494321,1.0,0.0,0.0,0.0,1.0,0.0,0.0,0.0,1.0,0.0323327636719,-0.255069580078,10.132130127,0.1,0.0,0.0,0.0,0.1,0.0,0.0,0.0,0.1
1446035582556935665,65,1446035582555160045,robocape,14.8789197965,9.23822782571,117.616799835,0.0,10.0,0.0,0.0,0.0,10.0,0.0,0.0,0.0,10.0,0.00519316412565,0.0254331884103,0.00745685105222,1.0,0.0,0.0,0.0,1.0,0.0,0.0,0.0,1.0,0.0455053710938,-0.261057128906,10.1297351074,0.1,0.0,0.0,0.0,0.1,0.0,0.0,0.0,0.1
1446035582590922665,66,1446035582588937997,robocape,14.8954082759,9.27330314502,117.643895713,0.0,10.0,0.0,0.0,0.0,10.0,0.0,0.0,0.0,10.0,0.00612527050718,0.0253000303558,0.00772316716123,1.0,0.0,0.0,0.0,1.0,0.0,0.0,0.0,1.0,0.0431103515625,-0.24908203125,10.1309326172,0.1,0.0,0.0,0.0,0.1,0.0,0.0,0.0,0.1
1446035582623115332,67,1446035582621232032,robocape,14.9123751995,9.30904793986,117.670707955,0.0,10.0,0.0,0.0,0.0,10.0,0.0,0.0,0.0,10.0,0.00639158661619,0.0256995045193,0.00745685105222,1.0,0.0,0.0,0.0,1.0,0.0,0.0,0.0,1.0,0.0371228027344,-0.251477050781,10.1249450684,0.1,0.0,0.0,0.0,0.1,0.0,0.0,0.0,0.1
1446035582657241123,68,1446035582655267000,robocape,14.9272265229,9.34380401777,117.696953745,0.0,10.0,0.0,0.0,0.0,10.0,0.0,0.0,0.0,10.0,0.00532632218016,0.0250337142467,0.00732369299772,1.0,0.0,0.0,0.0,1.0,0.0,0.0,0.0,1.0,0.0251477050781,-0.239501953125,10.1261425781,0.1,0.0,0.0,0.0,0.1,0.0,0.0,0.0,0.1
1446035582690942457,69,1446035582689095020,robocape,14.9401456878,9.37906992436,117.723663193,0.0,10.0,0.0,0.0,0.0,10.0,0.0,0.0,0.0,10.0,0.00426105774413,0.0254331884103,0.00745685105222,1.0,0.0,0.0,0.0,1.0,0.0,0.0,0.0,1.0,0.0335302734375,-0.271834716797,10.1033898926,0.1,0.0,0.0,0.0,0.1,0.0,0.0,0.0,0.1
1446035582723368582,70,1446035582721395015,robocape,14.9531112263,9.41469770203,117.75051963,0.0,10.0,0.0,0.0,0.0,10.0,0.0,0.0,0.0,10.0,0.00426105774413,0.0256995045193,0.00745685105222,1.0,0.0,0.0,0.0,1.0,0.0,0.0,0.0,1.0,0.0502954101563,-0.281414794922,10.1153649902,0.1,0.0,0.0,0.0,0.1,0.0,0.0,0.0,0.1
1446035582755453665,71,1446035582753448963,robocape,14.9677606449,9.45012608963,117.778139919,0.0,10.0,0.0,0.0,0.0,10.0,0.0,0.0,0.0,10.0,0.00506000607115,0.0256995045193,0.00785632521573,1.0,0.0,0.0,0.0,1.0,0.0,0.0,0.0,1.0,0.0443078613281,-0.259859619141,10.1117724609,0.1,0.0,0.0,0.0,0.1,0.0,0.0,0.0,0.1
1446035582789475498,72,1446035582787604093,robocape,14.9838324,9.48502283003,117.805075814,0.0,10.0,0.0,0.0,0.0,10.0,0.0,0.0,0.0,10.0,0.00585895439817,0.0253000303558,0.00759000910673,1.0,0.0,0.0,0.0,1.0,0.0,0.0,0.0,1.0,0.0359252929688,-0.259859619141,10.1165625,0.1,0.0,0.0,0.0,0.1,0.0,0.0,0.0,0.1
1446035582822550748,73,1446035582820704936,robocape,14.9986158801,9.52065356422,117.830412227,0.0,10.0,0.0,0.0,0.0,10.0,0.0,0.0,0.0,10.0,0.00532632218016,0.0255663464648,0.0066579027252,1.0,0.0,0.0,0.0,1.0,0.0,0.0,0.0,1.0,0.0455053710938,-0.250279541016,10.1153649902,0.1,0.0,0.0,0.0,0.1,0.0,0.0,0.0,0.1
1446035582855779915,74,1446035582854032993,robocape,15.0133283994,9.55648307225,117.856647231,0.0,10.0,0.0,0.0,0.0,10.0,0.0,0.0,0.0,10.0,0.00519316412565,0.0258326625738,0.00705737688871,1.0,0.0,0.0,0.0,1.0,0.0,0.0,0.0,1.0,0.0431103515625,-0.252674560547,10.1297351074,0.1,0.0,0.0,0.0,0.1,0.0,0.0,0.0,0.1
1446035582889176207,75,1446035582887432098,robocape,15.0268836279,9.59216598753,117.883396812,0.0,10.0,0.0,0.0,0.0,10.0,0.0,0.0,0.0,10.0,0.00452737385313,0.0258326625738,0.00732369299772,1.0,0.0,0.0,0.0,1.0,0.0,0.0,0.0,1.0,0.0275427246094,-0.258662109375,10.1213525391,0.1,0.0,0.0,0.0,0.1,0.0,0.0,0.0,0.1
1446035582922322123,76,1446035582920619964,robocape,15.0415711086,9.62770245146,117.910661046,0.0,10.0,0.0,0.0,0.0,10.0,0.0,0.0,0.0,10.0,0.00506000607115,0.0258326625738,0.00759000910673,1.0,0.0,0.0,0.0,1.0,0.0,0.0,0.0,1.0,0.0383203125,-0.274229736328,10.1225500488,0.1,0.0,0.0,0.0,0.1,0.0,0.0,0.0,0.1
1446035582955862332,77,1446035582954058885,robocape,15.0575998369,9.66314551524,117.938191074,0.0,10.0,0.0,0.0,0.0,10.0,0.0,0.0,0.0,10.0,0.00572579634367,0.0258326625738,0.00772316716123,1.0,0.0,0.0,0.0,1.0,0.0,0.0,0.0,1.0,0.0395178222656,-0.2682421875,10.1141674805,0.1,0.0,0.0,0.0,0.1,0.0,0.0,0.0,0.1
1446035582989212540,78,1446035582987349033,robocape,15.0738235228,9.69872375539,117.963920906,0.0,10.0,0.0,0.0,0.0,10.0,0.0,0.0,0.0,10.0,0.00599211245268,0.0256995045193,0.0067910607797,1.0,0.0,0.0,0.0,1.0,0.0,0.0,0.0,1.0,0.0490979003906,-0.269439697266,10.1201550293,0.1,0.0,0.0,0.0,0.1,0.0,0.0,0.0,0.1
1446035583021803373,79,1446035583020035982,robocape,15.0888786309,9.73395708035,117.990099225,0.0,10.0,0.0,0.0,0.0,10.0,0.0,0.0,0.0,10.0,0.00532632218016,0.0255663464648,0.00705737688871,1.0,0.0,0.0,0.0,1.0,0.0,0.0,0.0,1.0,0.0514929199219,-0.246687011719,10.1333276367,0.1,0.0,0.0,0.0,0.1,0.0,0.0,0.0,0.1
1446035583054377124,80,1446035583052423000,robocape,15.1031260755,9.76893772949,118.01729252,0.0,10.0,0.0,0.0,0.0,10.0,0.0,0.0,0.0,10.0,0.00479368996214,0.0255663464648,0.00759000910673,1.0,0.0,0.0,0.0,1.0,0.0,0.0,0.0,1.0,0.0467028808594,-0.258662109375,10.1261425781,0.1,0.0,0.0,0.0,0.1,0.0,0.0,0.0,0.1
1446035583087337415,81,1446035583085400104,robocape,15.1165698021,9.80289103927,118.044162884,0.0,10.0,0.0,0.0,0.0,10.0,0.0,0.0,0.0,10.0,0.00439421579863,0.0249005561922,0.00759000910673,1.0,0.0,0.0,0.0,1.0,0.0,0.0,0.0,1.0,0.0443078613281,-0.265847167969,10.1273400879,0.1,0.0,0.0,0.0,0.1,0.0,0.0,0.0,0.1
1446035583121111374,82,1446035583119334936,robocape,15.1334059132,9.83779506587,118.071386283,0.0,10.0,0.0,0.0,0.0,10.0,0.0,0.0,0.0,10.0,0.00612527050718,0.0255663464648,0.00759000910673,1.0,0.0,0.0,0.0,1.0,0.0,0.0,0.0,1.0,0.0502954101563,-0.273032226563,10.096204834,0.1,0.0,0.0,0.0,0.1,0.0,0.0,0.0,0.1
1446035583153899582,83,1446035583152121067,robocape,15.153778252,9.87348531884,118.099716376,0.0,10.0,0.0,0.0,0.0,10.0,0.0,0.0,0.0,10.0,0.00785632521573,0.0262321367373,0.00798948327024,1.0,0.0,0.0,0.0,1.0,0.0,0.0,0.0,1.0,0.0335302734375,-0.258662109375,10.1057849121,0.1,0.0,0.0,0.0,0.1,0.0,0.0,0.0,0.1
1446035583187221707,84,1446035583185298919,robocape,15.1714216315,9.90823787394,118.12829468,0.0,10.0,0.0,0.0,0.0,10.0,0.0,0.0,0.0,10.0,0.00639158661619,0.0256995045193,0.00825579937925,1.0,0.0,0.0,0.0,1.0,0.0,0.0,0.0,1.0,0.0514929199219,-0.253872070313,10.1237475586,0.1,0.0,0.0,0.0,0.1,0.0,0.0,0.0,0.1
1446035583219822582,85,1446035583218036890,robocape,15.1860359049,9.94217997804,118.155550182,0.0,10.0,0.0,0.0,0.0,10.0,0.0,0.0,0.0,10.0,0.00492684801665,0.0250337142467,0.00772316716123,1.0,0.0,0.0,0.0,1.0,0.0,0.0,0.0,1.0,0.0347277832031,-0.252674560547,10.1249450684,0.1,0.0,0.0,0.0,0.1,0.0,0.0,0.0,0.1
1446035583253719915,86,1446035583251965045,robocape,15.199620608,9.97633532749,118.182638065,0.0,10.0,0.0,0.0,0.0,10.0,0.0,0.0,0.0,10.0,0.00439421579863,0.0251668723012,0.00759000910673,1.0,0.0,0.0,0.0,1.0,0.0,0.0,0.0,1.0,0.0383203125,-0.273032226563,10.1069824219,0.1,0.0,0.0,0.0,0.1,0.0,0.0,0.0,0.1
1446035583286548874,87,1446035583284540891,robocape,15.215468686,10.0105065377,118.209490955,0.0,10.0,0.0,0.0,0.0,10.0,0.0,0.0,0.0,10.0,0.00559263828917,0.0251668723012,0.00745685105222,1.0,0.0,0.0,0.0,1.0,0.0,0.0,0.0,1.0,0.0395178222656,-0.273032226563,10.0938098145,0.1,0.0,0.0,0.0,0.1,0.0,0.0,0.0,0.1
1446035583327973207,88,1446035583318044900,robocape,15.230879086,10.044586387,118.236609723,0.0,10.0,0.0,0.0,0.0,10.0,0.0,0.0,0.0,10.0,0.00532632218016,0.0251668723012,0.00759000910673,1.0,0.0,0.0,0.0,1.0,0.0,0.0,0.0,1.0,0.0490979003906,-0.264649658203,10.100994873,0.1,0.0,0.0,0.0,0.1,0.0,0.0,0.0,0.1
1446035583353951290,89,1446035583352221965,robocape,15.2472591972,10.0791274401,118.263380576,0.0,10.0,0.0,0.0,0.0,10.0,0.0,0.0,0.0,10.0,0.00585895439817,0.0254331884103,0.00732369299772,1.0,0.0,0.0,0.0,1.0,0.0,0.0,0.0,1.0,0.0335302734375,-0.264649658203,10.1309326172,0.1,0.0,0.0,0.0,0.1,0.0,0.0,0.0,0.1
1446035583386151165,90,1446035583384252071,robocape,15.2630563286,10.1137365004,118.289667524,0.0,10.0,0.0,0.0,0.0,10.0,0.0,0.0,0.0,10.0,0.00559263828917,0.0254331884103,0.00705737688871,1.0,0.0,0.0,0.0,1.0,0.0,0.0,0.0,1.0,0.047900390625,-0.252674560547,10.1165625,0.1,0.0,0.0,0.0,0.1,0.0,0.0,0.0,0.1
1446035583419604582,91,1446035583417862892,robocape,15.276465953,10.1479511021,118.316651831,0.0,10.0,0.0,0.0,0.0,10.0,0.0,0.0,0.0,10.0,0.00426105774413,0.0253000303558,0.00745685105222,1.0,0.0,0.0,0.0,1.0,0.0,0.0,0.0,1.0,0.0407153320313,-0.262254638672,10.1081799316,0.1,0.0,0.0,0.0,0.1,0.0,0.0,0.0,0.1
1446035583452672790,92,1446035583450921058,robocape,15.2901217362,10.1832128259,118.343492012,0.0,10.0,0.0,0.0,0.0,10.0,0.0,0.0,0.0,10.0,0.00439421579863,0.0259658206283,0.00719053494321,1.0,0.0,0.0,0.0,1.0,0.0,0.0,0.0,1.0,0.0419128417969,-0.2682421875,10.096204834,0.1,0.0,0.0,0.0,0.1,0.0,0.0,0.0,0.1
1446035583486036415,93,1446035583484277009,robocape,15.3047910311,10.2180441693,118.370210599,0.0,10.0,0.0,0.0,0.0,10.0,0.0,0.0,0.0,10.0,0.00492684801665,0.0256995045193,0.00719053494321,1.0,0.0,0.0,0.0,1.0,0.0,0.0,0.0,1.0,0.0419128417969,-0.264649658203,10.1129699707,0.1,0.0,0.0,0.0,0.1,0.0,0.0,0.0,0.1
1446035583519286665,94,1446035583517534971,robocape,15.3209885995,10.2523738713,118.39812785,0.0,10.0,0.0,0.0,0.0,10.0,0.0,0.0,0.0,10.0,0.00559263828917,0.0255663464648,0.00785632521573,1.0,0.0,0.0,0.0,1.0,0.0,0.0,0.0,1.0,0.0251477050781,-0.24908203125,10.1381176758,0.1,0.0,0.0,0.0,0.1,0.0,0.0,0.0,0.1
1446035583552751499,95,1446035583550976991,robocape,15.3368838392,10.2871613728,118.425698412,0.0,10.0,0.0,0.0,0.0,10.0,0.0,0.0,0.0,10.0,0.00545948023466,0.0258326625738,0.00759000910673,1.0,0.0,0.0,0.0,1.0,0.0,0.0,0.0,1.0,0.0371228027344,-0.259859619141,10.1105749512,0.1,0.0,0.0,0.0,0.1,0.0,0.0,0.0,0.1
1446035583585958374,96,1446035583584217071,robocape,15.3450059075,10.3100404863,118.501031827,0.0,10.0,0.0,0.0,0.0,10.0,0.0,0.0,0.0,10.0,-0.00359526747161,0.0247673981377,0.033289513626,1.0,0.0,0.0,0.0,1.0,0.0,0.0,0.0,1.0,0.0419128417969,0.0754431152344,10.1177600098,0.1,0.0,0.0,0.0,0.1,0.0,0.0,0.0,0.1
1446035583619576540,97,1446035583617835044,robocape,15.1715660381,10.2643762346,118.900325988,0.0,10.0,0.0,0.0,0.0,10.0,0.0,0.0,0.0,10.0,-0.132359106177,0.0249005561922,0.205596036154,1.0,0.0,0.0,0.0,1.0,0.0,0.0,0.0,1.0,0.00239501953125,0.130528564453,10.0506994629,0.1,0.0,0.0,0.0,0.1,0.0,0.0,0.0,0.1
1446035583652629665,98,1446035583650902986,robocape,14.8324665895,10.1628647811,119.53578985,0.0,10.0,0.0,0.0,0.0,10.0,0.0,0.0,0.0,10.0,-0.243146607524,0.0199737081756,0.332362504042,1.0,0.0,0.0,0.0,1.0,0.0,0.0,0.0,1.0,-0.0107775878906,-0.453856201172,10.1177600098,0.1,0.0,0.0,0.0,0.1,0.0,0.0,0.0,0.1
1446035583685944665,99,1446035583684253931,robocape,14.5493106816,10.038524112,120.22484775,0.0,10.0,0.0,0.0,0.0,10.0,0.0,0.0,0.0,10.0,-0.218512367441,0.0109189604693,0.362988856578,1.0,0.0,0.0,0.0,1.0,0.0,0.0,0.0,1.0,-0.0395178222656,-1.71603149414,10.1836230469,0.1,0.0,0.0,0.0,0.1,0.0,0.0,0.0,0.1
1446035583719507207,100,1446035583717596054,robocape,14.8154803467,9.99174924983,120.564522587,0.0,10.0,0.0,0.0,0.0,10.0,0.0,0.0,0.0,10.0,0.105061705004,0.0146473859954,0.176567580272,1.0,0.0,0.0,0.0,1.0,0.0,0.0,0.0,1.0,-0.0167651367188,-1.44419677734,10.1177600098,0.1,0.0,0.0,0.0,0.1,0.0,0.0,0.0,0.1
1446035583752773457,101,1446035583751019001,robocape,15.5381152993,10.015655736,120.565253834,0.0,10.0,0.0,0.0,0.0,10.0,0.0,0.0,0.0,10.0,0.378302032846,0.0151800182135,-0.00372842552611,1.0,0.0,0.0,0.0,1.0,0.0,0.0,0.0,1.0,-0.0215551757813,-1.58310791016,10.1105749512,0.1,0.0,0.0,0.0,0.1,0.0,0.0,0.0,0.1
1446035583785965791,102,1446035583784199953,robocape,16.6534962001,10.0931805283,120.314531153,0.0,10.0,0.0,0.0,0.0,10.0,0.0,0.0,0.0,10.0,0.609464415465,0.0130494893414,-0.137818586412,1.0,0.0,0.0,0.0,1.0,0.0,0.0,0.0,1.0,-0.0886157226563,-0.529299316406,10.1429077148,0.1,0.0,0.0,0.0,0.1,0.0,0.0,0.0,0.1
1446035583819289666,103,1446035583817519903,robocape,17.7033228881,10.1650595072,120.054412839,0.0,10.0,0.0,0.0,0.0,10.0,0.0,0.0,0.0,10.0,0.576308059893,0.00559263828917,-0.141547011938,1.0,0.0,0.0,0.0,1.0,0.0,0.0,0.0,1.0,-0.346080322266,0.827479248047,10.0710571289,0.1,0.0,0.0,0.0,0.1,0.0,0.0,0.0,0.1
1446035583852945666,104,1446035583851206064,robocape,18.203810022,10.2244925778,119.892839126,0.0,10.0,0.0,0.0,0.0,10.0,0.0,0.0,0.0,10.0,0.278699808077,0.0115847507418,-0.0909469512262,1.0,0.0,0.0,0.0,1.0,0.0,0.0,0.0,1.0,0.520916748047,2.00103881836,9.96447875977,0.1,0.0,0.0,0.0,0.1,0.0,0.0,0.0,0.1
1446035583886162832,105,1446035583884423017,robocape,18.0774096711,10.2780016643,119.930063358,0.0,10.0,0.0,0.0,0.0,10.0,0.0,0.0,0.0,10.0,-0.0700411366691,0.0394147841332,0.00719053494321,1.0,0.0,0.0,0.0,1.0,0.0,0.0,0.0,1.0,0.645457763672,1.79865966797,10.0902172852,0.1,0.0,0.0,0.0,0.1,0.0,0.0,0.0,0.1
1446035583919431374,106,1446035583917700052,robocape,17.5548123206,10.3353609678,119.951836265,0.0,10.0,0.0,0.0,0.0,10.0,0.0,0.0,0.0,10.0,-0.275903488932,0.0394147841332,-0.000932106381528,1.0,0.0,0.0,0.0,1.0,0.0,0.0,0.0,1.0,-0.0419128417969,0.874182128906,9.9213684082,0.1,0.0,0.0,0.0,0.1,0.0,0.0,0.0,0.1
1446035583952586541,107,1446035583950848102,robocape,16.9587999878,10.4161559572,119.883847768,0.0,10.0,0.0,0.0,0.0,10.0,0.0,0.0,0.0,10.0,-0.304931944814,0.0406132066237,-0.049135322112,1.0,0.0,0.0,0.0,1.0,0.0,0.0,0.0,1.0,0.269439697266,-0.180823974609,10.0411193848,0.1,0.0,0.0,0.0,0.1,0.0,0.0,0.0,0.1
1446035583985929666,108,1446035583984178066,robocape,16.4732915135,10.4968330988,119.784435229,0.0,10.0,0.0,0.0,0.0,10.0,0.0,0.0,0.0,10.0,-0.243679239742,0.0364853069341,-0.0641821822709,1.0,0.0,0.0,0.0,1.0,0.0,0.0,0.0,1.0,-0.216749267578,0.0167651367188,10.2243383789,0.1,0.0,0.0,0.0,0.1,0.0,0.0,0.0,0.1
1446035584019231957,109,1446035584017498970,robocape,16.1087083038,10.5949674055,119.557134158,0.0,10.0,0.0,0.0,0.0,10.0,0.0,0.0,0.0,10.0,-0.166580726184,0.0298274042089,-0.13009541925,1.0,0.0,0.0,0.0,1.0,0.0,0.0,0.0,1.0,-0.403560791016,-1.24062011719,10.0938098145,0.1,0.0,0.0,0.0,0.1,0.0,0.0,0.0,0.1
1446035584053187166,110,1446035584051045894,robocape,16.191147345,10.7454991216,119.099083208,0.0,10.0,0.0,0.0,0.0,10.0,0.0,0.0,0.0,10.0,0.0928111639893,0.0310258266994,-0.253266619667,1.0,0.0,0.0,0.0,1.0,0.0,0.0,0.0,1.0,0.05748046875,-0.960402832031,10.1153649902,0.1,0.0,0.0,0.0,0.1,0.0,0.0,0.0,0.1
1446035584086174499,111,1446035584084232091,robocape,16.3696493974,10.9044040676,118.535618889,0.0,10.0,0.0,0.0,0.0,10.0,0.0,0.0,0.0,10.0,0.155528607661,0.0211721306661,-0.306662999523,1.0,0.0,0.0,0.0,1.0,0.0,0.0,0.0,1.0,0.129331054688,0.790356445313,10.0506994629,0.1,0.0,0.0,0.0,0.1,0.0,0.0,0.0,0.1
1446035584119539832,112,1446035584117643117,robocape,16.1752952906,11.0314839742,118.100546652,0.0,10.0,0.0,0.0,0.0,10.0,0.0,0.0,0.0,10.0,-0.0531300637471,0.0195742340121,-0.237553969235,1.0,0.0,0.0,0.0,1.0,0.0,0.0,0.0,1.0,0.179626464844,0.868194580078,10.0219592285,0.1,0.0,0.0,0.0,0.1,0.0,0.0,0.0,0.1
1446035584152622374,113,1446035584150765895,robocape,15.6735144928,11.1339650231,117.78372914,0.0,10.0,0.0,0.0,0.0,10.0,0.0,0.0,0.0,10.0,-0.226901324875,0.0219710789932,-0.174703367509,1.0,0.0,0.0,0.0,1.0,0.0,0.0,0.0,1.0,0.444276123047,0.486188964844,10.060279541,0.1,0.0,0.0,0.0,0.1,0.0,0.0,0.0,0.1
1446035584186046374,114,1446035584184278011,robocape,14.9307640642,11.1609560939,117.800508124,0.0,10.0,0.0,0.0,0.0,10.0,0.0,0.0,0.0,10.0,-0.390818889969,0.0198405501211,0.0034621094171,1.0,0.0,0.0,0.0,1.0,0.0,0.0,0.0,1.0,0.00598754882813,0.1916015625,10.0471069336,0.1,0.0,0.0,0.0,0.1,0.0,0.0,0.0,0.1
1446035584220335124,115,1446035584218530893,robocape,13.9057956142,11.1436612294,118.033786109,0.0,10.0,0.0,0.0,0.0,10.0,0.0,0.0,0.0,10.0,-0.563258570552,0.0183758115215,0.118377510454,1.0,0.0,0.0,0.0,1.0,0.0,0.0,0.0,1.0,-0.207169189453,-0.233514404297,10.0375268555,0.1,0.0,0.0,0.0,0.1,0.0,0.0,0.0,0.1
1446035584252626624,116,1446035584250859022,robocape,13.1589909141,11.1495393195,118.140702574,0.0,10.0,0.0,0.0,0.0,10.0,0.0,0.0,0.0,10.0,-0.403202589038,0.016644756813,0.0521979573656,1.0,0.0,0.0,0.0,1.0,0.0,0.0,0.0,1.0,-0.326920166016,-2.17467773438,10.1213525391,0.1,0.0,0.0,0.0,0.1,0.0,0.0,0.0,0.1
1446035584286184874,117,1446035584284409046,robocape,12.8007674643,11.1653770792,118.192587402,0.0,10.0,0.0,0.0,0.0,10.0,0.0,0.0,0.0,10.0,-0.193478653194,0.016378440704,0.0234358175927,1.0,0.0,0.0,0.0,1.0,0.0,0.0,0.0,1.0,0.378413085938,-2.07767944336,10.080637207,0.1,0.0,0.0,0.0,0.1,0.0,0.0,0.0,0.1
1446035584322633291,118,1446035584318821907,robocape,12.8420769292,11.2065130234,118.197755321,0.0,10.0,0.0,0.0,0.0,10.0,0.0,0.0,0.0,10.0,0.0210389726116,0.0276968753368,-0.00359526747161,1.0,0.0,0.0,0.0,1.0,0.0,0.0,0.0,1.0,0.110170898438,-2.13635742188,10.0818347168,0.1,0.0,0.0,0.0,0.1,0.0,0.0,0.0,0.1
1446035584354305249,119,1446035584352447986,robocape,13.2023330936,11.2530321335,118.221639376,0.0,10.0,0.0,0.0,0.0,10.0,0.0,0.0,0.0,10.0,0.185888644088,0.0334226716805,0.00479368996214,1.0,0.0,0.0,0.0,1.0,0.0,0.0,0.0,1.0,0.137713623047,-1.53880004883,10.0830322266,0.1,0.0,0.0,0.0,0.1,0.0,0.0,0.0,0.1
1446035584388134957,120,1446035584385863065,robocape,13.7202245794,11.2954398347,118.283360968,0.0,10.0,0.0,0.0,0.0,10.0,0.0,0.0,0.0,10.0,0.264052422081,0.0352868844435,0.0239684498107,1.0,0.0,0.0,0.0,1.0,0.0,0.0,0.0,1.0,0.105380859375,-0.966390380859,10.0914147949,0.1,0.0,0.0,0.0,0.1,0.0,0.0,0.0,0.1
1446035584422732707,121,1446035584420936107,robocape,14.2268577186,11.3184611412,118.371044473,0.0,10.0,0.0,0.0,0.0,10.0,0.0,0.0,0.0,10.0,0.25513083243,0.0259658206283,0.0396811002422,1.0,0.0,0.0,0.0,1.0,0.0,0.0,0.0,1.0,-0.234711914063,-0.192799072266,10.0267492676,0.1,0.0,0.0,0.0,0.1,0.0,0.0,0.0,0.1
1446035584453388833,122,1446035584451180934,robocape,14.7110050057,11.3653205643,118.369617431,0.0,10.0,0.0,0.0,0.0,10.0,0.0,0.0,0.0,10.0,0.25366609383,0.0306263525359,-0.00865527354276,1.0,0.0,0.0,0.0,1.0,0.0,0.0,0.0,1.0,-0.144898681641,-0.155676269531,10.1441052246,0.1,0.0,0.0,0.0,0.1,0.0,0.0,0.0,0.1
1446035584486620958,123,1446035584484827041,robocape,15.2215996207,11.4298282988,118.263247054,0.0,10.0,0.0,0.0,0.0,10.0,0.0,0.0,0.0,10.0,0.279765072513,0.0283626656093,-0.0637827081074,1.0,0.0,0.0,0.0,1.0,0.0,0.0,0.0,1.0,0.143701171875,-0.259859619141,10.1093774414,0.1,0.0,0.0,0.0,0.1,0.0,0.0,0.0,0.1
1446035584521244916,124,1446035584519432067,robocape,15.6981684354,11.4837459899,118.171336255,0.0,10.0,0.0,0.0,0.0,10.0,0.0,0.0,0.0,10.0,0.260323996555,0.0229031853747,-0.0549942765101,1.0,0.0,0.0,0.0,1.0,0.0,0.0,0.0,1.0,0.0299377441406,1.02746337891,10.0997973633,0.1,0.0,0.0,0.0,0.1,0.0,0.0,0.0,0.1
1446035584554394249,125,1446035584552599906,robocape,15.8031882237,11.5193002314,118.182576263,0.0,10.0,0.0,0.0,0.0,10.0,0.0,0.0,0.0,10.0,0.0536626959651,0.0249005561922,-0.00106526443603,1.0,0.0,0.0,0.0,1.0,0.0,0.0,0.0,1.0,0.067060546875,0.827479248047,10.0566870117,0.1,0.0,0.0,0.0,0.1,0.0,0.0,0.0,0.1
1446035584587999999,126,1446035584586227893,robocape,15.6701874778,11.5540315125,118.199476574,0.0,10.0,0.0,0.0,0.0,10.0,0.0,0.0,0.0,10.0,-0.0716390333231,0.0251668723012,0.00186421276306,1.0,0.0,0.0,0.0,1.0,0.0,0.0,0.0,1.0,0.213156738281,0.468226318359,10.0375268555,0.1,0.0,0.0,0.0,0.1,0.0,0.0,0.0,0.1
1446035584624116124,127,1446035584619497060,robocape,15.4201933735,11.587385365,118.207306252,0.0,10.0,0.0,0.0,0.0,10.0,0.0,0.0,0.0,10.0,-0.131826473959,0.0230363434292,-0.00226368692657,1.0,0.0,0.0,0.0,1.0,0.0,0.0,0.0,1.0,-0.0275427246094,-0.118553466797,10.0830322266,0.1,0.0,0.0,0.0,0.1,0.0,0.0,0.0,0.1
1446035584656985041,128,1446035584654652118,robocape,15.0820963794,11.6094094904,118.271666123,0.0,10.0,0.0,0.0,0.0,10.0,0.0,0.0,0.0,10.0,-0.184690221597,0.0231695014837,0.0276968753368,1.0,0.0,0.0,0.0,1.0,0.0,0.0,0.0,1.0,0.0047900390625,-0.246687011719,10.0866247559,0.1,0.0,0.0,0.0,0.1,0.0,0.0,0.0,0.1
1446035584691060833,129,1446035584688606023,robocape,14.6873555765,11.6306120176,118.338418306,0.0,10.0,0.0,0.0,0.0,10.0,0.0,0.0,0.0,10.0,-0.21465078386,0.0227700273202,0.0291616139364,1.0,0.0,0.0,0.0,1.0,0.0,0.0,0.0,1.0,0.0263452148438,-0.0946032714844,10.0926123047,0.1,0.0,0.0,0.0,0.1,0.0,0.0,0.0,0.1
1446035584724917499,130,1446035584722548007,robocape,14.2222298314,11.6508928053,118.406406779,0.0,10.0,0.0,0.0,0.0,10.0,0.0,0.0,0.0,10.0,-0.251668723012,0.0221042370477,0.0300937203179,1.0,0.0,0.0,0.0,1.0,0.0,0.0,0.0,1.0,0.0371228027344,-0.265847167969,10.1165625,0.1,0.0,0.0,0.0,0.1,0.0,0.0,0.0,0.1
1446035584757196416,131,1446035584755213975,robocape,13.8266633125,11.6800076779,118.407032331,0.0,10.0,0.0,0.0,0.0,10.0,0.0,0.0,0.0,10.0,-0.207193932808,0.0194410759576,-0.00452737385313,1.0,0.0,0.0,0.0,1.0,0.0,0.0,0.0,1.0,-0.0694555664063,-0.767603759766,10.1057849121,0.1,0.0,0.0,0.0,0.1,0.0,0.0,0.0,0.1
1446035584791019499,132,1446035584788201093,robocape,13.5589079277,11.711540189,118.406080733,0.0,10.0,0.0,0.0,0.0,10.0,0.0,0.0,0.0,10.0,-0.140082273338,0.0209058145571,-0.00559263828917,1.0,0.0,0.0,0.0,1.0,0.0,0.0,0.0,1.0,-0.00598754882813,-1.31007568359,10.1500927734,0.1,0.0,0.0,0.0,0.1,0.0,0.0,0.0,0.1
1446035584824157666,133,1446035584822076082,robocape,13.4705647145,11.7462981978,118.400139682,0.0,10.0,0.0,0.0,0.0,10.0,0.0,0.0,0.0,10.0,-0.0455400546404,0.0225037112112,-0.00852211548825,1.0,0.0,0.0,0.0,1.0,0.0,0.0,0.0,1.0,0.235909423828,-1.32684082031,10.1249450684,0.1,0.0,0.0,0.0,0.1,0.0,0.0,0.0,0.1
1446035584857357124,134,1446035584855284929,robocape,13.5640418173,11.7860455723,118.408466224,0.0,10.0,0.0,0.0,0.0,10.0,0.0,0.0,0.0,10.0,0.0479368996214,0.0275637172823,-0.00226368692657,1.0,0.0,0.0,0.0,1.0,0.0,0.0,0.0,1.0,0.0455053710938,-1.39509887695,10.1417102051,0.1,0.0,0.0,0.0,0.1,0.0,0.0,0.0,0.1
1446035584890734166,135,1446035584888839006,robocape,13.8003143088,11.8316548924,118.431547748,0.0,10.0,0.0,0.0,0.0,10.0,0.0,0.0,0.0,10.0,0.12090751349,0.033289513626,0.00399474163512,1.0,0.0,0.0,0.0,1.0,0.0,0.0,0.0,1.0,0.120948486328,-1.01429077148,10.459050293,0.1,0.0,0.0,0.0,0.1,0.0,0.0,0.0,0.1
1446035584924816708,136,1446035584922728061,robocape,14.0797189799,11.8967690997,118.445354304,0.0,10.0,0.0,0.0,0.0,10.0,0.0,0.0,0.0,10.0,0.144609647191,0.0452737385313,-0.00399474163512,1.0,0.0,0.0,0.0,1.0,0.0,0.0,0.0,1.0,-3.50630859375,-0.404758300781,10.7620202637,0.1,0.0,0.0,0.0,0.1,0.0,0.0,0.0,0.1
1446035584956178541,137,1446035584954355955,robocape,14.2938510176,11.9994266271,118.383720301,0.0,10.0,0.0,0.0,0.0,10.0,0.0,0.0,0.0,10.0,0.119709090999,0.0611195470173,-0.0478037415669,1.0,0.0,0.0,0.0,1.0,0.0,0.0,0.0,1.0,-6.06778198242,-0.980760498047,10.6698120117,0.1,0.0,0.0,0.0,0.1,0.0,0.0,0.0,0.1
1446035584990380374,138,1446035584988364934,robocape,14.5493370492,12.0331923876,118.154466664,0.0,10.0,0.0,0.0,0.0,10.0,0.0,0.0,0.0,10.0,0.162186510386,-0.00639158661619,-0.118776984618,1.0,0.0,0.0,0.0,1.0,0.0,0.0,0.0,1.0,-5.9815612793,-0.293389892578,10.7440576172,0.1,0.0,0.0,0.0,0.1,0.0,0.0,0.0,0.1
1446035585023442291,139,1446035585021414995,robocape,14.8849836953,12.0392690421,117.879757423,0.0,10.0,0.0,0.0,0.0,10.0,0.0,0.0,0.0,10.0,0.209857093898,-0.0314253008629,-0.136220689758,1.0,0.0,0.0,0.0,1.0,0.0,0.0,0.0,1.0,-8.45322143555,-2.69439697266,10.290201416,0.1,0.0,0.0,0.0,0.1,0.0,0.0,0.0,0.1
1446035585056208708,140,1446035585054229974,robocape,15.2996451014,12.0795236411,117.612821862,0.0,10.0,0.0,0.0,0.0,10.0,0.0,0.0,0.0,10.0,0.250337142467,-0.00838895743375,-0.13835121863,1.0,0.0,0.0,0.0,1.0,0.0,0.0,0.0,1.0,-4.75411376953,0.137713623047,11.5559692383,0.1,0.0,0.0,0.0,0.1,0.0,0.0,0.0,0.1
1446035585089828999,141,1446035585087958097,robocape,16.1949256146,12.023883182,117.334930005,0.0,10.0,0.0,0.0,0.0,10.0,0.0,0.0,0.0,10.0,0.503337446025,-0.0755006169037,-0.125568045397,1.0,0.0,0.0,0.0,1.0,0.0,0.0,0.0,1.0,-5.1768347168,-0.28740234375,10.152487793,0.1,0.0,0.0,0.0,0.1,0.0,0.0,0.0,0.1
1446035585123326166,142,1446035585121396064,robocape,16.9057036115,12.1057715169,117.021520797,0.0,10.0,0.0,0.0,0.0,10.0,0.0,0.0,0.0,10.0,0.411192072308,0.00905474770627,-0.168977571166,1.0,0.0,0.0,0.0,1.0,0.0,0.0,0.0,1.0,-7.01501220703,0.352067871094,10.693762207,0.1,0.0,0.0,0.0,0.1,0.0,0.0,0.0,0.1
1446035585155871625,143,1446035585154033899,robocape,17.6823027159,12.139181074,116.814926349,0.0,10.0,0.0,0.0,0.0,10.0,0.0,0.0,0.0,10.0,0.432497361029,-0.00905474770627,-0.107192233876,1.0,0.0,0.0,0.0,1.0,0.0,0.0,0.0,1.0,-4.50024169922,0.136516113281,11.1500134277,0.1,0.0,0.0,0.0,0.1,0.0,0.0,0.0,0.1
1446035585188856625,144,1446035585187047958,robocape,18.218625022,12.153275516,116.763901795,0.0,10.0,0.0,0.0,0.0,10.0,0.0,0.0,0.0,10.0,0.287221923565,0.00133158054504,-0.0276968753368,1.0,0.0,0.0,0.0,1.0,0.0,0.0,0.0,1.0,-1.88248535156,0.44068359375,8.45801147461,0.1,0.0,0.0,0.0,0.1,0.0,0.0,0.0,0.1
1446035585221801875,145,1446035585220001935,robocape,18.766859051,12.2219046323,116.929620024,0.0,10.0,0.0,0.0,0.0,10.0,0.0,0.0,0.0,10.0,0.266182950953,0.0720385074866,0.0647148144889,1.0,0.0,0.0,0.0,1.0,0.0,0.0,0.0,1.0,-3.23567138672,-0.467028808594,10.2267333984,0.1,0.0,0.0,0.0,0.1,0.0,0.0,0.0,0.1
1446035585255398250,146,1446035585253631114,robocape,19.3991536832,12.1967318409,117.006960154,0.0,10.0,0.0,0.0,0.0,10.0,0.0,0.0,0.0,10.0,0.321310385518,-0.00372842552611,0.0428768935503,1.0,0.0,0.0,0.0,1.0,0.0,0.0,0.0,1.0,-7.4760534668,-0.283809814453,9.06275390625,0.1,0.0,0.0,0.0,0.1,0.0,0.0,0.0,0.1
1446035585288609666,147,1446035585286808013,robocape,20.1818530551,12.2198737066,117.196606564,0.0,10.0,0.0,0.0,0.0,10.0,0.0,0.0,0.0,10.0,0.385892041952,0.0478037415669,0.0852211548825,1.0,0.0,0.0,0.0,1.0,0.0,0.0,0.0,1.0,-2.11480224609,-0.288599853516,11.7308056641,0.1,0.0,0.0,0.0,0.1,0.0,0.0,0.0,0.1
1446035585325054125,148,1446035585323080062,robocape,21.1069961675,12.2184814035,117.241811595,0.0,10.0,0.0,0.0,0.0,10.0,0.0,0.0,0.0,10.0,0.478703205942,0.00719053494321,0.0218379209386,1.0,0.0,0.0,0.0,1.0,0.0,0.0,0.0,1.0,-3.07760009766,-0.542471923828,7.57664428711,0.1,0.0,0.0,0.0,0.1,0.0,0.0,0.0,0.1
1446035585354770041,149,1446035585352997064,robocape,22.234709041,11.9791899954,117.12828443,0.0,10.0,0.0,0.0,0.0,10.0,0.0,0.0,0.0,10.0,0.604670725502,-0.175768631945,0.00772316716123,1.0,0.0,0.0,0.0,1.0,0.0,0.0,0.0,1.0,-1.23942260742,-0.314945068359,11.3739477539,0.1,0.0,0.0,0.0,0.1,0.0,0.0,0.0,0.1
1446035585389225500,150,1446035585386501073,robocape,23.8463959902,11.9079719679,116.968023063,0.0,10.0,0.0,0.0,0.0,10.0,0.0,0.0,0.0,10.0,0.863663141513,-0.0772316716123,-0.0557932248372,1.0,0.0,0.0,0.0,1.0,0.0,0.0,0.0,1.0,-3.05125488281,-1.04422851562,7.78860351563,0.1,0.0,0.0,0.0,0.1,0.0,0.0,0.0,0.1
1446035585422614083,151,1446035585420840024,robocape,25.8465559645,11.9976911228,116.977475427,0.0,10.0,0.0,0.0,0.0,10.0,0.0,0.0,0.0,10.0,1.04622283424,0.0583232278727,-0.0217047628841,1.0,0.0,0.0,0.0,1.0,0.0,0.0,0.0,1.0,2.63691650391,-0.571212158203,10.8853637695,0.1,0.0,0.0,0.0,0.1,0.0,0.0,0.0,0.1
1446035585453876041,152,1446035585452085971,robocape,28.3140728421,12.0605783544,116.912232724,0.0,10.0,0.0,0.0,0.0,10.0,0.0,0.0,0.0,10.0,1.30028840223,0.0237021337017,-0.049401638221,1.0,0.0,0.0,0.0,1.0,0.0,0.0,0.0,1.0,-0.602347412109,-0.689765625,8.56219482422,0.1,0.0,0.0,0.0,0.1,0.0,0.0,0.0,0.1
1446035585487155583,153,1446035585485294103,robocape,31.3316542787,11.746734958,116.632656032,0.0,10.0,0.0,0.0,0.0,10.0,0.0,0.0,0.0,10.0,1.61467456892,-0.258859257956,-0.0157126504315,1.0,0.0,0.0,0.0,1.0,0.0,0.0,0.0,1.0,3.70868774414,-0.837059326172,8.40053100586,0.1,0.0,0.0,0.0,0.1,0.0,0.0,0.0,0.1
1446035585520224458,154,1446035585518409013,robocape,35.2703161307,12.0557611226,116.675563161,0.0,10.0,0.0,0.0,0.0,10.0,0.0,0.0,0.0,10.0,2.0578245743,0.190416017941,-0.0989364344964,1.0,0.0,0.0,0.0,1.0,0.0,0.0,0.0,1.0,-0.355660400391,-1.1076965332,8.67715576172,0.1,0.0,0.0,0.0,0.1,0.0,0.0,0.0,0.1
1446035585553191833,155,1446035585551475048,robocape,40.0534853395,12.1447665864,116.649087807,0.0,10.0,0.0,0.0,0.0,10.0,0.0,0.0,0.0,10.0,2.50923037907,0.0407463646782,-0.0484695318394,1.0,0.0,0.0,0.0,1.0,0.0,0.0,0.0,1.0,4.05596557617,-0.674197998047,8.67595825195,0.1,0.0,0.0,0.0,0.1,0.0,0.0,0.0,0.1
1446035585586726041,156,1446035585584958076,robocape,45.8644387167,12.3610496337,116.772969677,0.0,10.0,0.0,0.0,0.0,10.0,0.0,0.0,0.0,10.0,3.02947889802,0.153531236843,-0.0568584892732,1.0,0.0,0.0,0.0,1.0,0.0,0.0,0.0,1.0,4.65831298828,-1.23822509766,7.21739135742,0.1,0.0,0.0,0.0,0.1,0.0,0.0,0.0,0.1
1446035585620005458,157,1446035585618215084,robocape,51.945495476,11.8452005842,117.779386388,0.0,10.0,0.0,0.0,0.0,10.0,0.0,0.0,0.0,10.0,3.06090419888,0.150335443535,0.607200728538,1.0,0.0,0.0,0.0,1.0,0.0,0.0,0.0,1.0,3.17220336914,9.20525756836,11.0637927246,0.1,0.0,0.0,0.0,0.1,0.0,0.0,0.0,0.1
1446035585653046666,158,1446035585651288986,robocape,53.0908830861,11.1437579345,122.583240971,0.0,10.0,0.0,0.0,0.0,10.0,0.0,0.0,0.0,10.0,0.0331563555715,1.65475514332,1.87180277216,1.0,0.0,0.0,0.0,1.0,0.0,0.0,0.0,1.0,8.30473022461,16.615447998,14.7281726074,0.1,0.0,0.0,0.0,0.1,0.0,0.0,0.0,0.1
1446035585686543458,159,1446035585684768915,robocape,51.3172890112,9.99209540559,128.074523407,0.0,10.0,0.0,0.0,0.0,10.0,0.0,0.0,0.0,10.0,-1.51853445356,1.75742000334,2.3311980602,1.0,0.0,0.0,0.0,1.0,0.0,0.0,0.0,1.0,-2.7626550293,4.47150146484,9.20166503906,0.1,0.0,0.0,0.0,0.1,0.0,0.0,0.0,0.1
1446035585720013250,160,1446035585718261003,robocape,48.9174646134,9.02308536176,132.54692754,0.0,10.0,0.0,0.0,0.0,10.0,0.0,0.0,0.0,10.0,-1.6837835992,1.36766637781,1.95755655926,1.0,0.0,0.0,0.0,1.0,0.0,0.0,0.0,1.0,-1.8429675293,0.844244384766,10.1668579102,0.1,0.0,0.0,0.0,0.1,0.0,0.0,0.0,0.1
1446035585752917666,161,1446035585751118898,robocape,46.3550409359,7.82892334733,135.981276815,0.0,10.0,0.0,0.0,0.0,10.0,0.0,0.0,0.0,10.0,-1.62918879686,0.80800307473,1.75036262645,1.0,0.0,0.0,0.0,1.0,0.0,0.0,0.0,1.0,-2.78061767578,0.426313476563,8.95737304688,0.1,0.0,0.0,0.0,0.1,0.0,0.0,0.0,0.1
1446035585786302916,162,1446035585784481048,robocape,43.7507378726,6.82905708536,139.372886401,0.0,10.0,0.0,0.0,0.0,10.0,0.0,0.0,0.0,10.0,-1.60775035008,0.814927293564,1.67526148371,1.0,0.0,0.0,0.0,1.0,0.0,0.0,0.0,1.0,-0.734073486328,1.05859863281,10.0267492676,0.1,0.0,0.0,0.0,0.1,0.0,0.0,0.0,0.1
1446035585819860958,163,1446035585818084001,robocape,40.3851798757,5.64627950212,142.741805399,0.0,10.0,0.0,0.0,0.0,10.0,0.0,0.0,0.0,10.0,-1.96674446502,0.653007099287,1.77299949572,1.0,0.0,0.0,0.0,1.0,0.0,0.0,0.0,1.0,-0.215551757813,2.25012084961,9.93334350586,0.1,0.0,0.0,0.0,0.1,0.0,0.0,0.0,0.1
1446035585852762667,164,1446035585851008892,robocape,35.7721469194,4.40238410392,146.575182978,0.0,10.0,0.0,0.0,0.0,10.0,0.0,0.0,0.0,10.0,-2.6016420689,0.667787643337,2.01934189655,1.0,0.0,0.0,0.0,1.0,0.0,0.0,0.0,1.0,3.76497070313,2.4489074707,9.03401367187,0.1,0.0,0.0,0.0,0.1,0.0,0.0,0.0,0.1
1446035585886412875,165,1446035585884531021,robocape,29.0542076873,2.96786279282,150.976522078,0.0,10.0,0.0,0.0,0.0,10.0,0.0,0.0,0.0,10.0,-3.67569493653,0.553937506736,2.37873548566,1.0,0.0,0.0,0.0,1.0,0.0,0.0,0.0,1.0,-0.0311352539063,3.30512695313,7.81494873047,0.1,0.0,0.0,0.0,0.1,0.0,0.0,0.0,0.1
1446035585919804583,166,1446035585917973041,robocape,20.9311417355,1.61234992857,155.75868662,0.0,10.0,0.0,0.0,0.0,10.0,0.0,0.0,0.0,10.0,-4.36332312999,0.387623096661,2.58872573761,1.0,0.0,0.0,0.0,1.0,0.0,0.0,0.0,1.0,-5.21276000977,3.86556152344,5.62829589844,0.1,0.0,0.0,0.0,0.1,0.0,0.0,0.0,0.1
1446035585952803125,167,1446035585951077938,robocape,12.6827814876,0.0909762998157,160.42267424,0.0,10.0,0.0,0.0,0.0,10.0,0.0,0.0,0.0,10.0,-4.36332312999,-0.0680437658515,2.57967098991,1.0,0.0,0.0,0.0,1.0,0.0,0.0,0.0,1.0,-3.05604492188,3.61408447266,1.69088378906,0.1,0.0,0.0,0.0,0.1,0.0,0.0,0.0,0.1
1446035585986261917,168,1446035585984522104,robocape,4.30765343132,-1.58248823442,164.81879801,0.0,10.0,0.0,0.0,0.0,10.0,0.0,0.0,0.0,10.0,-4.36332312999,-0.516919567584,2.41189184123,1.0,0.0,0.0,0.0,1.0,0.0,0.0,0.0,1.0,-3.96255981445,2.92791137695,-3.22728881836,0.1,0.0,0.0,0.0,0.1,0.0,0.0,0.0,0.1
1446035586019975375,169,1446035586018258094,robocape,-4.08064698821,-3.36712575469,166.468302645,0.0,10.0,0.0,0.0,0.0,10.0,0.0,0.0,0.0,10.0,-4.36332312999,-0.898017919575,0.86712525093,1.0,0.0,0.0,0.0,1.0,0.0,0.0,0.0,1.0,-3.28237426758,-19.62,-0.839454345703,0.1,0.0,0.0,0.0,0.1,0.0,0.0,0.0,0.1
1446035586052640958,170,1446035586050905942,robocape,-3.11777402368,-2.10388204925,163.842734914,0.0,10.0,0.0,0.0,0.0,10.0,0.0,0.0,0.0,10.0,0.440087370136,0.717588755722,-1.33118107088,1.0,0.0,0.0,0.0,1.0,0.0,0.0,0.0,1.0,18.0321020508,-19.62,17.8261303711,0.1,0.0,0.0,0.0,0.1,0.0,0.0,0.0,0.1
1446035586086200417,171,1446035586084484100,robocape,2.42899161943,1.0249019755,160.612099043,0.0,10.0,0.0,0.0,0.0,10.0,0.0,0.0,0.0,10.0,2.89126083744,1.63624617374,-1.68471570558,1.0,0.0,0.0,0.0,1.0,0.0,0.0,0.0,1.0,5.7133190918,-11.3535900879,3.09676025391,0.1,0.0,0.0,0.0,0.1,0.0,0.0,0.0,0.1
1446035586119631833,172,1446035586117909908,robocape,6.83261089649,3.60749403586,157.445067973,0.0,10.0,0.0,0.0,0.0,10.0,0.0,0.0,0.0,10.0,2.37593916651,1.27458889771,-1.76767317354,1.0,0.0,0.0,0.0,1.0,0.0,0.0,0.0,1.0,-6.08334960938,2.40819213867,4.13260620117,0.1,0.0,0.0,0.0,0.1,0.0,0.0,0.0,0.1
1446035586152494667,173,1446035586150758981,robocape,8.85089755631,5.8193440323,155.539983447,0.0,10.0,0.0,0.0,0.0,10.0,0.0,0.0,0.0,10.0,1.14289558181,1.12305503169,-1.15834191613,1.0,0.0,0.0,0.0,1.0,0.0,0.0,0.0,1.0,-5.70373901367,0.699345703125,10.9176965332,0.1,0.0,0.0,0.0,0.1,0.0,0.0,0.0,0.1
1446035586186077333,174,1446035586184411048,robocape,9.68346275213,7.03007344908,153.96126681,0.0,10.0,0.0,0.0,0.0,10.0,0.0,0.0,0.0,10.0,0.534496430779,0.580968591801,-0.926513743239,1.0,0.0,0.0,0.0,1.0,0.0,0.0,0.0,1.0,-1.89326293945,-0.556842041016,10.5273083496,0.1,0.0,0.0,0.0,0.1,0.0,0.0,0.0,0.1
1446035586220258250,175,1446035586218470096,robocape,9.64903895317,7.99275580382,152.200943624,0.0,10.0,0.0,0.0,0.0,10.0,0.0,0.0,0.0,10.0,0.111852765783,0.42810314523,-0.99868540878,1.0,0.0,0.0,0.0,1.0,0.0,0.0,0.0,1.0,0.772393798828,-1.00351318359,10.6219116211,0.1,0.0,0.0,0.0,0.1,0.0,0.0,0.0,0.1
1446035586252629750,176,1446035586250866889,robocape,9.64771526361,9.22769464746,149.8761525,0.0,10.0,0.0,0.0,0.0,10.0,0.0,0.0,0.0,10.0,0.198272343156,0.565522257478,-1.31453631406,1.0,0.0,0.0,0.0,1.0,0.0,0.0,0.0,1.0,0.809516601563,-2.2261706543,10.2746337891,0.1,0.0,0.0,0.0,0.1,0.0,0.0,0.0,0.1
1446035586286181542,177,1446035586284439086,robocape,10.0913679766,11.2186241378,146.921283123,0.0,10.0,0.0,0.0,0.0,10.0,0.0,0.0,0.0,10.0,0.538224856305,1.03051018381,-1.71946995781,1.0,0.0,0.0,0.0,1.0,0.0,0.0,0.0,1.0,5.97916625977,-3.42727294922,12.5798400879,0.1,0.0,0.0,0.0,0.1,0.0,0.0,0.0,0.1
1446035586319869750,178,1446035586318079948,robocape,11.0381819197,13.0041557584,143.366192446,0.0,10.0,0.0,0.0,0.0,10.0,0.0,0.0,0.0,10.0,0.941161129234,0.888563697705,-2.00549345888,1.0,0.0,0.0,0.0,1.0,0.0,0.0,0.0,1.0,-1.31127319336,-1.66932861328,8.69152587891,0.1,0.0,0.0,0.0,0.1,0.0,0.0,0.0,0.1
1446035586353015583,179,1446035586351212024,robocape,12.4770355174,14.6558237561,139.685164496,0.0,10.0,0.0,0.0,0.0,10.0,0.0,0.0,0.0,10.0,1.29083418036,0.80946781333,-2.06062089345,1.0,0.0,0.0,0.0,1.0,0.0,0.0,0.0,1.0,3.58773925781,-2.94467651367,12.3666833496,0.1,0.0,0.0,0.0,0.1,0.0,0.0,0.0,0.1
1446035586386154958,180,1446035586384210109,robocape,14.4117119587,16.0132773888,135.957229286,0.0,10.0,0.0,0.0,0.0,10.0,0.0,0.0,0.0,10.0,1.62772405826,0.589091233126,-2.04743824605,1.0,0.0,0.0,0.0,1.0,0.0,0.0,0.0,1.0,-0.282612304688,-1.74117919922,7.72992553711,0.1,0.0,0.0,0.0,0.1,0.0,0.0,0.0,0.1
1446035586419976167,181,1446035586418037891,robocape,16.748356414,17.2298133329,132.657254848,0.0,10.0,0.0,0.0,0.0,10.0,0.0,0.0,0.0,10.0,1.82306692421,0.513590616222,-1.8271948239,1.0,0.0,0.0,0.0,1.0,0.0,0.0,0.0,1.0,0.178428955078,-0.528101806641,10.959609375,0.1,0.0,0.0,0.0,0.1,0.0,0.0,0.0,0.1
1446035586452915333,182,1446035586451011896,robocape,19.2827032261,18.2401565688,129.804199708,0.0,10.0,0.0,0.0,0.0,10.0,0.0,0.0,0.0,10.0,1.88818121287,0.384160987244,-1.58218400362,1.0,0.0,0.0,0.0,1.0,0.0,0.0,0.0,1.0,-2.74828491211,-0.905317382813,8.3155078125,0.1,0.0,0.0,0.0,0.1,0.0,0.0,0.0,0.1
1446035586486277125,183,1446035586484375000,robocape,22.1733613218,19.2696025672,127.167389551,0.0,10.0,0.0,0.0,0.0,10.0,0.0,0.0,0.0,10.0,2.06980879921,0.401737850438,-1.50468601589,1.0,0.0,0.0,0.0,1.0,0.0,0.0,0.0,1.0,0.320932617188,-1.38072875977,10.2446960449,0.1,0.0,0.0,0.0,0.1,0.0,0.0,0.0,0.1
1446035586522227667,184,1446035586520441055,robocape,25.5220634268,20.0196280157,124.575560029,0.0,10.0,0.0,0.0,0.0,10.0,0.0,0.0,0.0,10.0,2.33332858907,0.132359106177,-1.40188799782,1.0,0.0,0.0,0.0,1.0,0.0,0.0,0.0,1.0,0.769998779297,-1.79386962891,7.54311401367,0.1,0.0,0.0,0.0,0.1,0.0,0.0,0.0,0.1
1446035586554021917,185,1446035586552241086,robocape,29.6826201326,20.7579799536,122.280717162,0.0,10.0,0.0,0.0,0.0,10.0,0.0,0.0,0.0,10.0,2.71775589243,0.122372252089,-1.27818416518,1.0,0.0,0.0,0.0,1.0,0.0,0.0,0.0,1.0,-2.06450683594,-1.07177124023,9.28549072266,0.1,0.0,0.0,0.0,0.1,0.0,0.0,0.0,0.1
1446035586587162875,186,1446035586585397958,robocape,34.5850052291,21.2931812212,120.353608588,0.0,10.0,0.0,0.0,0.0,10.0,0.0,0.0,0.0,10.0,3.03906627794,-0.0323574072445,-1.03583650599,1.0,0.0,0.0,0.0,1.0,0.0,0.0,0.0,1.0,-2.53991821289,-1.00590820312,7.77303588867,0.1,0.0,0.0,0.0,0.1,0.0,0.0,0.0,0.1
1446035586620845959,187,1446035586619055032,robocape,40.3860458358,21.6372523947,118.797524188,0.0,10.0,0.0,0.0,0.0,10.0,0.0,0.0,0.0,10.0,3.43068411624,-0.163251774822,-0.778175670521,1.0,0.0,0.0,0.0,1.0,0.0,0.0,0.0,1.0,-2.53393066406,-0.165256347656,7.39103027344,0.1,0.0,0.0,0.0,0.1,0.0,0.0,0.0,0.1
1446035586654313917,188,1446035586652533054,robocape,47.046497008,21.8254473802,117.856947852,0.0,10.0,0.0,0.0,0.0,10.0,0.0,0.0,0.0,10.0,3.73148816136,-0.160189139568,-0.443549479553,1.0,0.0,0.0,0.0,1.0,0.0,0.0,0.0,1.0,-2.59500366211,-0.358055419922,8.02571044922,0.1,0.0,0.0,0.0,0.1,0.0,0.0,0.0,0.1
1446035586687679959,189,1446035586685836076,robocape,54.5323501049,21.8709026098,117.616580394,0.0,10.0,0.0,0.0,0.0,10.0,0.0,0.0,0.0,10.0,3.98701846796,-0.0559263828917,-0.105461179167,1.0,0.0,0.0,0.0,1.0,0.0,0.0,0.0,1.0,-2.56506591797,-0.21076171875,4.77926147461,0.1,0.0,0.0,0.0,0.1,0.0,0.0,0.0,0.1
1446035586720393875,190,1446035586718555927,robocape,62.2718914927,21.4860521358,118.707457728,0.0,10.0,0.0,0.0,0.0,10.0,0.0,0.0,0.0,10.0,3.78075664153,0.222640267131,0.593751765033,1.0,0.0,0.0,0.0,1.0,0.0,0.0,0.0,1.0,2.65248413086,14.8826513672,10.024354248,0.1,0.0,0.0,0.0,0.1,0.0,0.0,0.0,0.1
1446035586753342000,191,1446035586751590967,robocape,64.8096416677,20.0216568637,123.481866193,0.0,10.0,0.0,0.0,0.0,10.0,0.0,0.0,0.0,10.0,0.183358641052,1.3615411073,2.2556974433,1.0,0.0,0.0,0.0,1.0,0.0,0.0,0.0,1.0,4.03201538086,19.6194012451,16.3484033203,0.1,0.0,0.0,0.0,0.1,0.0,0.0,0.0,0.1
1446035586786195542,192,1446035586784423112,robocape,63.8680681594,18.556180401,129.337002439,0.0,10.0,0.0,0.0,0.0,10.0,0.0,0.0,0.0,10.0,-1.77273317961,1.94224338299,2.40083972271,1.0,0.0,0.0,0.0,1.0,0.0,0.0,0.0,1.0,-6.00670898438,5.00080078125,9.52499267578,0.1,0.0,0.0,0.0,0.1,0.0,0.0,0.0,0.1
1446035586819870792,193,1446035586818094015,robocape,62.1175819011,17.2804575377,133.607997568,0.0,10.0,0.0,0.0,0.0,10.0,0.0,0.0,0.0,10.0,-1.76740685743,1.351021621,1.90882071131,1.0,0.0,0.0,0.0,1.0,0.0,0.0,0.0,1.0,-2.1040246582,1.37474121094,9.76928466797,0.1,0.0,0.0,0.0,0.1,0.0,0.0,0.0,0.1
1446035586853204042,194,1446035586851459980,robocape,60.1648714762,16.1689064927,137.04573008,0.0,10.0,0.0,0.0,0.0,10.0,0.0,0.0,0.0,10.0,-1.65155935001,1.04209493455,1.60628561148,1.0,0.0,0.0,0.0,1.0,0.0,0.0,0.0,1.0,-2.08007446289,0.387993164063,10.0327368164,0.1,0.0,0.0,0.0,0.1,0.0,0.0,0.0,0.1
1446035586886221500,195,1446035586884452104,robocape,57.98975891,15.1750524145,139.876820458,0.0,10.0,0.0,0.0,0.0,10.0,0.0,0.0,0.0,10.0,-1.61787036222,0.804940439476,1.3881727182,1.0,0.0,0.0,0.0,1.0,0.0,0.0,0.0,1.0,1.22625,0.622705078125,11.1883337402,0.1,0.0,0.0,0.0,0.1,0.0,0.0,0.0,0.1
1446035586920106709,196,1446035586918226957,robocape,55.631628187,14.0869217174,142.05364067,0.0,10.0,0.0,0.0,0.0,10.0,0.0,0.0,0.0,10.0,-1.57419452035,0.462058449129,1.28257838098,1.0,0.0,0.0,0.0,1.0,0.0,0.0,0.0,1.0,1.13763427734,0.195194091797,9.61121337891,0.1,0.0,0.0,0.0,0.1,0.0,0.0,0.0,0.1
1446035586953068292,197,1446035586951340913,robocape,53.091852508,13.0209276165,143.976963961,0.0,10.0,0.0,0.0,0.0,10.0,0.0,0.0,0.0,10.0,-1.60415508261,0.336224087623,1.19509353917,1.0,0.0,0.0,0.0,1.0,0.0,0.0,0.0,1.0,1.84536254883,0.209564208984,8.70350097656,0.1,0.0,0.0,0.0,0.1,0.0,0.0,0.0,0.1
1446035586986258792,198,1446035586984519958,robocape,50.3021744715,12.0609713732,145.52670721,0.0,10.0,0.0,0.0,0.0,10.0,0.0,0.0,0.0,10.0,-1.66287778465,0.198006027047,1.01799332668,1.0,0.0,0.0,0.0,1.0,0.0,0.0,0.0,1.0,0.166453857422,0.342487792969,10.7751928711,0.1,0.0,0.0,0.0,0.1,0.0,0.0,0.0,0.1
1446035587019694917,199,1446035587017915010,robocape,47.3895860832,11.268365947,147.008414366,0.0,10.0,0.0,0.0,0.0,10.0,0.0,0.0,0.0,10.0,-1.70309151711,0.211188674443,0.906540035063,1.0,0.0,0.0,0.0,1.0,0.0,0.0,0.0,1.0,1.44419677734,0.626297607422,8.02690795898,0.1,0.0,0.0,0.0,0.1,0.0,0.0,0.0,0.1
1446035587052684292,200,1446035587050951957,robocape,44.0553372577,10.4368958499,148.152781158,0.0,10.0,0.0,0.0,0.0,10.0,0.0,0.0,0.0,10.0,-1.8728680366,0.0307595105904,0.807869916676,1.0,0.0,0.0,0.0,1.0,0.0,0.0,0.0,1.0,0.979562988281,0.104183349609,8.7334387207,0.1,0.0,0.0,0.0,0.1,0.0,0.0,0.0,0.1
1446035587086261667,201,1446035587084527015,robocape,40.3756572863,9.53431170398,148.972981415,0.0,10.0,0.0,0.0,0.0,10.0,0.0,0.0,0.0,10.0,-2.01002083274,-0.153664394898,0.708800324125,1.0,0.0,0.0,0.0,1.0,0.0,0.0,0.0,1.0,-2.92791137695,0.136516113281,7.80417114258,0.1,0.0,0.0,0.0,0.1,0.0,0.0,0.0,0.1
1446035587121009292,202,1446035587119219064,robocape,36.5108542027,9.44455724377,150.386466089,0.0,10.0,0.0,0.0,0.0,10.0,0.0,0.0,0.0,10.0,-2.15902469573,0.407463646782,0.606401780211,1.0,0.0,0.0,0.0,1.0,0.0,0.0,0.0,1.0,-0.585582275391,0.602347412109,13.7462145996,0.1,0.0,0.0,0.0,0.1,0.0,0.0,0.0,0.1
1446035587152775334,203,1446035587151063919,robocape,32.1562849761,8.88885745974,151.062736988,0.0,10.0,0.0,0.0,0.0,10.0,0.0,0.0,0.0,10.0,-2.34318228511,-0.0966727475699,0.488556901975,1.0,0.0,0.0,0.0,1.0,0.0,0.0,0.0,1.0,0.0131726074219,0.264649658203,5.04630615234,0.1,0.0,0.0,0.0,0.1,0.0,0.0,0.0,0.1
1446035587186108792,204,1446035587184339046,robocape,27.376183859,8.98546934165,151.690948086,0.0,10.0,0.0,0.0,0.0,10.0,0.0,0.0,0.0,10.0,-2.560363072,0.214384467751,0.251136090794,1.0,0.0,0.0,0.0,1.0,0.0,0.0,0.0,1.0,-1.23583007813,-0.228724365234,8.06882080078,0.1,0.0,0.0,0.0,0.1,0.0,0.0,0.0,0.1
1446035587219902084,205,1446035587217753887,robocape,22.3884622193,8.79271875116,151.823160774,0.0,10.0,0.0,0.0,0.0,10.0,0.0,0.0,0.0,10.0,-2.62494472844,-0.0822916776834,0.113450662437,1.0,0.0,0.0,0.0,1.0,0.0,0.0,0.0,1.0,2.45130249023,-0.00119750976563,9.11065429688,0.1,0.0,0.0,0.0,0.1,0.0,0.0,0.0,0.1
1446035587252658709,206,1446035587250897884,robocape,16.919166933,9.01977952487,151.768527807,0.0,10.0,0.0,0.0,0.0,10.0,0.0,0.0,0.0,10.0,-2.86103395907,0.126366993724,-0.0751011427402,1.0,0.0,0.0,0.0,1.0,0.0,0.0,0.0,1.0,4.70142333984,-0.397573242188,9.73575439453,0.1,0.0,0.0,0.0,0.1,0.0,0.0,0.0,0.1
1446035587286157709,207,1446035587284260034,robocape,11.155909391,9.26426149398,151.26352973,0.0,10.0,0.0,0.0,0.0,10.0,0.0,0.0,0.0,10.0,-2.97395198929,0.0884169481906,-0.290817191037,1.0,0.0,0.0,0.0,1.0,0.0,0.0,0.0,1.0,0.753233642578,-0.8047265625,7.06770263672,0.1,0.0,0.0,0.0,0.1,0.0,0.0,0.0,0.1
1446035587319512126,208,1446035587317711114,robocape,5.184132355,10.0251784306,150.461304993,0.0,10.0,0.0,0.0,0.0,10.0,0.0,0.0,0.0,10.0,-3.05171629312,0.429434725775,-0.47923583816,1.0,0.0,0.0,0.0,1.0,0.0,0.0,0.0,1.0,0.849034423828,-2.27287353516,9.53577026367,0.1,0.0,0.0,0.0,0.1,0.0,0.0,0.0,0.1
1446035587353318792,209,1446035587351561069,robocape,0.298817242841,10.7957176424,148.415172615,0.0,10.0,0.0,0.0,0.0,10.0,0.0,0.0,0.0,10.0,-2.34331544316,0.458995813875,-1.07352023541,1.0,0.0,0.0,0.0,1.0,0.0,0.0,0.0,1.0,11.4218481445,-15.2323242188,13.4444421387,0.1,0.0,0.0,0.0,0.1,0.0,0.0,0.0,0.1
1446035587386589334,210,1446035587384712934,robocape,0.407686878292,13.0030726188,143.997469431,0.0,10.0,0.0,0.0,0.0,10.0,0.0,0.0,0.0,10.0,0.59987703554,1.51094444446,-2.25982534299,1.0,0.0,0.0,0.0,1.0,0.0,0.0,0.0,1.0,2.94587402344,-12.5043969727,17.8872033691,0.1,0.0,0.0,0.0,0.1,0.0,0.0,0.0,0.1
1446035587419747001,211,1446035587417949914,robocape,1.79401801041,15.0846149182,140.302314065,0.0,10.0,0.0,0.0,0.0,10.0,0.0,0.0,0.0,10.0,1.27552100409,1.5032212773,-1.88605068399,1.0,0.0,0.0,0.0,1.0,0.0,0.0,0.0,1.0,-2.34592163086,-2.52674560547,7.32516723633,0.1,0.0,0.0,0.0,0.1,0.0,0.0,0.0,0.1
1446035587452851334,212,1446035587451118946,robocape,3.19380677945,16.4853264478,137.260801343,0.0,10.0,0.0,0.0,0.0,10.0,0.0,0.0,0.0,10.0,1.25195202845,1.03330650295,-1.55302238968,1.0,0.0,0.0,0.0,1.0,0.0,0.0,0.0,1.0,-1.71962402344,-1.75315429688,12.1104162598,0.1,0.0,0.0,0.0,0.1,0.0,0.0,0.0,0.1
1446035587486099542,213,1446035587484361886,robocape,4.46683386719,17.3610091453,134.597148822,0.0,10.0,0.0,0.0,0.0,10.0,0.0,0.0,0.0,10.0,1.16073876111,0.628506017259,-1.34982319851,1.0,0.0,0.0,0.0,1.0,0.0,0.0,0.0,1.0,-2.25970092773,-1.29331054688,11.0949279785,0.1,0.0,0.0,0.0,0.1,0.0,0.0,0.0,0.1
1446035587519479876,214,1446035587517714023,robocape,5.67417682946,18.2113872421,132.103823636,0.0,10.0,0.0,0.0,0.0,10.0,0.0,0.0,0.0,10.0,1.12385398001,0.61079599601,-1.26886310137,1.0,0.0,0.0,0.0,1.0,0.0,0.0,0.0,1.0,-0.437091064453,-0.993933105469,8.84360961914,0.1,0.0,0.0,0.0,0.1,0.0,0.0,0.0,0.1
1446035587553116167,215,1446035587551300048,robocape,6.88023406018,19.0029821235,129.800707096,0.0,10.0,0.0,0.0,0.0,10.0,0.0,0.0,0.0,10.0,1.11186975511,0.568584892732,-1.17578562127,1.0,0.0,0.0,0.0,1.0,0.0,0.0,0.0,1.0,-3.68354003906,-1.72920410156,9.57049804688,0.1,0.0,0.0,0.0,0.1,0.0,0.0,0.0,0.1
1446035587586197167,216,1446035587584285974,robocape,8.09741228326,19.8455001177,127.774912639,0.0,10.0,0.0,0.0,0.0,10.0,0.0,0.0,0.0,10.0,1.08337393144,0.632767075003,-1.05421231751,1.0,0.0,0.0,0.0,1.0,0.0,0.0,0.0,1.0,-2.11360473633,-1.41186401367,12.1762792969,0.1,0.0,0.0,0.0,0.1,0.0,0.0,0.0,0.1
1446035587619690459,217,1446035587617625951,robocape,9.272928655,20.2697743903,125.696390863,0.0,10.0,0.0,0.0,0.0,10.0,0.0,0.0,0.0,10.0,1.09216236304,0.243812397797,-1.0273143905,1.0,0.0,0.0,0.0,1.0,0.0,0.0,0.0,1.0,1.34600097656,-1.03584594727,9.00287841797,0.1,0.0,0.0,0.0,0.1,0.0,0.0,0.0,0.1
1446035587653165417,218,1446035587651303052,robocape,10.6985366447,20.842120941,123.806222329,0.0,10.0,0.0,0.0,0.0,10.0,0.0,0.0,0.0,10.0,1.19389511668,0.385492567789,-0.964596946827,1.0,0.0,0.0,0.0,1.0,0.0,0.0,0.0,1.0,-2.53393066406,-1.17236206055,12.4708666992,0.1,0.0,0.0,0.0,0.1,0.0,0.0,0.0,0.1
1446035587686241626,219,1446035587684406042,robocape,12.2438071877,21.3571711198,122.013626683,0.0,10.0,0.0,0.0,0.0,10.0,0.0,0.0,0.0,10.0,1.24809044487,0.329965659061,-0.913863728061,1.0,0.0,0.0,0.0,1.0,0.0,0.0,0.0,1.0,1.04422851562,-0.816701660156,9.20166503906,0.1,0.0,0.0,0.0,0.1,0.0,0.0,0.0,0.1
1446035587719410667,220,1446035587717571973,robocape,13.9610736655,21.6313514443,120.26307159,0.0,10.0,0.0,0.0,0.0,10.0,0.0,0.0,0.0,10.0,1.33837160582,0.08455536461,-0.846086278318,1.0,0.0,0.0,0.0,1.0,0.0,0.0,0.0,1.0,-0.336500244141,-0.814306640625,10.8398583984,0.1,0.0,0.0,0.0,0.1,0.0,0.0,0.0,0.1
1446035587752964126,221,1446035587751188993,robocape,15.9516521247,22.0083567013,118.711425332,0.0,10.0,0.0,0.0,0.0,10.0,0.0,0.0,0.0,10.0,1.43943856919,0.187220224633,-0.784034624919,1.0,0.0,0.0,0.0,1.0,0.0,0.0,0.0,1.0,1.43102416992,-0.9196875,10.6614294434,0.1,0.0,0.0,0.0,0.1,0.0,0.0,0.0,0.1
1446035587786150209,222,1446035587784244060,robocape,18.2361825944,22.2853216645,117.271898919,0.0,10.0,0.0,0.0,0.0,10.0,0.0,0.0,0.0,10.0,1.57206399147,0.0814927293564,-0.709066640234,1.0,0.0,0.0,0.0,1.0,0.0,0.0,0.0,1.0,2.40340209961,-0.726888427734,9.34177368164,0.1,0.0,0.0,0.0,0.1,0.0,0.0,0.0,0.1
1446035587819709501,223,1446035587817675113,robocape,20.8283876106,22.6841332426,116.042467168,0.0,10.0,0.0,0.0,0.0,10.0,0.0,0.0,0.0,10.0,1.68498202169,0.210123410007,-0.662993953375,1.0,0.0,0.0,0.0,1.0,0.0,0.0,0.0,1.0,1.61424316406,-0.526904296875,10.7943530273,0.1,0.0,0.0,0.0,0.1,0.0,0.0,0.0,0.1
1446035587854599876,224,1446035587852387905,robocape,23.8268575385,22.9866016578,114.939991177,0.0,10.0,0.0,0.0,0.0,10.0,0.0,0.0,0.0,10.0,1.87020487551,0.112518556056,-0.579903327365,1.0,0.0,0.0,0.0,1.0,0.0,0.0,0.0,1.0,-0.598754882812,-0.796343994141,6.88927368164,0.1,0.0,0.0,0.0,0.1,0.0,0.0,0.0,0.1
1446035587887795876,225,1446035587885459899,robocape,27.3318868571,23.2355331323,114.134035151,0.0,10.0,0.0,0.0,0.0,10.0,0.0,0.0,0.0,10.0,2.05862352263,0.0896153706812,-0.440620002354,1.0,0.0,0.0,0.0,1.0,0.0,0.0,0.0,1.0,-2.48243774414,-0.385598144531,10.847043457,0.1,0.0,0.0,0.0,0.1,0.0,0.0,0.0,0.1
1446035587921317542,226,1446035587919306993,robocape,31.0562753091,23.3585090751,113.492809826,0.0,10.0,0.0,0.0,0.0,10.0,0.0,0.0,0.0,10.0,2.12999623985,-0.0205063403936,-0.314119850575,1.0,0.0,0.0,0.0,1.0,0.0,0.0,0.0,1.0,-3.88232666016,-0.262254638672,9.14178955078,0.1,0.0,0.0,0.0,0.1,0.0,0.0,0.0,0.1
1446035587954564668,227,1446035587952331066,robocape,35.006027849,23.3610471956,113.187239425,0.0,10.0,0.0,0.0,0.0,10.0,0.0,0.0,0.0,10.0,2.15463047993,-0.0713727172141,-0.114915401037,1.0,0.0,0.0,0.0,1.0,0.0,0.0,0.0,1.0,-5.56842041016,0.350870361328,7.88200927734,0.1,0.0,0.0,0.0,0.1,0.0,0.0,0.0,0.1
1446035587987928751,228,1446035587986013889,robocape,39.5145406983,23.6503670362,114.471120215,0.0,10.0,0.0,0.0,0.0,10.0,0.0,0.0,0.0,10.0,1.99856924005,0.599211245268,0.255663464648,1.0,0.0,0.0,0.0,1.0,0.0,0.0,0.0,1.0,-2.13156738281,2.40340209961,14.8982189941,0.1,0.0,0.0,0.0,0.1,0.0,0.0,0.0,0.1
1446035588021079084,229,1446035588019155979,robocape,43.4558063644,23.4940711286,115.418249257,0.0,10.0,0.0,0.0,0.0,10.0,0.0,0.0,0.0,10.0,1.79550320693,0.145408595518,0.42810314523,1.0,0.0,0.0,0.0,1.0,0.0,0.0,0.0,1.0,-1.24181762695,0.778381347656,6.39829467773,0.1,0.0,0.0,0.0,0.1,0.0,0.0,0.0,0.1
1446035588054347709,230,1446035588052578926,robocape,47.22432382,23.2666971664,117.095948043,0.0,10.0,0.0,0.0,0.0,10.0,0.0,0.0,0.0,10.0,1.50282180313,0.351137789727,0.700278208636,1.0,0.0,0.0,0.0,1.0,0.0,0.0,0.0,1.0,-6.75635009766,2.47046264648,13.5546130371,0.1,0.0,0.0,0.0,0.1,0.0,0.0,0.0,0.1
1446035588087781584,231,1446035588086015939,robocape,50.3114397429,22.8098478703,118.613865128,0.0,10.0,0.0,0.0,0.0,10.0,0.0,0.0,0.0,10.0,1.19908828081,0.182293376616,0.818389402981,1.0,0.0,0.0,0.0,1.0,0.0,0.0,0.0,1.0,-1.25139770508,1.40467895508,7.71555541992,0.1,0.0,0.0,0.0,0.1,0.0,0.0,0.0,0.1
1446035588124129584,232,1446035588120497941,robocape,53.2269345529,22.4230786751,120.817378821,0.0,10.0,0.0,0.0,0.0,10.0,0.0,0.0,0.0,10.0,0.93543533289,0.524909050855,0.935169016781,1.0,0.0,0.0,0.0,1.0,0.0,0.0,0.0,1.0,-2.61416381836,3.05963745117,12.9594506836,0.1,0.0,0.0,0.0,0.1,0.0,0.0,0.0,0.1
1446035588156637626,233,1446035588153588056,robocape,55.5482822829,21.8392432057,122.691723033,0.0,10.0,0.0,0.0,0.0,10.0,0.0,0.0,0.0,10.0,0.726909819537,0.341017777585,0.985902235547,1.0,0.0,0.0,0.0,1.0,0.0,0.0,0.0,1.0,-0.913699951172,1.36516113281,7.66885253906,0.1,0.0,0.0,0.0,0.1,0.0,0.0,0.0,0.1
1446035588191732459,234,1446035588188045024,robocape,57.5088696385,21.3041019505,124.955647647,0.0,10.0,0.0,0.0,0.0,10.0,0.0,0.0,0.0,10.0,0.456066336676,0.570715421604,1.02118911999,1.0,0.0,0.0,0.0,1.0,0.0,0.0,0.0,1.0,3.43445800781,1.66693359375,11.1440258789,0.1,0.0,0.0,0.0,0.1,0.0,0.0,0.0,0.1
1446035588220895001,235,1446035588219124078,robocape,59.1639197445,20.7488369078,127.271272037,0.0,10.0,0.0,0.0,0.0,10.0,0.0,0.0,0.0,10.0,0.302268783724,0.628772333368,1.02518386163,1.0,0.0,0.0,0.0,1.0,0.0,0.0,0.0,1.0,0.0634680175781,1.09093139648,10.4830004883,0.1,0.0,0.0,0.0,0.1,0.0,0.0,0.0,0.1
1446035588255656959,236,1446035588253781080,robocape,60.5505250024,20.2128941429,129.850002734,0.0,10.0,0.0,0.0,0.0,10.0,0.0,0.0,0.0,10.0,0.118643826563,0.786830944064,1.04688862451,1.0,0.0,0.0,0.0,1.0,0.0,0.0,0.0,1.0,2.60697875977,1.61544067383,12.5882226563,0.1,0.0,0.0,0.0,0.1,0.0,0.0,0.0,0.1
1446035588290345001,237,1446035588288108110,robocape,61.5263913967,19.4962328067,132.117462842,0.0,10.0,0.0,0.0,0.0,10.0,0.0,0.0,0.0,10.0,-0.00226368692657,0.615856002081,1.09855394966,1.0,0.0,0.0,0.0,1.0,0.0,0.0,0.0,1.0,-0.0934057617188,1.7280065918,11.4577734375,0.1,0.0,0.0,0.0,0.1,0.0,0.0,0.0,0.1
1446035588328035126,238,1446035588323625087,robocape,62.0878261987,18.7339441513,134.502586447,0.0,10.0,0.0,0.0,0.0,10.0,0.0,0.0,0.0,10.0,-0.220509738259,0.680703974624,1.13930031434,1.0,0.0,0.0,0.0,1.0,0.0,0.0,0.0,1.0,2.93868896484,1.8357824707,12.4624841309,0.1,0.0,0.0,0.0,0.1,0.0,0.0,0.0,0.1
1446035588356933501,239,1446035588354279041,robocape,62.1365724125,17.9790526564,136.503556405,0.0,10.0,0.0,0.0,0.0,10.0,0.0,0.0,0.0,10.0,-0.384693619462,0.546081181521,1.02957807742,1.0,0.0,0.0,0.0,1.0,0.0,0.0,0.0,1.0,-0.553249511719,0.386795654297,8.76577148438,0.1,0.0,0.0,0.0,0.1,0.0,0.0,0.0,0.1
1446035588390160834,240,1446035588388258934,robocape,62.0764814767,17.260389586,138.700403703,0.0,10.0,0.0,0.0,0.0,10.0,0.0,0.0,0.0,10.0,-0.459528446093,0.660863424503,1.03410545128,1.0,0.0,0.0,0.0,1.0,0.0,0.0,0.0,1.0,2.90635620117,1.71722900391,11.9487524414,0.1,0.0,0.0,0.0,0.1,0.0,0.0,0.0,0.1
1446035588423780251,241,1446035588421427011,robocape,61.6588558172,16.4995571649,140.663682358,0.0,10.0,0.0,0.0,0.0,10.0,0.0,0.0,0.0,10.0,-0.581634382073,0.555002771173,1.0021475182,1.0,0.0,0.0,0.0,1.0,0.0,0.0,0.0,1.0,0.765208740234,0.628692626953,14.2168359375,0.1,0.0,0.0,0.0,0.1,0.0,0.0,0.0,0.1
1446035588458753959,242,1446035588456947088,robocape,61.1607346957,15.8116857315,142.932080507,0.0,10.0,0.0,0.0,0.0,10.0,0.0,0.0,0.0,10.0,-0.658466579522,0.721050865139,1.01626227197,1.0,0.0,0.0,0.0,1.0,0.0,0.0,0.0,1.0,-3.11232788086,1.28492797852,9.35015625,0.1,0.0,0.0,0.0,0.1,0.0,0.0,0.0,0.1
1446035588489652751,243,1446035588487775087,robocape,60.2097160222,15.0131098128,144.968860349,0.0,10.0,0.0,0.0,0.0,10.0,0.0,0.0,0.0,10.0,-0.835433633958,0.579503853201,1.03477124155,1.0,0.0,0.0,0.0,1.0,0.0,0.0,0.0,1.0,-2.1423449707,1.20948486328,12.052935791,0.1,0.0,0.0,0.0,0.1,0.0,0.0,0.0,0.1
1446035588523497626,244,1446035588521514892,robocape,58.5998270086,14.016049102,146.264061554,0.0,10.0,0.0,0.0,0.0,10.0,0.0,0.0,0.0,10.0,-1.04289388288,0.176967054436,0.974317484805,1.0,0.0,0.0,0.0,1.0,0.0,0.0,0.0,1.0,-0.132923583984,0.611927490234,10.1967956543,0.1,0.0,0.0,0.0,0.1,0.0,0.0,0.0,0.1
1446035588555784626,245,1446035588553827047,robocape,56.8882416964,13.1378163661,147.784066745,0.0,10.0,0.0,0.0,0.0,10.0,0.0,0.0,0.0,10.0,-1.11320133565,0.306662999523,0.949283770559,1.0,0.0,0.0,0.0,1.0,0.0,0.0,0.0,1.0,0.567619628906,0.741258544922,8.01493286133,0.1,0.0,0.0,0.0,0.1,0.0,0.0,0.0,0.1
1446035588589003459,246,1446035588586895942,robocape,54.6246078283,12.244546165,149.211856863,0.0,10.0,0.0,0.0,0.0,10.0,0.0,0.0,0.0,10.0,-1.37392480637,0.242613975306,0.929709536547,1.0,0.0,0.0,0.0,1.0,0.0,0.0,0.0,1.0,-1.05979614258,1.16996704102,12.0744909668,0.1,0.0,0.0,0.0,0.1,0.0,0.0,0.0,0.1
1446035588621894501,247,1446035588619781017,robocape,52.0333650882,11.4345818973,150.523024054,0.0,10.0,0.0,0.0,0.0,10.0,0.0,0.0,0.0,10.0,-1.51693655691,0.202267084792,0.846752068591,1.0,0.0,0.0,0.0,1.0,0.0,0.0,0.0,1.0,-2.74229736328,0.602347412109,9.04239624023,0.1,0.0,0.0,0.0,0.1,0.0,0.0,0.0,0.1
1446035588655296501,248,1446035588653358936,robocape,48.9957041753,10.60846153,151.706026452,0.0,10.0,0.0,0.0,0.0,10.0,0.0,0.0,0.0,10.0,-1.72399733166,0.113583820492,0.813995187183,1.0,0.0,0.0,0.0,1.0,0.0,0.0,0.0,1.0,-1.24660766602,1.0346484375,10.1692529297,0.1,0.0,0.0,0.0,0.1,0.0,0.0,0.0,0.1
1446035588688474585,249,1446035588686429977,robocape,45.6942107023,9.82850859088,152.750993471,0.0,10.0,0.0,0.0,0.0,10.0,0.0,0.0,0.0,10.0,-1.83718167799,0.0470047932399,0.741024573315,1.0,0.0,0.0,0.0,1.0,0.0,0.0,0.0,1.0,-3.19854858398,0.199984130859,8.04008056641,0.1,0.0,0.0,0.0,0.1,0.0,0.0,0.0,0.1
1446035588721884418,250,1446035588720011949,robocape,41.9026395413,9.12040345234,153.653336236,0.0,10.0,0.0,0.0,0.0,10.0,0.0,0.0,0.0,10.0,-2.07180617003,-0.00772316716123,0.651542360688,1.0,0.0,0.0,0.0,1.0,0.0,0.0,0.0,1.0,2.2573059082,0.397573242188,12.2756726074,0.1,0.0,0.0,0.0,0.1,0.0,0.0,0.0,0.1
1446035588755477001,251,1446035588753705978,robocape,37.7900728858,8.69765108691,154.424491038,0.0,10.0,0.0,0.0,0.0,10.0,0.0,0.0,0.0,10.0,-2.22280740383,0.0490021640575,0.47777109956,1.0,0.0,0.0,0.0,1.0,0.0,0.0,0.0,1.0,-1.58909545898,-0.193996582031,6.89166870117,0.1,0.0,0.0,0.0,0.1,0.0,0.0,0.0,0.1
1446035588788402501,252,1446035588786573886,robocape,33.366218437,8.70001020867,155.260955189,0.0,10.0,0.0,0.0,0.0,10.0,0.0,0.0,0.0,10.0,-2.38992076224,0.252733987449,0.350738315563,1.0,0.0,0.0,0.0,1.0,0.0,0.0,0.0,1.0,0.474213867188,-0.773591308594,13.4264794922,0.1,0.0,0.0,0.0,0.1,0.0,0.0,0.0,0.1
1446035588821764335,253,1446035588819792032,robocape,28.6576179021,8.19207273309,155.163493749,0.0,10.0,0.0,0.0,0.0,10.0,0.0,0.0,0.0,10.0,-2.45863031836,-0.29920614847,0.121040671544,1.0,0.0,0.0,0.0,1.0,0.0,0.0,0.0,1.0,0.0981958007813,-0.614322509766,5.76960205078,0.1,0.0,0.0,0.0,0.1,0.0,0.0,0.0,0.1
1446035588854723751,254,1446035588852957963,robocape,24.0507510873,8.53231739098,155.231377022,0.0,10.0,0.0,0.0,0.0,10.0,0.0,0.0,0.0,10.0,-2.41908237617,0.206528142536,-0.0631169178349,1.0,0.0,0.0,0.0,1.0,0.0,0.0,0.0,1.0,1.51844238281,-1.61663818359,12.8923901367,0.1,0.0,0.0,0.0,0.1,0.0,0.0,0.0,0.1
1446035588887030751,255,1446035588885116100,robocape,19.5983635817,9.02627675954,154.832132663,0.0,10.0,0.0,0.0,0.0,10.0,0.0,0.0,0.0,10.0,-2.29750907241,0.213585519424,-0.307728263959,1.0,0.0,0.0,0.0,1.0,0.0,0.0,0.0,1.0,3.47277832031,-1.43102416992,5.81989746094,0.1,0.0,0.0,0.0,0.1,0.0,0.0,0.0,0.1
1446035588921619585,256,1446035588919780969,robocape,15.3693446565,9.93048921496,154.191763065,0.0,10.0,0.0,0.0,0.0,10.0,0.0,0.0,0.0,10.0,-2.15436416382,0.456998443058,-0.48988848252,1.0,0.0,0.0,0.0,1.0,0.0,0.0,0.0,1.0,-2.86444335938,-2.23096069336,13.2456555176,0.1,0.0,0.0,0.0,0.1,0.0,0.0,0.0,0.1
1446035588953852376,257,1446035588952083110,robocape,11.3890380847,10.9219981367,152.879523699,0.0,10.0,0.0,0.0,0.0,10.0,0.0,0.0,0.0,10.0,-1.94610496658,0.482564789522,-0.806937810294,1.0,0.0,0.0,0.0,1.0,0.0,0.0,0.0,1.0,1.44299926758,-2.24173828125,7.07967773438,0.1,0.0,0.0,0.0,0.1,0.0,0.0,0.0,0.1
1446035588986801460,258,1446035588985063076,robocape,7.96935404988,11.9814302456,151.149509808,0.0,10.0,0.0,0.0,0.0,10.0,0.0,0.0,0.0,10.0,-1.58777664191,0.563258570552,-0.992027506055,1.0,0.0,0.0,0.0,1.0,0.0,0.0,0.0,1.0,-2.6405090332,-2.88719604492,11.7427807617,0.1,0.0,0.0,0.0,0.1,0.0,0.0,0.0,0.1
1446035589019986293,259,1446035589018270015,robocape,5.09613088311,13.5917163093,149.10043,0.0,10.0,0.0,0.0,0.0,10.0,0.0,0.0,0.0,10.0,-1.23157884611,1.01746069446,-1.16140455138,1.0,0.0,0.0,0.0,1.0,0.0,0.0,0.0,1.0,-3.32787963867,-3.83203125,16.0574084473,0.1,0.0,0.0,0.0,0.1,0.0,0.0,0.0,0.1
1446035589053012876,260,1446035589051278114,robocape,3.15760482862,14.803665162,146.754309001,0.0,10.0,0.0,0.0,0.0,10.0,0.0,0.0,0.0,10.0,-0.662195005048,0.813196238856,-1.23876938105,1.0,0.0,0.0,0.0,1.0,0.0,0.0,0.0,1.0,3.01772460938,-5.03313354492,10.5776037598,0.1,0.0,0.0,0.0,0.1,0.0,0.0,0.0,0.1
1446035589086190335,261,1446035589084445953,robocape,2.82620940494,16.0025644324,143.867902169,0.0,10.0,0.0,0.0,0.0,10.0,0.0,0.0,0.0,10.0,0.304532470651,0.852211548825,-1.48071756608,1.0,0.0,0.0,0.0,1.0,0.0,0.0,0.0,1.0,2.42615478516,-3.99249755859,15.5436767578,0.1,0.0,0.0,0.0,0.1,0.0,0.0,0.0,0.1
1446035589119473626,262,1446035589117583036,robocape,2.87045292895,16.9018233126,141.176863459,0.0,10.0,0.0,0.0,0.0,10.0,0.0,0.0,0.0,10.0,0.505467974897,0.656735524814,-1.3586116301,1.0,0.0,0.0,0.0,1.0,0.0,0.0,0.0,1.0,-1.32684082031,-1.53401000977,8.18617675781,0.1,0.0,0.0,0.0,0.1,0.0,0.0,0.0,0.1
1446035589152761710,263,1446035589151062965,robocape,3.08870538666,18.0383807378,138.651147956,0.0,10.0,0.0,0.0,0.0,10.0,0.0,0.0,0.0,10.0,0.601474932194,0.88576737856,-1.27765153297,1.0,0.0,0.0,0.0,1.0,0.0,0.0,0.0,1.0,2.45968505859,-2.81055541992,12.1834643555,0.1,0.0,0.0,0.0,0.1,0.0,0.0,0.0,0.1
1446035589186106668,264,1446035589184386968,robocape,3.50253942105,19.078130954,136.079118255,0.0,10.0,0.0,0.0,0.0,10.0,0.0,0.0,0.0,10.0,0.751410901566,0.836765214503,-1.28670628067,1.0,0.0,0.0,0.0,1.0,0.0,0.0,0.0,1.0,-1.70405639648,-1.92799072266,11.7511633301,0.1,0.0,0.0,0.0,0.1,0.0,0.0,0.0,0.1
1446035589219855043,265,1446035589217915058,robocape,4.15697281009,19.8520966655,133.480084059,0.0,10.0,0.0,0.0,0.0,10.0,0.0,0.0,0.0,10.0,0.916393731096,0.619717585661,-1.2787167974,1.0,0.0,0.0,0.0,1.0,0.0,0.0,0.0,1.0,4.43797119141,-2.38783447266,8.8555847168,0.1,0.0,0.0,0.0,0.1,0.0,0.0,0.0,0.1
1446035589252731668,266,1446035589250974893,robocape,5.07334667292,20.7345734184,131.141950475,0.0,10.0,0.0,0.0,0.0,10.0,0.0,0.0,0.0,10.0,1.02425175524,0.742089837751,-1.160472445,1.0,0.0,0.0,0.0,1.0,0.0,0.0,0.0,1.0,2.66086669922,-2.37705688477,13.2648156738,0.1,0.0,0.0,0.0,0.1,0.0,0.0,0.0,0.1
1446035589286033918,267,1446035589284183979,robocape,6.15138696614,21.461987567,128.781929292,0.0,10.0,0.0,0.0,0.0,10.0,0.0,0.0,0.0,10.0,1.14236294959,0.603072828848,-1.15727665169,1.0,0.0,0.0,0.0,1.0,0.0,0.0,0.0,1.0,0.379610595703,-1.73279663086,10.4123474121,0.1,0.0,0.0,0.0,0.1,0.0,0.0,0.0,0.1
1446035589324930793,268,1446035589317552089,robocape,7.38829670732,22.0688828303,126.520799326,0.0,10.0,0.0,0.0,0.0,10.0,0.0,0.0,0.0,10.0,1.22438831116,0.488956376139,-1.09975237215,1.0,0.0,0.0,0.0,1.0,0.0,0.0,0.0,1.0,-2.85007324219,-1.82021484375,10.0363293457,0.1,0.0,0.0,0.0,0.1,0.0,0.0,0.0,0.1
1446035589353016502,269,1446035589351249933,robocape,8.86835141873,22.5358448194,124.378598981,0.0,10.0,0.0,0.0,0.0,10.0,0.0,0.0,0.0,10.0,1.3393037122,0.344613045056,-1.02891228715,1.0,0.0,0.0,0.0,1.0,0.0,0.0,0.0,1.0,-2.63931152344,-1.13044921875,7.96343994141,0.1,0.0,0.0,0.0,0.1,0.0,0.0,0.0,0.1
1446035589386071502,270,1446035589384176969,robocape,10.5860941327,23.0258498276,122.503200162,0.0,10.0,0.0,0.0,0.0,10.0,0.0,0.0,0.0,10.0,1.40774695222,0.374307291211,-0.917059521369,1.0,0.0,0.0,0.0,1.0,0.0,0.0,0.0,1.0,-6.29650634766,-1.6130456543,12.2517224121,0.1,0.0,0.0,0.0,0.1,0.0,0.0,0.0,0.1
1446035589419939543,271,1446035589418143987,robocape,12.5587342072,23.305722745,120.570044133,0.0,10.0,0.0,0.0,0.0,10.0,0.0,0.0,0.0,10.0,1.56886819817,0.127032783997,-0.903077925646,1.0,0.0,0.0,0.0,1.0,0.0,0.0,0.0,1.0,-0.787961425781,-1.23822509766,9.18849243164,0.1,0.0,0.0,0.0,0.1,0.0,0.0,0.0,0.1
1446035589452816543,272,1446035589451086044,robocape,14.8610129937,23.7249923844,118.971862516,0.0,10.0,0.0,0.0,0.0,10.0,0.0,0.0,0.0,10.0,1.65781777857,0.286689291347,-0.795219901498,1.0,0.0,0.0,0.0,1.0,0.0,0.0,0.0,1.0,1.07296875,-0.877774658203,10.8721911621,0.1,0.0,0.0,0.0,0.1,0.0,0.0,0.0,0.1
1446035589486075877,273,1446035589484359025,robocape,17.3669030324,23.9603048599,117.419713547,0.0,10.0,0.0,0.0,0.0,10.0,0.0,0.0,0.0,10.0,1.75981684832,0.068176923906,-0.726377187319,1.0,0.0,0.0,0.0,1.0,0.0,0.0,0.0,1.0,1.44778930664,-0.713715820313,10.8195007324,0.1,0.0,0.0,0.0,0.1,0.0,0.0,0.0,0.1
1446035589519553543,274,1446035589517801046,robocape,20.2666298136,24.2309496274,116.125170716,0.0,10.0,0.0,0.0,0.0,10.0,0.0,0.0,0.0,10.0,1.89736911863,0.113716978546,-0.633166549166,1.0,0.0,0.0,0.0,1.0,0.0,0.0,0.0,1.0,1.06458618164,-0.729283447266,10.5572460938,0.1,0.0,0.0,0.0,0.1,0.0,0.0,0.0,0.1
1446035589552705085,275,1446035589550964117,robocape,23.5747540785,24.3965521084,115.062093988,0.0,10.0,0.0,0.0,0.0,10.0,0.0,0.0,0.0,10.0,2.04757140411,0.00785632521573,-0.498410598008,1.0,0.0,0.0,0.0,1.0,0.0,0.0,0.0,1.0,0.514929199219,-0.241896972656,6.04023925781,0.1,0.0,0.0,0.0,0.1,0.0,0.0,0.0,0.1
1446035589586148460,276,1446035589584424018,robocape,27.0605282075,24.5550892401,114.442573462,0.0,10.0,0.0,0.0,0.0,10.0,0.0,0.0,0.0,10.0,2.01095293912,0.0549942765101,-0.320910911355,1.0,0.0,0.0,0.0,1.0,0.0,0.0,0.0,1.0,0.622705078125,0.0706530761719,12.8037744141,0.1,0.0,0.0,0.0,0.1,0.0,0.0,0.0,0.1
1446035589619530293,277,1446035589617844104,robocape,30.8024435637,24.7454028388,114.327506964,0.0,10.0,0.0,0.0,0.0,10.0,0.0,0.0,0.0,10.0,1.99470765647,0.174703367509,-0.152865446571,1.0,0.0,0.0,0.0,1.0,0.0,0.0,0.0,1.0,2.09803710938,0.480201416016,6.82820068359,0.1,0.0,0.0,0.0,0.1,0.0,0.0,0.0,0.1
1446035589652563627,278,1446035589650835990,robocape,34.4391411205,24.7847706812,114.570632427,0.0,10.0,0.0,0.0,0.0,10.0,0.0,0.0,0.0,10.0,1.83092324943,0.0957406411883,0.0619184953443,1.0,0.0,0.0,0.0,1.0,0.0,0.0,0.0,1.0,-0.792751464844,1.02506835938,10.4770129395,0.1,0.0,0.0,0.0,0.1,0.0,0.0,0.0,0.1
1446035589686014752,279,1446035589684252977,robocape,37.8019661138,24.6408991485,115.052768943,0.0,10.0,0.0,0.0,0.0,10.0,0.0,0.0,0.0,10.0,1.61520720113,-0.0175768631945,0.267914005662,1.0,0.0,0.0,0.0,1.0,0.0,0.0,0.0,1.0,-2.55668334961,1.37953125,7.83889892578,0.1,0.0,0.0,0.0,0.1,0.0,0.0,0.0,0.1
1446035589720030960,280,1446035589718265056,robocape,41.1424979101,24.5799354472,116.350456601,0.0,10.0,0.0,0.0,0.0,10.0,0.0,0.0,0.0,10.0,1.35874478816,0.297608251816,0.475374254579,1.0,0.0,0.0,0.0,1.0,0.0,0.0,0.0,1.0,-0.678988037109,1.99744628906,13.9725439453,0.1,0.0,0.0,0.0,0.1,0.0,0.0,0.0,0.1
1446035589752706043,281,1446035589750950098,robocape,44.0965125887,24.4878429125,117.839174165,0.0,10.0,0.0,0.0,0.0,10.0,0.0,0.0,0.0,10.0,1.10068447853,0.352735686381,0.544216968758,1.0,0.0,0.0,0.0,1.0,0.0,0.0,0.0,1.0,-4.1805065918,1.44060424805,8.49633178711,0.1,0.0,0.0,0.0,0.1,0.0,0.0,0.0,0.1
1446035589786010252,282,1446035589784116983,robocape,46.7554402198,24.3278052221,119.832989565,0.0,10.0,0.0,0.0,0.0,10.0,0.0,0.0,0.0,10.0,0.798948327024,0.480167944541,0.73676351557,1.0,0.0,0.0,0.0,1.0,0.0,0.0,0.0,1.0,-2.1040246582,2.40100708008,14.4323876953,0.1,0.0,0.0,0.0,0.1,0.0,0.0,0.0,0.1
1446035589819513418,283,1446035589817739963,robocape,48.9070421687,24.0660187121,121.402922122,0.0,10.0,0.0,0.0,0.0,10.0,0.0,0.0,0.0,10.0,0.664991324193,0.300537729015,0.681502922951,1.0,0.0,0.0,0.0,1.0,0.0,0.0,0.0,1.0,1.50047973633,1.06817871094,8.11073364258,0.1,0.0,0.0,0.0,0.1,0.0,0.0,0.0,0.1
1446035589852746585,284,1446035589850996017,robocape,50.6191916463,23.9154677409,123.731778285,0.0,10.0,0.0,0.0,0.0,10.0,0.0,0.0,0.0,10.0,0.219710789932,0.66312711143,0.786830944064,1.0,0.0,0.0,0.0,1.0,0.0,0.0,0.0,1.0,5.04630615234,1.99864379883,14.9688720703,0.1,0.0,0.0,0.0,0.1,0.0,0.0,0.0,0.1
1446035589886029210,285,1446035589884109973,robocape,51.754026743,23.5578391815,125.621411179,0.0,10.0,0.0,0.0,0.0,10.0,0.0,0.0,0.0,10.0,0.0529969056926,0.392683102732,0.83343626314,1.0,0.0,0.0,0.0,1.0,0.0,0.0,0.0,1.0,4.32780029297,1.20708984375,7.61975463867,0.1,0.0,0.0,0.0,0.1,0.0,0.0,0.0,0.1
1446035589920277585,286,1446035589918359994,robocape,52.2246439817,23.0592470628,127.29343137,0.0,10.0,0.0,0.0,0.0,10.0,0.0,0.0,0.0,10.0,-0.220776054368,0.245543452505,0.888297381596,1.0,0.0,0.0,0.0,1.0,0.0,0.0,0.0,1.0,0.257464599609,1.6896862793,12.4253613281,0.1,0.0,0.0,0.0,0.1,0.0,0.0,0.0,0.1
1446035589952862918,287,1446035589950917959,robocape,52.29741073,22.5678334387,128.749988117,0.0,10.0,0.0,0.0,0.0,10.0,0.0,0.0,0.0,10.0,-0.357263060234,0.193744969303,0.815326767728,1.0,0.0,0.0,0.0,1.0,0.0,0.0,0.0,1.0,-0.585582275391,0.857416992188,7.90835449219,0.1,0.0,0.0,0.0,0.1,0.0,0.0,0.0,0.1
1446035589986212168,288,1446035589984347105,robocape,52.2828904771,22.1972301916,130.782574547,0.0,10.0,0.0,0.0,0.0,10.0,0.0,0.0,0.0,10.0,-0.545415391248,0.489489008357,0.868589989529,1.0,0.0,0.0,0.0,1.0,0.0,0.0,0.0,1.0,0.997525634766,1.17715209961,12.5990002441,0.1,0.0,0.0,0.0,0.1,0.0,0.0,0.0,0.1
1446035590019642543,289,1446035590017767906,robocape,51.5531023209,21.7550546956,132.333717737,0.0,10.0,0.0,0.0,0.0,10.0,0.0,0.0,0.0,10.0,-0.782703044374,0.276835595314,0.792423582353,1.0,0.0,0.0,0.0,1.0,0.0,0.0,0.0,1.0,-0.373623046875,0.335302734375,9.22441772461,0.1,0.0,0.0,0.0,0.1,0.0,0.0,0.0,0.1
1446035590052984710,290,1446035590051232099,robocape,50.6300589952,21.385987347,134.230956876,0.0,10.0,0.0,0.0,0.0,10.0,0.0,0.0,0.0,10.0,-0.961401153519,0.445147376207,0.835300475903,1.0,0.0,0.0,0.0,1.0,0.0,0.0,0.0,1.0,-3.84161132813,1.49209716797,12.967833252,0.1,0.0,0.0,0.0,0.1,0.0,0.0,0.0,0.1
1446035590086084210,291,1446035590084342956,robocape,49.2177212791,21.033232139,135.79548931,0.0,10.0,0.0,0.0,0.0,10.0,0.0,0.0,0.0,10.0,-1.12518556056,0.329299868788,0.731570351445,1.0,0.0,0.0,0.0,1.0,0.0,0.0,0.0,1.0,2.20701049805,0.634680175781,9.43996948242,0.1,0.0,0.0,0.0,0.1,0.0,0.0,0.0,0.1
1446035590119388044,292,1446035590117638111,robocape,47.5370241403,20.801447001,137.580735407,0.0,10.0,0.0,0.0,0.0,10.0,0.0,0.0,0.0,10.0,-1.31227262714,0.470181090453,0.719186652376,1.0,0.0,0.0,0.0,1.0,0.0,0.0,0.0,1.0,0.336500244141,0.544866943359,15.368840332,0.1,0.0,0.0,0.0,0.1,0.0,0.0,0.0,0.1
1446035590152742960,293,1446035590150916099,robocape,45.2682055104,20.4234626139,138.885841235,0.0,10.0,0.0,0.0,0.0,10.0,0.0,0.0,0.0,10.0,-1.49816127122,0.191481282377,0.682435029333,1.0,0.0,0.0,0.0,1.0,0.0,0.0,0.0,1.0,-0.566422119141,0.476608886719,6.15999023438,0.1,0.0,0.0,0.0,0.1,0.0,0.0,0.0,0.1
1446035590186262544,294,1446035590184418916,robocape,42.6624942524,20.1145573347,140.415022403,0.0,10.0,0.0,0.0,0.0,10.0,0.0,0.0,0.0,10.0,-1.72013574808,0.288686662165,0.718920336267,1.0,0.0,0.0,0.0,1.0,0.0,0.0,0.0,1.0,-3.32308959961,1.32205078125,14.1976757813,0.1,0.0,0.0,0.0,0.1,0.0,0.0,0.0,0.1
1446035590220988460,295,1446035590219039916,robocape,38.842155813,19.3630602268,141.563634532,0.0,10.0,0.0,0.0,0.0,10.0,0.0,0.0,0.0,10.0,-2.25942586882,-0.169377045329,0.863663141513,1.0,0.0,0.0,0.0,1.0,0.0,0.0,0.0,1.0,-0.647852783203,1.44060424805,6.84616333008,0.1,0.0,0.0,0.0,0.1,0.0,0.0,0.0,0.1
1446035590253996002,296,1446035590252219915,robocape,33.6257532988,18.6363828675,142.79890316,0.0,10.0,0.0,0.0,0.0,10.0,0.0,0.0,0.0,10.0,-2.99818675521,-0.173504945019,0.859934715987,1.0,0.0,0.0,0.0,1.0,0.0,0.0,0.0,1.0,-6.76233764648,1.45018432617,9.26872558594,0.1,0.0,0.0,0.0,0.1,0.0,0.0,0.0,0.1
1446035590287766210,297,1446035590285727024,robocape,28.0126893132,18.4274100875,143.740226849,0.0,10.0,0.0,0.0,0.0,10.0,0.0,0.0,0.0,10.0,-3.13707060606,0.0752343007947,0.482831105631,1.0,0.0,0.0,0.0,1.0,0.0,0.0,0.0,1.0,-2.92551635742,-1.74237670898,6.9359765625,0.1,0.0,0.0,0.0,0.1,0.0,0.0,0.0,0.1
1446035590323482752,298,1446035590321217060,robocape,22.3972538649,18.3008832172,143.727605003,0.0,10.0,0.0,0.0,0.0,10.0,0.0,0.0,0.0,10.0,-2.93999668539,-0.10199906975,0.0412789968962,1.0,0.0,0.0,0.0,1.0,0.0,0.0,0.0,1.0,0.801134033203,-2.682421875,8.76696899414,0.1,0.0,0.0,0.0,0.1,0.0,0.0,0.0,0.1
1446035590354401377,299,1446035590352557897,robocape,17.5439311652,18.6690779575,142.927426829,0.0,10.0,0.0,0.0,0.0,10.0,0.0,0.0,0.0,10.0,-2.37700443095,0.170309151711,-0.471778987108,1.0,0.0,0.0,0.0,1.0,0.0,0.0,0.0,1.0,4.20325927734,-4.10266845703,11.7679284668,0.1,0.0,0.0,0.0,0.1,0.0,0.0,0.0,0.1
1446035590387710669,300,1446035590385767936,robocape,13.6836858853,19.443158036,141.328175102,0.0,10.0,0.0,0.0,0.0,10.0,0.0,0.0,0.0,10.0,-1.67805780286,0.460460552475,-0.921986369385,1.0,0.0,0.0,0.0,1.0,0.0,0.0,0.0,1.0,0.556842041016,-3.51109863281,10.5799987793,0.1,0.0,0.0,0.0,0.1,0.0,0.0,0.0,0.1
1446035590421837794,301,1446035590419951915,robocape,10.8014331774,20.1793627363,139.223113265,0.0,10.0,0.0,0.0,0.0,10.0,0.0,0.0,0.0,10.0,-1.03410545128,0.453403175586,-1.11639712896,1.0,0.0,0.0,0.0,1.0,0.0,0.0,0.0,1.0,-0.374820556641,-3.31470703125,10.7823779297,0.1,0.0,0.0,0.0,0.1,0.0,0.0,0.0,0.1
1446035590457459752,302,1446035590454219102,robocape,9.04590489954,20.7944741218,136.978986025,0.0,10.0,0.0,0.0,0.0,10.0,0.0,0.0,0.0,10.0,-0.390419415806,0.396145212149,-1.13477294048,1.0,0.0,0.0,0.0,1.0,0.0,0.0,0.0,1.0,-6.59348876953,-3.85119140625,10.9787695313,0.1,0.0,0.0,0.0,0.1,0.0,0.0,0.0,0.1
1446035590486997585,303,1446035590485126018,robocape,7.95515314216,21.2275010557,134.550498901,0.0,10.0,0.0,0.0,0.0,10.0,0.0,0.0,0.0,10.0,0.0201068662301,0.251668723012,-1.17605193738,1.0,0.0,0.0,0.0,1.0,0.0,0.0,0.0,1.0,-7.98739013672,-0.916094970703,9.13101196289,0.1,0.0,0.0,0.0,0.1,0.0,0.0,0.0,0.1
1446035590523315169,304,1446035590521361112,robocape,7.39183264465,22.0046044579,132.278497423,0.0,10.0,0.0,0.0,0.0,10.0,0.0,0.0,0.0,10.0,0.279232440295,0.635563394147,-1.13716978546,1.0,0.0,0.0,0.0,1.0,0.0,0.0,0.0,1.0,-7.3922277832,-1.95673095703,9.88783813477,0.1,0.0,0.0,0.0,0.1,0.0,0.0,0.0,0.1
1446035590556362002,305,1446035590553179979,robocape,7.32100323762,22.6505236176,130.015645118,0.0,10.0,0.0,0.0,0.0,10.0,0.0,0.0,0.0,10.0,0.559796461135,0.537292749923,-1.10161658491,1.0,0.0,0.0,0.0,1.0,0.0,0.0,0.0,1.0,-0.925675048828,-2.222578125,10.8793762207,0.1,0.0,0.0,0.0,0.1,0.0,0.0,0.0,0.1
1446035590589355960,306,1446035590587286949,robocape,7.63289565553,23.0734097548,127.846035614,0.0,10.0,0.0,0.0,0.0,10.0,0.0,0.0,0.0,10.0,0.753940904601,0.323840388554,-1.0214554361,1.0,0.0,0.0,0.0,1.0,0.0,0.0,0.0,1.0,3.87873413086,-1.94595336914,11.225456543,0.1,0.0,0.0,0.0,0.1,0.0,0.0,0.0,0.1
1446035590622222044,307,1446035590620464086,robocape,8.43959208083,23.5478357326,125.72744922,0.0,10.0,0.0,0.0,0.0,10.0,0.0,0.0,0.0,10.0,1.01453121727,0.385892041952,-1.0021475182,1.0,0.0,0.0,0.0,1.0,0.0,0.0,0.0,1.0,3.24046142578,-1.42264160156,11.6721276855,0.1,0.0,0.0,0.0,0.1,0.0,0.0,0.0,0.1
1446035590657382044,308,1446035590655047893,robocape,9.52658416483,24.1028747993,123.809502692,0.0,10.0,0.0,0.0,0.0,10.0,0.0,0.0,0.0,10.0,1.12145713503,0.490554272793,-0.927046375457,1.0,0.0,0.0,0.0,1.0,0.0,0.0,0.0,1.0,0.36404296875,-1.52203491211,11.1859387207,0.1,0.0,0.0,0.0,0.1,0.0,0.0,0.0,0.1
1446035590689331960,309,1446035590686964988,robocape,11.0253250586,24.3466992106,121.840000664,0.0,10.0,0.0,0.0,0.0,10.0,0.0,0.0,0.0,10.0,1.36500321672,0.126366993724,-0.889762120195,1.0,0.0,0.0,0.0,1.0,0.0,0.0,0.0,1.0,-3.38775512695,-1.52562744141,7.70717285156,0.1,0.0,0.0,0.0,0.1,0.0,0.0,0.0,0.1
1446035590722542502,310,1446035590720617055,robocape,12.899998312,24.8671623501,120.355055783,0.0,10.0,0.0,0.0,0.0,10.0,0.0,0.0,0.0,10.0,1.42878592483,0.473243725707,-0.750878269348,1.0,0.0,0.0,0.0,1.0,0.0,0.0,0.0,1.0,-3.43086547852,-1.58310791016,14.5988415527,0.1,0.0,0.0,0.0,0.1,0.0,0.0,0.0,0.1
1446035590756721336,311,1446035590754934072,robocape,14.9393102175,25.222465899,118.877889281,0.0,10.0,0.0,0.0,0.0,10.0,0.0,0.0,0.0,10.0,1.52372761769,0.270976640916,-0.71133032716,1.0,0.0,0.0,0.0,1.0,0.0,0.0,0.0,1.0,-0.495769042969,-0.917292480469,7.78980102539,0.1,0.0,0.0,0.0,0.1,0.0,0.0,0.0,0.1
1446035590789270627,312,1446035590787328958,robocape,17.138188159,25.3976867088,117.492378092,0.0,10.0,0.0,0.0,0.0,10.0,0.0,0.0,0.0,10.0,1.58537979692,0.0486026898939,-0.619318111498,1.0,0.0,0.0,0.0,1.0,0.0,0.0,0.0,1.0,-2.2189855957,-1.21068237305,11.8242114258,0.1,0.0,0.0,0.0,0.1,0.0,0.0,0.0,0.1
1446035590822798419,313,1446035590820719003,robocape,19.7659477856,25.6428241238,116.372383686,0.0,10.0,0.0,0.0,0.0,10.0,0.0,0.0,0.0,10.0,1.73105470855,0.145275437464,-0.54102117545,1.0,0.0,0.0,0.0,1.0,0.0,0.0,0.0,1.0,1.8010546875,-0.0371228027344,6.6641418457,0.1,0.0,0.0,0.0,0.1,0.0,0.0,0.0,0.1
1446035590856654461,314,1446035590854682922,robocape,22.3858233541,25.6482679786,115.206234696,0.0,10.0,0.0,0.0,0.0,10.0,0.0,0.0,0.0,10.0,1.74410419789,-0.167779148675,-0.454601598077,1.0,0.0,0.0,0.0,1.0,0.0,0.0,0.0,1.0,-2.34711914063,-0.340092773437,8.89151000977,0.1,0.0,0.0,0.0,0.1,0.0,0.0,0.0,0.1
1446035590888551169,315,1446035590886687040,robocape,25.3650483087,25.7896670833,114.546877334,0.0,10.0,0.0,0.0,0.0,10.0,0.0,0.0,0.0,10.0,1.77153475712,0.0545948023466,-0.323041440227,1.0,0.0,0.0,0.0,1.0,0.0,0.0,0.0,1.0,-1.39749389648,0.428708496094,9.46990722656,0.1,0.0,0.0,0.0,0.1,0.0,0.0,0.0,0.1
1446035590924026419,316,1446035590922282934,robocape,28.5447405581,25.8748651889,114.308277021,0.0,10.0,0.0,0.0,0.0,10.0,0.0,0.0,0.0,10.0,1.74223998513,0.0531300637471,-0.137552270303,1.0,0.0,0.0,0.0,1.0,0.0,0.0,0.0,1.0,-3.1039453125,0.602347412109,9.08071655273,0.1,0.0,0.0,0.0,0.1,0.0,0.0,0.0,0.1
1446035590956188669,317,1446035590954349994,robocape,31.7429342011,25.9191951539,114.495976109,0.0,10.0,0.0,0.0,0.0,10.0,0.0,0.0,0.0,10.0,1.61427509475,0.0884169481906,0.0380832035881,1.0,0.0,0.0,0.0,1.0,0.0,0.0,0.0,1.0,-1.79985717773,0.827479248047,10.7560327148,0.1,0.0,0.0,0.0,0.1,0.0,0.0,0.0,0.1
1446035590988368294,318,1446035590986366033,robocape,34.9393929053,25.93838001,115.045804004,0.0,10.0,0.0,0.0,0.0,10.0,0.0,0.0,0.0,10.0,1.4958975843,0.145142279409,0.175369157782,1.0,0.0,0.0,0.0,1.0,0.0,0.0,0.0,1.0,-0.4215234375,0.856219482422,7.96104492188,0.1,0.0,0.0,0.0,0.1,0.0,0.0,0.0,0.1
1446035591022552544,319,1446035591020768880,robocape,37.6411217643,25.8559988633,115.882965147,0.0,10.0,0.0,0.0,0.0,10.0,0.0,0.0,0.0,10.0,1.1440940043,0.1182443524,0.341017777585,1.0,0.0,0.0,0.0,1.0,0.0,0.0,0.0,1.0,0.391585693359,1.09691894531,11.3392199707,0.1,0.0,0.0,0.0,0.1,0.0,0.0,0.0,0.1
1446035591055570461,320,1446035591053780078,robocape,40.1851774222,25.4869754645,116.774191964,0.0,10.0,0.0,0.0,0.0,10.0,0.0,0.0,0.0,10.0,1.04755441478,-0.133291212558,0.582965962618,1.0,0.0,0.0,0.0,1.0,0.0,0.0,0.0,1.0,7.19942871094,0.969982910156,8.69152587891,0.1,0.0,0.0,0.0,0.1,0.0,0.0,0.0,0.1
1446035591088668877,321,1446035591086822986,robocape,42.1031042692,25.13576081,118.186240009,0.0,10.0,0.0,0.0,0.0,10.0,0.0,0.0,0.0,10.0,0.562193306116,0.0612527050718,0.733567722262,1.0,0.0,0.0,0.0,1.0,0.0,0.0,0.0,1.0,-12.5379272461,3.54822143555,11.6745227051,0.1,0.0,0.0,0.0,0.1,0.0,0.0,0.0,0.1
1446035591121641044,322,1446035591119930028,robocape,43.0150573155,24.6523474022,119.211462366,0.0,10.0,0.0,0.0,0.0,10.0,0.0,0.0,0.0,10.0,0.163917565094,-0.136087531703,0.716523491286,1.0,0.0,0.0,0.0,1.0,0.0,0.0,0.0,1.0,3.65479980469,0.456251220703,8.966953125,0.1,0.0,0.0,0.0,0.1,0.0,0.0,0.0,0.1
1446035591155300086,323,1446035591153497934,robocape,44.0160360419,24.4754616928,120.971473423,0.0,10.0,0.0,0.0,0.0,10.0,0.0,0.0,0.0,10.0,-0.00426105774413,0.367915704594,0.691889251203,1.0,0.0,0.0,0.0,1.0,0.0,0.0,0.0,1.0,-2.07887695312,1.26217529297,10.4111499023,0.1,0.0,0.0,0.0,0.1,0.0,0.0,0.0,0.1
1446035591187883336,324,1446035591186074018,robocape,44.2122159168,24.1188191316,122.264867845,0.0,10.0,0.0,0.0,0.0,10.0,0.0,0.0,0.0,10.0,-0.279765072513,0.0905474770627,0.690690828712,1.0,0.0,0.0,0.0,1.0,0.0,0.0,0.0,1.0,-4.828359375,1.53880004883,14.1916882324,0.1,0.0,0.0,0.0,0.1,0.0,0.0,0.0,0.1
1446035591220376086,325,1446035591218605041,robocape,44.3781831646,23.9150369634,123.938827444,0.0,10.0,0.0,0.0,0.0,10.0,0.0,0.0,0.0,10.0,-0.400273111839,0.341683567857,0.684698716259,1.0,0.0,0.0,0.0,1.0,0.0,0.0,0.0,1.0,-5.75283691406,0.974772949219,9.46631469727,0.1,0.0,0.0,0.0,0.1,0.0,0.0,0.0,0.1
1446035591253790044,326,1446035591252018928,robocape,44.1054869007,23.6969744182,125.500234778,0.0,10.0,0.0,0.0,0.0,10.0,0.0,0.0,0.0,10.0,-0.591754394216,0.299871938743,0.661795530885,1.0,0.0,0.0,0.0,1.0,0.0,0.0,0.0,1.0,-2.53153564453,1.09332641602,10.918894043,0.1,0.0,0.0,0.0,0.1,0.0,0.0,0.0,0.1
1446035591287081752,327,1446035591285331964,robocape,43.2221541636,23.316339882,126.609459295,0.0,10.0,0.0,0.0,0.0,10.0,0.0,0.0,0.0,10.0,-0.776045141649,0.0311589847539,0.646216038508,1.0,0.0,0.0,0.0,1.0,0.0,0.0,0.0,1.0,-1.94715087891,0.759221191406,10.6985522461,0.1,0.0,0.0,0.0,0.1,0.0,0.0,0.0,0.1
1446035591326292044,328,1446035591318147897,robocape,42.2926882616,23.0872850325,127.947400859,0.0,10.0,0.0,0.0,0.0,10.0,0.0,0.0,0.0,10.0,-0.858203661278,0.219311315768,0.606268622157,1.0,0.0,0.0,0.0,1.0,0.0,0.0,0.0,1.0,-0.101788330078,0.0526904296875,9.50942504883,0.1,0.0,0.0,0.0,0.1,0.0,0.0,0.0,0.1
1446035591353930294,329,1446035591352221012,robocape,40.8046852453,22.7307217285,128.797861685,0.0,10.0,0.0,0.0,0.0,10.0,0.0,0.0,0.0,10.0,-1.01133542396,-0.035153726389,0.539023804632,1.0,0.0,0.0,0.0,1.0,0.0,0.0,0.0,1.0,-0.403560791016,0.310155029297,10.8374633789,0.1,0.0,0.0,0.0,0.1,0.0,0.0,0.0,0.1
1446035591386401502,330,1446035591384622097,robocape,39.2374284313,22.531476283,129.873249251,0.0,10.0,0.0,0.0,0.0,10.0,0.0,0.0,0.0,10.0,-1.10947291013,0.149137021044,0.50613376517,1.0,0.0,0.0,0.0,1.0,0.0,0.0,0.0,1.0,-1.12685668945,0.76640625,10.9081164551,0.1,0.0,0.0,0.0,0.1,0.0,0.0,0.0,0.1
1446035591420082961,331,1446035591418351888,robocape,37.5035793329,22.4082592337,130.879246482,0.0,10.0,0.0,0.0,0.0,10.0,0.0,0.0,0.0,10.0,-1.17551930516,0.180162847744,0.436225786555,1.0,0.0,0.0,0.0,1.0,0.0,0.0,0.0,1.0,-1.85135009766,-0.223934326172,8.19216430664,0.1,0.0,0.0,0.0,0.1,0.0,0.0,0.0,0.1
1446035591453277378,332,1446035591451514959,robocape,35.3128938819,22.1540972453,131.55791532,0.0,10.0,0.0,0.0,0.0,10.0,0.0,0.0,0.0,10.0,-1.32572159064,-0.0304931944814,0.404401011529,1.0,0.0,0.0,0.0,1.0,0.0,0.0,0.0,1.0,-0.980760498047,0.203576660156,10.8410559082,0.1,0.0,0.0,0.0,0.1,0.0,0.0,0.0,0.1
1446035591486387003,333,1446035591484648942,robocape,32.9059557533,22.0400401029,132.236046381,0.0,10.0,0.0,0.0,0.0,10.0,0.0,0.0,0.0,10.0,-1.43690856615,0.0755006169037,0.321177227464,1.0,0.0,0.0,0.0,1.0,0.0,0.0,0.0,1.0,-0.571212158203,-0.124541015625,8.50231933594,0.1,0.0,0.0,0.0,0.1,0.0,0.0,0.0,0.1
1446035591521027961,334,1446035591519275903,robocape,30.348533447,22.0486909809,133.031263881,0.0,10.0,0.0,0.0,0.0,10.0,0.0,0.0,0.0,10.0,-1.54556553863,0.197340236775,0.303467206215,1.0,0.0,0.0,0.0,1.0,0.0,0.0,0.0,1.0,-1.72321655273,0.117355957031,11.6278198242,0.1,0.0,0.0,0.0,0.1,0.0,0.0,0.0,0.1
1446035591553031003,335,1446035591551019906,robocape,27.2579684846,21.8492972622,133.301465393,0.0,10.0,0.0,0.0,0.0,10.0,0.0,0.0,0.0,10.0,-1.68831097306,-0.11944277489,0.206261826427,1.0,0.0,0.0,0.0,1.0,0.0,0.0,0.0,1.0,1.16158447266,-0.5748046875,7.69160522461,0.1,0.0,0.0,0.0,0.1,0.0,0.0,0.0,0.1
1446035591586047128,336,1446035591584199905,robocape,23.95955689,21.7695393579,133.467789742,0.0,10.0,0.0,0.0,0.0,10.0,0.0,0.0,0.0,10.0,-1.77007001852,-0.0402137324602,0.103596966404,1.0,0.0,0.0,0.0,1.0,0.0,0.0,0.0,1.0,3.7134777832,-0.682580566406,12.4948168945,0.1,0.0,0.0,0.0,0.1,0.0,0.0,0.0,0.1
1446035591619445919,337,1446035591617681980,robocape,20.5470108486,21.8354608641,133.38674139,0.0,10.0,0.0,0.0,0.0,10.0,0.0,0.0,0.0,10.0,-1.7666079091,0.0479368996214,-0.0596548084178,1.0,0.0,0.0,0.0,1.0,0.0,0.0,0.0,1.0,-1.18673217773,-0.387993164063,7.28804443359,0.1,0.0,0.0,0.0,0.1,0.0,0.0,0.0,0.1
1446035591652776753,338,1446035591651072978,robocape,17.147053489,21.9640790875,133.082290221,0.0,10.0,0.0,0.0,0.0,10.0,0.0,0.0,0.0,10.0,-1.70242572683,0.0793622004844,-0.173904419182,1.0,0.0,0.0,0.0,1.0,0.0,0.0,0.0,1.0,0.601149902344,-1.36755615234,10.3955822754,0.1,0.0,0.0,0.0,0.1,0.0,0.0,0.0,0.1
1446035591686185669,339,1446035591684257984,robocape,13.7784071021,22.2895527124,132.563528603,0.0,10.0,0.0,0.0,0.0,10.0,0.0,0.0,0.0,10.0,-1.6290556388,0.261122944882,-0.316783011665,1.0,0.0,0.0,0.0,1.0,0.0,0.0,0.0,1.0,0.967587890625,-1.20589233398,8.57057739258,0.1,0.0,0.0,0.0,0.1,0.0,0.0,0.0,0.1
1446035591719634003,340,1446035591717855930,robocape,10.3918619257,22.4314883055,131.692132269,0.0,10.0,0.0,0.0,0.0,10.0,0.0,0.0,0.0,10.0,-1.5433018517,0.0625842856169,-0.416385236434,1.0,0.0,0.0,0.0,1.0,0.0,0.0,0.0,1.0,0.626297607422,-1.96750854492,11.8912719727,0.1,0.0,0.0,0.0,0.1,0.0,0.0,0.0,0.1
1446035591752938753,341,1446035591751166105,robocape,7.26120294922,22.6756709016,130.565687963,0.0,10.0,0.0,0.0,0.0,10.0,0.0,0.0,0.0,10.0,-1.33837160582,0.176967054436,-0.540888017395,1.0,0.0,0.0,0.0,1.0,0.0,0.0,0.0,1.0,4.60083251953,-1.23702758789,10.9691894531,0.1,0.0,0.0,0.0,0.1,0.0,0.0,0.0,0.1
1446035591786094878,342,1446035591784261941,robocape,4.34027586452,22.9749844098,129.002465501,0.0,10.0,0.0,0.0,0.0,10.0,0.0,0.0,0.0,10.0,-1.10494553627,0.24833977165,-0.7287740323,1.0,0.0,0.0,0.0,1.0,0.0,0.0,0.0,1.0,6.08694213867,-2.03816162109,10.6793920898,0.1,0.0,0.0,0.0,0.1,0.0,0.0,0.0,0.1
1446035591820087211,343,1446035591818310022,robocape,1.91351042165,23.4500837981,127.293620654,0.0,10.0,0.0,0.0,0.0,10.0,0.0,0.0,0.0,10.0,-0.79588569177,0.477904257615,-0.785765679628,1.0,0.0,0.0,0.0,1.0,0.0,0.0,0.0,1.0,-1.69567382813,-2.12557983398,11.0278674316,0.1,0.0,0.0,0.0,0.1,0.0,0.0,0.0,0.1
1446035591852863878,344,1446035591851073980,robocape,-0.319217097441,23.9770247132,125.384301386,0.0,10.0,0.0,0.0,0.0,10.0,0.0,0.0,0.0,10.0,-0.62291337897,0.581767540128,-0.845686804155,1.0,0.0,0.0,0.0,1.0,0.0,0.0,0.0,1.0,2.22976318359,-2.1040246582,10.2482885742,0.1,0.0,0.0,0.0,0.1,0.0,0.0,0.0,0.1
1446035591886154169,345,1446035591884388923,robocape,-2.41594333622,24.3381569504,123.52403838,0.0,10.0,0.0,0.0,0.0,10.0,0.0,0.0,0.0,10.0,-0.552073293973,0.436625260718,-0.796684640097,1.0,0.0,0.0,0.0,1.0,0.0,0.0,0.0,1.0,3.47517333984,-1.34001342773,11.7523608398,0.1,0.0,0.0,0.0,0.1,0.0,0.0,0.0,0.1
1446035591919768919,346,1446035591917695045,robocape,-4.5654862525,24.704343612,121.743234729,0.0,10.0,0.0,0.0,0.0,10.0,0.0,0.0,0.0,10.0,-0.592153868379,0.478570047887,-0.737162989734,1.0,0.0,0.0,0.0,1.0,0.0,0.0,0.0,1.0,1.48610961914,-0.798739013672,8.54662719727,0.1,0.0,0.0,0.0,0.1,0.0,0.0,0.0,0.1
1446035591953138211,347,1446035591951267957,robocape,-7.04147423458,24.9958129698,120.132134154,0.0,10.0,0.0,0.0,0.0,10.0,0.0,0.0,0.0,10.0,-0.804940439476,0.419181555578,-0.646615512671,1.0,0.0,0.0,0.0,1.0,0.0,0.0,0.0,1.0,-1.55317016602,-1.16517700195,13.5138977051,0.1,0.0,0.0,0.0,0.1,0.0,0.0,0.0,0.1
1446035591986026086,348,1446035591984184980,robocape,-9.73608617252,25.2407944862,118.543345326,0.0,10.0,0.0,0.0,0.0,10.0,0.0,0.0,0.0,10.0,-0.918923734132,0.395346263822,-0.619850743716,1.0,0.0,0.0,0.0,1.0,0.0,0.0,0.0,1.0,4.97565307617,-1.58670043945,8.84480712891,0.1,0.0,0.0,0.0,0.1,0.0,0.0,0.0,0.1
1446035592019465836,349,1446035592017685890,robocape,-12.9296379984,25.6672134938,116.536320266,0.0,10.0,0.0,0.0,0.0,10.0,0.0,0.0,0.0,10.0,-1.03889914124,0.689492406222,-0.717322439613,1.0,0.0,0.0,0.0,1.0,0.0,0.0,0.0,1.0,6.44499755859,0.00838256835938,9.44715454102,0.1,0.0,0.0,0.0,0.1,0.0,0.0,0.0,0.1
1446035592053064753,350,1446035592051273107,robocape,-15.8193194802,26.0446063246,113.693296825,0.0,10.0,0.0,0.0,0.0,10.0,0.0,0.0,0.0,10.0,-0.595749135851,0.76246302009,-1.01519700754,1.0,0.0,0.0,0.0,1.0,0.0,0.0,0.0,1.0,5.76481201172,-5.30736328125,11.3320349121,0.1,0.0,0.0,0.0,0.1,0.0,0.0,0.0,0.1
1446035592086012336,351,1446035592084114074,robocape,-17.5587285826,26.5119246993,109.922630086,0.0,10.0,0.0,0.0,0.0,10.0,0.0,0.0,0.0,10.0,0.334493032914,1.0346380835,-1.28990207398,1.0,0.0,0.0,0.0,1.0,0.0,0.0,0.0,1.0,1.12925170898,-4.95409790039,14.0288269043,0.1,0.0,0.0,0.0,0.1,0.0,0.0,0.0,0.1
1446035592119590336,352,1446035592117696046,robocape,-18.6008666766,26.6572948755,106.476865742,0.0,10.0,0.0,0.0,0.0,10.0,0.0,0.0,0.0,10.0,0.611195470173,0.617453898735,-1.25528097981,1.0,0.0,0.0,0.0,1.0,0.0,0.0,0.0,1.0,0.995130615234,-2.07169189453,6.57073608398,0.1,0.0,0.0,0.0,0.1,0.0,0.0,0.0,0.1
1446035592153016003,353,1446035592151165962,robocape,-19.1672163677,26.7325308366,103.204921114,0.0,10.0,0.0,0.0,0.0,10.0,0.0,0.0,0.0,10.0,0.808535706948,0.521313783383,-1.20574618353,1.0,0.0,0.0,0.0,1.0,0.0,0.0,0.0,1.0,-6.1731628418,-1.762734375,11.4493908691,0.1,0.0,0.0,0.0,0.1,0.0,0.0,0.0,0.1
1446035592186109378,354,1446035592184237957,robocape,-20.9352827596,27.5091878924,98.219060515,0.0,10.0,0.0,0.0,0.0,10.0,0.0,0.0,0.0,10.0,0.798415694806,1.70482257181,-1.4663364962,1.0,0.0,0.0,0.0,1.0,0.0,0.0,0.0,1.0,-19.62,-6.70485717773,19.6194012451,0.1,0.0,0.0,0.0,0.1,0.0,0.0,0.0,0.1
1446035592219779795,355,1446035592217724084,robocape,-21.6559965379,28.0035497141,93.8781632655,0.0,10.0,0.0,0.0,0.0,10.0,0.0,0.0,0.0,10.0,1.175119831,1.28923628371,-1.28058101016,1.0,0.0,0.0,0.0,1.0,0.0,0.0,0.0,1.0,1.28013793945,-0.898132324219,2.70517456055,0.1,0.0,0.0,0.0,0.1,0.0,0.0,0.0,0.1
1446035592252792753,356,1446035592250873088,robocape,-21.13001752,28.1799141632,90.1962140987,0.0,10.0,0.0,0.0,0.0,10.0,0.0,0.0,0.0,10.0,1.61573983335,0.757536172073,-1.19282985225,1.0,0.0,0.0,0.0,1.0,0.0,0.0,0.0,1.0,3.13508056641,-3.78173583984,19.6194012451,0.1,0.0,0.0,0.0,0.1,0.0,0.0,0.0,0.1
1446035592286064253,357,1446035592284101963,robocape,-19.2392428469,28.0657278422,88.1708854378,0.0,10.0,0.0,0.0,0.0,10.0,0.0,0.0,0.0,10.0,1.72865786357,0.0981374861694,-0.775512509431,1.0,0.0,0.0,0.0,1.0,0.0,0.0,0.0,1.0,2.56147338867,0.201181640625,4.34576293945,0.1,0.0,0.0,0.0,0.1,0.0,0.0,0.0,0.1
1446035592323589961,358,1446035592317593097,robocape,-18.2968540031,28.1862285695,86.0902227907,0.0,10.0,0.0,0.0,0.0,10.0,0.0,0.0,0.0,10.0,1.2520851865,0.427037880794,-0.681103448788,1.0,0.0,0.0,0.0,1.0,0.0,0.0,0.0,1.0,-1.68130371094,-0.168848876953,10.8721911621,0.1,0.0,0.0,0.0,0.1,0.0,0.0,0.0,0.1
1446035592353050295,359,1446035592351213932,robocape,-17.4586279681,28.1053427512,84.3729058208,0.0,10.0,0.0,0.0,0.0,10.0,0.0,0.0,0.0,10.0,1.0656639102,0.0794953585389,-0.652074992906,1.0,0.0,0.0,0.0,1.0,0.0,0.0,0.0,1.0,0.579594726562,-0.416733398438,8.32748291016,0.1,0.0,0.0,0.0,0.1,0.0,0.0,0.0,0.1
1446035592385961503,360,1446035592384172916,robocape,-16.9960240859,28.1691815538,82.5353255167,0.0,10.0,0.0,0.0,0.0,10.0,0.0,0.0,0.0,10.0,0.912532147516,0.298274042089,-0.630370230022,1.0,0.0,0.0,0.0,1.0,0.0,0.0,0.0,1.0,2.02259399414,-0.456251220703,12.4121887207,0.1,0.0,0.0,0.0,0.1,0.0,0.0,0.0,0.1
1446035592419894086,361,1446035592417781114,robocape,-16.415846252,28.1373478121,80.8551551089,0.0,10.0,0.0,0.0,0.0,10.0,0.0,0.0,0.0,10.0,0.917192679423,0.134356476994,-0.618252847062,1.0,0.0,0.0,0.0,1.0,0.0,0.0,0.0,1.0,-0.148491210938,-0.220341796875,10.459050293,0.1,0.0,0.0,0.0,0.1,0.0,0.0,0.0,0.1
1446035592452979545,362,1446035592450985908,robocape,-15.7931509865,28.1552974249,79.185028821,0.0,10.0,0.0,0.0,0.0,10.0,0.0,0.0,0.0,10.0,0.935568490945,0.200536030083,-0.594950187524,1.0,0.0,0.0,0.0,1.0,0.0,0.0,0.0,1.0,-1.1148815918,-1.40707397461,9.51780761719,0.1,0.0,0.0,0.0,0.1,0.0,0.0,0.0,0.1
1446035592486289795,363,1446035592484417915,robocape,-15.0198959592,28.1759758426,77.3534235108,0.0,10.0,0.0,0.0,0.0,10.0,0.0,0.0,0.0,10.0,1.07405286763,0.213319203315,-0.654072363723,1.0,0.0,0.0,0.0,1.0,0.0,0.0,0.0,1.0,3.19735107422,-0.559237060547,9.76688964844,0.1,0.0,0.0,0.0,0.1,0.0,0.0,0.0,0.1
1446035592521620586,364,1446035592519174098,robocape,-13.7594562238,28.0139643939,75.6680366198,0.0,10.0,0.0,0.0,0.0,10.0,0.0,0.0,0.0,10.0,1.27352363328,-0.0828243099015,-0.67644291688,1.0,0.0,0.0,0.0,1.0,0.0,0.0,0.0,1.0,0.252674560547,-1.08135131836,8.1203137207,0.1,0.0,0.0,0.0,0.1,0.0,0.0,0.0,0.1
1446035592554376920,365,1446035592552491903,robocape,-12.0940543486,28.029010199,73.8124247902,0.0,10.0,0.0,0.0,0.0,10.0,0.0,0.0,0.0,10.0,1.54503290641,0.179230741362,-0.678440287698,1.0,0.0,0.0,0.0,1.0,0.0,0.0,0.0,1.0,-1.65256347656,-1.38192626953,9.33698364258,0.1,0.0,0.0,0.0,0.1,0.0,0.0,0.0,0.1
1446035592587469878,366,1446035592585707902,robocape,-9.75444681484,27.9295550008,72.3948453799,0.0,10.0,0.0,0.0,0.0,10.0,0.0,0.0,0.0,10.0,1.73824524349,-0.0464721610219,-0.5558017195,1.0,0.0,0.0,0.0,1.0,0.0,0.0,0.0,1.0,-2.85606079102,-0.265847167969,8.93821289063,0.1,0.0,0.0,0.0,0.1,0.0,0.0,0.0,0.1
1446035592620690795,367,1446035592618911027,robocape,-6.99128119699,27.9091858667,71.3944759944,0.0,10.0,0.0,0.0,0.0,10.0,0.0,0.0,0.0,10.0,1.80802006405,0.0249005561922,-0.380432561718,1.0,0.0,0.0,0.0,1.0,0.0,0.0,0.0,1.0,-1.71124145508,-0.567619628906,8.29515014648,0.1,0.0,0.0,0.0,0.1,0.0,0.0,0.0,0.1
1446035592654767545,368,1446035592652858018,robocape,-3.93966785634,27.8724914961,70.7943744601,0.0,10.0,0.0,0.0,0.0,10.0,0.0,0.0,0.0,10.0,1.81441165067,-0.033289513626,-0.232493963164,1.0,0.0,0.0,0.0,1.0,0.0,0.0,0.0,1.0,-2.76145751953,0.912502441406,9.93573852539,0.1,0.0,0.0,0.0,0.1,0.0,0.0,0.0,0.1
1446035592687634295,369,1446035592685740947,robocape,-0.813504716912,27.8979633032,70.6238003915,0.0,10.0,0.0,0.0,0.0,10.0,0.0,0.0,0.0,10.0,1.69869730131,0.0410126807872,-0.0632500758894,1.0,0.0,0.0,0.0,1.0,0.0,0.0,0.0,1.0,-0.829874267578,0.656235351563,10.1944006348,0.1,0.0,0.0,0.0,0.1,0.0,0.0,0.0,0.1
1446035592721209170,370,1446035592719521045,robocape,2.23957122642,27.8843809559,70.9232107461,0.0,10.0,0.0,0.0,0.0,10.0,0.0,0.0,0.0,10.0,1.49110389434,-0.0190416017941,0.11411645271,1.0,0.0,0.0,0.0,1.0,0.0,0.0,0.0,1.0,-2.75307495117,1.21068237305,8.00415527344,0.1,0.0,0.0,0.0,0.1,0.0,0.0,0.0,0.1
1446035592754946336,371,1446035592753040075,robocape,5.09045639304,27.9349240173,71.6609107685,0.0,10.0,0.0,0.0,0.0,10.0,0.0,0.0,0.0,10.0,1.22705147225,0.0940095864798,0.274838224496,1.0,0.0,0.0,0.0,1.0,0.0,0.0,0.0,1.0,-2.05971679688,2.09683959961,10.2111657715,0.1,0.0,0.0,0.0,0.1,0.0,0.0,0.0,0.1
1446035592786797628,372,1446035592784970998,robocape,7.60444073579,28.1255526837,72.7751654906,0.0,10.0,0.0,0.0,0.0,10.0,0.0,0.0,0.0,10.0,0.912265831407,0.335291981241,0.386158358061,1.0,0.0,0.0,0.0,1.0,0.0,0.0,0.0,1.0,0.135318603516,1.65256347656,9.09867919922,0.1,0.0,0.0,0.0,0.1,0.0,0.0,0.0,0.1
1446035592825408003,373,1446035592821592092,robocape,9.66562302562,28.2533743401,74.0330654893,0.0,10.0,0.0,0.0,0.0,10.0,0.0,0.0,0.0,10.0,0.619184953443,0.266049792899,0.436358944609,1.0,0.0,0.0,0.0,1.0,0.0,0.0,0.0,1.0,1.42862915039,1.41186401367,10.9536218262,0.1,0.0,0.0,0.0,0.1,0.0,0.0,0.0,0.1
1446035592856550337,374,1446035592854348897,robocape,11.3017391639,28.2910048935,75.4147072584,0.0,10.0,0.0,0.0,0.0,10.0,0.0,0.0,0.0,10.0,0.349140418909,0.151400707971,0.496280069136,1.0,0.0,0.0,0.0,1.0,0.0,0.0,0.0,1.0,-1.63340332031,1.65495849609,10.5141357422,0.1,0.0,0.0,0.0,0.1,0.0,0.0,0.0,0.1
1446035592889439628,375,1446035592887517929,robocape,12.5252678398,28.3066040827,76.7392551013,0.0,10.0,0.0,0.0,0.0,10.0,0.0,0.0,0.0,10.0,0.153398078789,0.125701203452,0.477904257615,1.0,0.0,0.0,0.0,1.0,0.0,0.0,0.0,1.0,-2.99976196289,1.66693359375,9.66629882813,0.1,0.0,0.0,0.0,0.1,0.0,0.0,0.0,0.1
1446035592922314128,376,1446035592920464038,robocape,13.5123334544,28.4006002126,78.2246233748,0.0,10.0,0.0,0.0,0.0,10.0,0.0,0.0,0.0,10.0,-0.0311589847539,0.267914005662,0.504535868516,1.0,0.0,0.0,0.0,1.0,0.0,0.0,0.0,1.0,-4.73255859375,1.57352783203,10.4925805664,0.1,0.0,0.0,0.0,0.1,0.0,0.0,0.0,0.1
1446035592956070962,377,1446035592953758001,robocape,14.1812426206,28.5636966126,79.74367726,0.0,10.0,0.0,0.0,0.0,10.0,0.0,0.0,0.0,10.0,-0.213984993588,0.385359409734,0.482431631468,1.0,0.0,0.0,0.0,1.0,0.0,0.0,0.0,1.0,-4.64993041992,0.759221191406,10.1620678711,0.1,0.0,0.0,0.0,0.1,0.0,0.0,0.0,0.1
1446035592991396545,378,1446035592989631891,robocape,14.4938848559,28.5169685941,81.1995444426,0.0,10.0,0.0,0.0,0.0,10.0,0.0,0.0,0.0,10.0,-0.378701507009,0.0604537567448,0.537425907978,1.0,0.0,0.0,0.0,1.0,0.0,0.0,0.0,1.0,-2.9470715332,0.947230224609,10.9176965332,0.1,0.0,0.0,0.0,0.1,0.0,0.0,0.0,0.1
1446035593021427795,379,1446035593019510030,robocape,14.5480559397,28.4720259273,82.5427059602,0.0,10.0,0.0,0.0,0.0,10.0,0.0,0.0,0.0,10.0,-0.470846880726,0.0551274345646,0.497478491627,1.0,0.0,0.0,0.0,1.0,0.0,0.0,0.0,1.0,-1.762734375,0.506546630859,8.43286376953,0.1,0.0,0.0,0.0,0.1,0.0,0.0,0.0,0.1
1446035593057760003,380,1446035593054588079,robocape,14.4283984559,28.5650400347,83.9812739011,0.0,10.0,0.0,0.0,0.0,10.0,0.0,0.0,0.0,10.0,-0.598012822777,0.275903488932,0.476040044852,1.0,0.0,0.0,0.0,1.0,0.0,0.0,0.0,1.0,-1.1879296875,1.23343505859,12.8444897461,0.1,0.0,0.0,0.0,0.1,0.0,0.0,0.0,0.1
1446035593088086087,381,1446035593086122989,robocape,14.156501531,28.5770776763,85.3364389399,0.0,10.0,0.0,0.0,0.0,10.0,0.0,0.0,0.0,10.0,-0.648080251271,0.141547011938,0.477637941506,1.0,0.0,0.0,0.0,1.0,0.0,0.0,0.0,1.0,4.76608886719,0.389190673828,5.96719116211,0.1,0.0,0.0,0.0,0.1,0.0,0.0,0.0,0.1
1446035593125094128,382,1446035593123028993,robocape,13.4200982933,28.6876060056,86.6524564477,0.0,10.0,0.0,0.0,0.0,10.0,0.0,0.0,0.0,10.0,-0.878310527508,0.287488239674,0.425573142195,1.0,0.0,0.0,0.0,1.0,0.0,0.0,0.0,1.0,-1.94475585938,0.603544921875,14.3054516602,0.1,0.0,0.0,0.0,0.1,0.0,0.0,0.0,0.1
1446035593156201378,383,1446035593154319047,robocape,12.4071778537,28.6177678035,87.6166307472,0.0,10.0,0.0,0.0,0.0,10.0,0.0,0.0,0.0,10.0,-0.891759491013,-0.0308926686449,0.368847810976,1.0,0.0,0.0,0.0,1.0,0.0,0.0,0.0,1.0,-0.474213867188,0.237106933594,5.49417480469,0.1,0.0,0.0,0.0,0.1,0.0,0.0,0.0,0.1
1446035593189247170,384,1446035593187357902,robocape,11.0951181312,28.4581852839,88.4266660972,0.0,10.0,0.0,0.0,0.0,10.0,0.0,0.0,0.0,10.0,-0.988831712746,-0.188418647123,0.343680938675,1.0,0.0,0.0,0.0,1.0,0.0,0.0,0.0,1.0,-2.69798950195,0.589174804688,12.6265429688,0.1,0.0,0.0,0.0,0.1,0.0,0.0,0.0,0.1
1446035593222644378,385,1446035593220506906,robocape,9.56758789035,28.3900866006,89.1425304227,0.0,10.0,0.0,0.0,0.0,10.0,0.0,0.0,0.0,10.0,-1.06499811992,-0.0581900698182,0.280031388622,1.0,0.0,0.0,0.0,1.0,0.0,0.0,0.0,1.0,-0.136516113281,0.221539306641,7.54790405273,0.1,0.0,0.0,0.0,0.1,0.0,0.0,0.0,0.1
1446035593255825212,386,1446035593253766059,robocape,7.90485098542,28.4034925188,89.8692080282,0.0,10.0,0.0,0.0,0.0,10.0,0.0,0.0,0.0,10.0,-1.13943347239,0.0617853372898,0.2631203157,1.0,0.0,0.0,0.0,1.0,0.0,0.0,0.0,1.0,1.64298339844,0.182021484375,7.98739013672,0.1,0.0,0.0,0.0,0.1,0.0,0.0,0.0,0.1
1446035593288594337,387,1446035593286619901,robocape,5.98835506982,28.3679043759,90.4723264988,0.0,10.0,0.0,0.0,0.0,10.0,0.0,0.0,0.0,10.0,-1.22651884004,-0.0284958236638,0.228898695692,1.0,0.0,0.0,0.0,1.0,0.0,0.0,0.0,1.0,-1.16757202148,0.923280029297,11.1224707031,0.1,0.0,0.0,0.0,0.1,0.0,0.0,0.0,0.1
1446035593324900087,388,1446035593322559118,robocape,3.70443773164,28.1977883508,90.8985770458,0.0,10.0,0.0,0.0,0.0,10.0,0.0,0.0,0.0,10.0,-1.35275267571,-0.250736616631,0.180828638016,1.0,0.0,0.0,0.0,1.0,0.0,0.0,0.0,1.0,6.94675415039,0.681383056641,7.51557128906,0.1,0.0,0.0,0.0,0.1,0.0,0.0,0.0,0.1
1446035593355533878,389,1446035593353255033,robocape,1.21931811235,28.4678886646,91.3346689609,0.0,10.0,0.0,0.0,0.0,10.0,0.0,0.0,0.0,10.0,-1.46220859651,0.429434725775,0.143943856919,1.0,0.0,0.0,0.0,1.0,0.0,0.0,0.0,1.0,-0.664617919922,0.629890136719,13.7258569336,0.1,0.0,0.0,0.0,0.1,0.0,0.0,0.0,0.1
1446035593388424837,390,1446035593386616945,robocape,-1.54686677119,28.4102425488,91.3087421536,0.0,10.0,0.0,0.0,0.0,10.0,0.0,0.0,0.0,10.0,-1.43903909502,-0.0910801092807,-0.00985369603329,1.0,0.0,0.0,0.0,1.0,0.0,0.0,0.0,1.0,-8.26640991211,-0.681383056641,8.41370361328,0.1,0.0,0.0,0.0,0.1,0.0,0.0,0.0,0.1
1446035593422676253,391,1446035593419869899,robocape,-4.41210173687,28.2186025277,91.0387544084,0.0,10.0,0.0,0.0,0.0,10.0,0.0,0.0,0.0,10.0,-1.40108904949,-0.29387982629,-0.115980665473,1.0,0.0,0.0,0.0,1.0,0.0,0.0,0.0,1.0,-3.76856323242,-1.04063598633,11.5487841797,0.1,0.0,0.0,0.0,0.1,0.0,0.0,0.0,0.1
1446035593456351128,392,1446035593453771114,robocape,-7.4446047353,28.1991533439,90.5018558507,0.0,10.0,0.0,0.0,0.0,10.0,0.0,0.0,0.0,10.0,-1.39150166957,-0.00918790576077,-0.203066033119,1.0,0.0,0.0,0.0,1.0,0.0,0.0,0.0,1.0,-0.914897460938,-1.10290649414,6.9778894043,0.1,0.0,0.0,0.0,0.1,0.0,0.0,0.0,0.1
1446035593488676212,393,1446035593486854076,robocape,-10.6021941288,28.37341075,89.7730694773,0.0,10.0,0.0,0.0,0.0,10.0,0.0,0.0,0.0,10.0,-1.38564271517,0.310924057267,-0.225836060439,1.0,0.0,0.0,0.0,1.0,0.0,0.0,0.0,1.0,3.66198486328,-1.24660766602,12.4792492676,0.1,0.0,0.0,0.0,0.1,0.0,0.0,0.0,0.1
1446035593520789003,394,1446035593518995046,robocape,-13.8690338137,28.3668687121,89.2140469786,0.0,10.0,0.0,0.0,0.0,10.0,0.0,0.0,0.0,10.0,-1.50441969979,0.0339553038985,-0.205063403936,1.0,0.0,0.0,0.0,1.0,0.0,0.0,0.0,1.0,0.149688720703,0.579594726562,7.66166748047,0.1,0.0,0.0,0.0,0.1,0.0,0.0,0.0,0.1
1446035593554458129,395,1446035593552690982,robocape,-17.5960918891,28.4264640629,88.741809201,0.0,10.0,0.0,0.0,0.0,10.0,0.0,0.0,0.0,10.0,-1.77739371152,0.137818586412,-0.143144908592,1.0,0.0,0.0,0.0,1.0,0.0,0.0,0.0,1.0,-0.737666015625,-0.870589599609,11.4326257324,0.1,0.0,0.0,0.0,0.1,0.0,0.0,0.0,0.1
