%time,field.header.seq,field.header.stamp,field.header.frame_id,field.orientation.x,field.orientation.y,field.orientation.z,field.orientation.w,field.orientation_covariance0,field.orientation_covariance1,field.orientation_covariance2,field.orientation_covariance3,field.orientation_covariance4,field.orientation_covariance5,field.orientation_covariance6,field.orientation_covariance7,field.orientation_covariance8,field.angular_velocity.x,field.angular_velocity.y,field.angular_velocity.z,field.angular_velocity_covariance0,field.angular_velocity_covariance1,field.angular_velocity_covariance2,field.angular_velocity_covariance3,field.angular_velocity_covariance4,field.angular_velocity_covariance5,field.angular_velocity_covariance6,field.angular_velocity_covariance7,field.angular_velocity_covariance8,field.linear_acceleration.x,field.linear_acceleration.y,field.linear_acceleration.z,field.linear_acceleration_covariance0,field.linear_acceleration_covariance1,field.linear_acceleration_covariance2,field.linear_acceleration_covariance3,field.linear_acceleration_covariance4,field.linear_acceleration_covariance5,field.linear_acceleration_covariance6,field.linear_acceleration_covariance7,field.linear_acceleration_covariance8
1446040013500490194,1,1446040013495932102,robocape,-5.52519706649,-7.79714835515,-62.6936687872,0.0,10.0,0.0,0.0,0.0,10.0,0.0,0.0,0.0,10.0,-0.613192840991,-0.190948650159,-1.927595997,1.0,0.0,0.0,0.0,1.0,0.0,0.0,0.0,1.0,-1.21307739258,1.09811645508,8.8100793457,0.1,0.0,0.0,0.0,0.1,0.0,0.0,0.0,0.1
1446040013525168277,2,1446040013522202968,robocape,-6.33389462816,-8.18914697311,-65.5759619492,0.0,10.0,0.0,0.0,0.0,10.0,0.0,0.0,0.0,10.0,-0.690557670658,-0.0723048235957,-1.87166961411,1.0,0.0,0.0,0.0,1.0,0.0,0.0,0.0,1.0,-1.04422851562,1.24541015625,9.17412231445,0.1,0.0,0.0,0.0,0.1,0.0,0.0,0.0,0.1
1446040013558464319,3,1446040013555347919,robocape,-7.33166086491,-8.37729932268,-68.319198966,0.0,10.0,0.0,0.0,0.0,10.0,0.0,0.0,0.0,10.0,-0.791491475972,0.0523311154201,-1.79044320086,1.0,0.0,0.0,0.0,1.0,0.0,0.0,0.0,1.0,-1.00830322266,0.814306640625,9.46990722656,0.1,0.0,0.0,0.0,0.1,0.0,0.0,0.0,0.1
1446040013592004777,4,1446040013588685989,robocape,-8.3477992966,-8.41247643224,-70.8761006484,0.0,10.0,0.0,0.0,0.0,10.0,0.0,0.0,0.0,10.0,-0.789494105154,0.149137021044,-1.66181252021,1.0,0.0,0.0,0.0,1.0,0.0,0.0,0.0,1.0,-1.16757202148,0.500559082031,9.6183984375,0.1,0.0,0.0,0.0,0.1,0.0,0.0,0.0,0.1
1446040013624999194,5,1446040013621975898,robocape,-9.37903499173,-8.44763009106,-73.2763944063,0.0,10.0,0.0,0.0,0.0,10.0,0.0,0.0,0.0,10.0,-0.786031995737,0.16498282953,-1.56314240182,1.0,0.0,0.0,0.0,1.0,0.0,0.0,0.0,1.0,-1.22744750977,0.568817138672,9.57289306641,0.1,0.0,0.0,0.0,0.1,0.0,0.0,0.0,0.1
1446040013658381986,6,1446040013655272006,robocape,-10.5220729704,-8.45683328129,-75.5457349876,0.0,10.0,0.0,0.0,0.0,10.0,0.0,0.0,0.0,10.0,-0.835566792012,0.194410759576,-1.47885335332,1.0,0.0,0.0,0.0,1.0,0.0,0.0,0.0,1.0,-1.07536376953,0.883762207031,9.6219909668,0.1,0.0,0.0,0.0,0.1,0.0,0.0,0.0,0.1
1446040013691963819,7,1446040013688527107,robocape,-11.9128040388,-8.47003880577,-77.7155903761,0.0,10.0,0.0,0.0,0.0,10.0,0.0,0.0,0.0,10.0,-0.962066943791,0.212253938879,-1.42825329261,1.0,0.0,0.0,0.0,1.0,0.0,0.0,0.0,1.0,-0.811911621094,0.910107421875,9.70342163086,0.1,0.0,0.0,0.0,0.1,0.0,0.0,0.0,0.1
1446040013724889694,8,1446040013721925973,robocape,-13.5016113157,-8.39330978683,-79.8837039325,0.0,10.0,0.0,0.0,0.0,10.0,0.0,0.0,0.0,10.0,-1.07525129012,0.292548245745,-1.44050383362,1.0,0.0,0.0,0.0,1.0,0.0,0.0,0.0,1.0,-0.288599853516,0.237106933594,9.91657836914,0.1,0.0,0.0,0.0,0.1,0.0,0.0,0.0,0.1
1446040013758380986,9,1446040013755286931,robocape,-15.1091294091,-8.14362346852,-82.1281092584,0.0,10.0,0.0,0.0,0.0,10.0,0.0,0.0,0.0,10.0,-1.10068447853,0.429035251612,-1.4900386299,1.0,0.0,0.0,0.0,1.0,0.0,0.0,0.0,1.0,-0.0502954101563,-0.522114257812,10.0926123047,0.1,0.0,0.0,0.0,0.1,0.0,0.0,0.0,0.1
1446040013792062944,10,1446040013788609981,robocape,-16.3443374467,-7.69262547384,-84.6581532714,0.0,10.0,0.0,0.0,0.0,10.0,0.0,0.0,0.0,10.0,-0.943025341997,0.612527050718,-1.69070781804,1.0,0.0,0.0,0.0,1.0,0.0,0.0,0.0,1.0,-0.244291992188,-1.65615600586,10.3273242188,0.1,0.0,0.0,0.0,0.1,0.0,0.0,0.0,0.1
1446040013824984736,11,1446040013822031021,robocape,-17.4511042442,-7.00364323075,-87.4025139524,0.0,10.0,0.0,0.0,0.0,10.0,0.0,0.0,0.0,10.0,-0.899083184011,0.807070968349,-1.84663589986,1.0,0.0,0.0,0.0,1.0,0.0,0.0,0.0,1.0,-0.452658691406,-0.537681884766,10.4315075684,0.1,0.0,0.0,0.0,0.1,0.0,0.0,0.0,0.1
1446040013858540403,12,1446040013855453014,robocape,-18.0090258751,-6.23303716597,-90.3318467167,0.0,10.0,0.0,0.0,0.0,10.0,0.0,0.0,0.0,10.0,-0.615190211808,0.914662676388,-1.98565290876,1.0,0.0,0.0,0.0,1.0,0.0,0.0,0.0,1.0,-0.810714111328,-2.85725830078,10.2051782227,0.1,0.0,0.0,0.0,0.1,0.0,0.0,0.0,0.1
1446040013891880111,13,1446040013888607025,robocape,-18.4395413092,-5.59518923762,-93.1800510984,0.0,10.0,0.0,0.0,0.0,10.0,0.0,0.0,0.0,10.0,-0.519715886729,0.856738922678,-1.96847551973,1.0,0.0,0.0,0.0,1.0,0.0,0.0,0.0,1.0,-1.76033935547,-1.32684082031,10.3117565918,0.1,0.0,0.0,0.0,0.1,0.0,0.0,0.0,0.1
1446040013925354819,14,1446040013922195911,robocape,-18.8695472303,-5.21307866283,-95.8392592251,0.0,10.0,0.0,0.0,0.0,10.0,0.0,0.0,0.0,10.0,-0.483363737849,0.709998746615,-1.87699593629,1.0,0.0,0.0,0.0,1.0,0.0,0.0,0.0,1.0,-2.21659057617,-1.82979492188,9.80041992188,0.1,0.0,0.0,0.0,0.1,0.0,0.0,0.0,0.1
1446040013958339153,15,1446040013955305099,robocape,-19.0612475133,-5.22958782689,-98.3262626393,0.0,10.0,0.0,0.0,0.0,10.0,0.0,0.0,0.0,10.0,-0.330631449333,0.487092163375,-1.80549006102,1.0,0.0,0.0,0.0,1.0,0.0,0.0,0.0,1.0,-2.33634155273,-2.43214233398,9.12502441406,0.1,0.0,0.0,0.0,0.1,0.0,0.0,0.0,0.1
1446040013991948986,16,1446040013988759994,robocape,-18.8863678431,-5.70166647571,-100.60448185,0.0,10.0,0.0,0.0,0.0,10.0,0.0,0.0,0.0,10.0,-0.110254869129,0.212653413043,-1.67592727399,1.0,0.0,0.0,0.0,1.0,0.0,0.0,0.0,1.0,-1.8776953125,-1.39749389648,9.32620605469,0.1,0.0,0.0,0.0,0.1,0.0,0.0,0.0,0.1
1446040014024972069,17,1446040014021951913,robocape,-18.7521119431,-6.17302357585,-102.727397527,0.0,10.0,0.0,0.0,0.0,10.0,0.0,0.0,0.0,10.0,-0.113983294655,0.169643361438,-1.5020228548,1.0,0.0,0.0,0.0,1.0,0.0,0.0,0.0,1.0,-0.387993164063,-1.59987304688,9.24597290039,0.1,0.0,0.0,0.0,0.1,0.0,0.0,0.0,0.1
1446040014058345653,18,1446040014055267095,robocape,-18.6998298999,-6.2347305113,-104.769737417,0.0,10.0,0.0,0.0,0.0,10.0,0.0,0.0,0.0,10.0,-0.135288583376,0.342482516184,-1.27418942355,1.0,0.0,0.0,0.0,1.0,0.0,0.0,0.0,1.0,0.317340087891,-1.23463256836,8.84241210938,0.1,0.0,0.0,0.0,0.1,0.0,0.0,0.0,0.1
1446040014091796736,19,1446040014088629007,robocape,-18.963998817,-5.98105549463,-106.595954212,0.0,10.0,0.0,0.0,0.0,10.0,0.0,0.0,0.0,10.0,-0.248472929704,0.438489473482,-0.903477399809,1.0,0.0,0.0,0.0,1.0,0.0,0.0,0.0,1.0,0.155676269531,-1.78668457031,8.53584960938,0.1,0.0,0.0,0.0,0.1,0.0,0.0,0.0,0.1
1446040014125212861,20,1446040014122018098,robocape,-18.8746863279,-5.62605580036,-108.270972906,0.0,10.0,0.0,0.0,0.0,10.0,0.0,0.0,0.0,10.0,-0.00692421883421,0.432364202974,-0.564590151097,1.0,0.0,0.0,0.0,1.0,0.0,0.0,0.0,1.0,-0.468226318359,-1.80823974609,7.80057861328,0.1,0.0,0.0,0.0,0.1,0.0,0.0,0.0,0.1
1446040014158293736,21,1446040014155235052,robocape,-18.1939448969,-5.44563041385,-109.810827619,0.0,10.0,0.0,0.0,0.0,10.0,0.0,0.0,0.0,10.0,0.349406735018,0.287221923565,-0.298407200143,1.0,0.0,0.0,0.0,1.0,0.0,0.0,0.0,1.0,-1.04782104492,-1.8046472168,7.31199462891,0.1,0.0,0.0,0.0,0.1,0.0,0.0,0.0,0.1
1446040014191789153,22,1446040014188474893,robocape,-17.1149093336,-5.63073271173,-111.209520912,0.0,10.0,0.0,0.0,0.0,10.0,0.0,0.0,0.0,10.0,0.587093862308,0.0516653251475,-0.114649084928,1.0,0.0,0.0,0.0,1.0,0.0,0.0,0.0,1.0,-1.18074462891,-1.36516113281,7.47964599609,0.1,0.0,0.0,0.0,0.1,0.0,0.0,0.0,0.1
1446040014224872986,23,1446040014221892118,robocape,-15.508732188,-6.0494170419,-112.66304016,0.0,10.0,0.0,0.0,0.0,10.0,0.0,0.0,0.0,10.0,0.851945232716,-0.0696416625056,-0.164317039258,1.0,0.0,0.0,0.0,1.0,0.0,0.0,0.0,1.0,-0.838256835938,-1.33642089844,7.87003417969,0.1,0.0,0.0,0.0,0.1,0.0,0.0,0.0,0.1
1446040014258602569,24,1446040014255516052,robocape,-13.5818398394,-6.51319494173,-114.205189063,0.0,10.0,0.0,0.0,0.0,10.0,0.0,0.0,0.0,10.0,0.998818566834,-0.0924116898257,-0.243945555851,1.0,0.0,0.0,0.0,1.0,0.0,0.0,0.0,1.0,-0.414338378906,-1.27774291992,8.20294189453,0.1,0.0,0.0,0.0,0.1,0.0,0.0,0.0,0.1
1446040014291913861,25,1446040014288611888,robocape,-11.2577621309,-7.04227081224,-115.863146802,0.0,10.0,0.0,0.0,0.0,10.0,0.0,0.0,0.0,10.0,1.17818246625,-0.127565416215,-0.372975710666,1.0,0.0,0.0,0.0,1.0,0.0,0.0,0.0,1.0,-0.571212158203,-0.343685302734,8.15743652344,0.1,0.0,0.0,0.0,0.1,0.0,0.0,0.0,0.1
1446040014325284319,26,1446040014322019100,robocape,-8.86005187714,-7.74930890671,-117.607472921,0.0,10.0,0.0,0.0,0.0,10.0,0.0,0.0,0.0,10.0,1.18350878843,-0.229963960128,-0.543018546267,1.0,0.0,0.0,0.0,1.0,0.0,0.0,0.0,1.0,-0.877774658203,0.832269287109,8.40891357422,0.1,0.0,0.0,0.0,0.1,0.0,0.0,0.0,0.1
1446040014358550528,27,1446040014355515956,robocape,-6.99935275497,-8.53545033642,-119.337423307,0.0,10.0,0.0,0.0,0.0,10.0,0.0,0.0,0.0,10.0,0.883503691634,-0.295877197108,-0.587493336471,1.0,0.0,0.0,0.0,1.0,0.0,0.0,0.0,1.0,-0.21076171875,1.6058605957,8.74301879883,0.1,0.0,0.0,0.0,0.1,0.0,0.0,0.0,0.1
1446040014392162570,28,1446040014388566970,robocape,-5.8245882251,-9.11296034076,-121.003631526,0.0,10.0,0.0,0.0,0.0,10.0,0.0,0.0,0.0,10.0,0.524243260582,-0.210522884171,-0.479635312323,1.0,0.0,0.0,0.0,1.0,0.0,0.0,0.0,1.0,0.2682421875,2.31837890625,9.06874145508,0.1,0.0,0.0,0.0,0.1,0.0,0.0,0.0,0.1
1446040014425359528,29,1446040014422143936,robocape,-6.27928714517,-9.44430481318,-122.453447275,0.0,10.0,0.0,0.0,0.0,10.0,0.0,0.0,0.0,10.0,-0.298140884034,-0.0962732734064,-0.200669188137,1.0,0.0,0.0,0.0,1.0,0.0,0.0,0.0,1.0,0.0634680175781,3.42008789063,9.85311035156,0.1,0.0,0.0,0.0,0.1,0.0,0.0,0.0,0.1
1446040014458401736,30,1446040014455394983,robocape,-7.06899772808,-9.46501115959,-123.872705493,0.0,10.0,0.0,0.0,0.0,10.0,0.0,0.0,0.0,10.0,-0.458596339712,0.0677774497425,-0.068709556124,1.0,0.0,0.0,0.0,1.0,0.0,0.0,0.0,1.0,0.144898681641,0.581989746094,9.55612792969,0.1,0.0,0.0,0.0,0.1,0.0,0.0,0.0,0.1
1446040014491755445,31,1446040014488737106,robocape,-7.46088285398,-9.23908179057,-125.355942191,0.0,10.0,0.0,0.0,0.0,10.0,0.0,0.0,0.0,10.0,-0.244744504178,0.200003397865,-0.00798948327024,1.0,0.0,0.0,0.0,1.0,0.0,0.0,0.0,1.0,-0.171243896484,-0.874182128906,9.17412231445,0.1,0.0,0.0,0.0,0.1,0.0,0.0,0.0,0.1
1446040014525027153,32,1446040014521980047,robocape,-7.14006845729,-9.00360750724,-126.914795988,0.0,10.0,0.0,0.0,0.0,10.0,0.0,0.0,0.0,10.0,0.131160683686,0.204131297555,0.03488741028,1.0,0.0,0.0,0.0,1.0,0.0,0.0,0.0,1.0,-1.63460083008,-0.811911621094,9.1585546875,0.1,0.0,0.0,0.0,0.1,0.0,0.0,0.0,0.1
1446040014558294195,33,1446040014555253982,robocape,-6.5363837169,-8.99895179597,-128.486684784,0.0,10.0,0.0,0.0,0.0,10.0,0.0,0.0,0.0,10.0,0.281629285276,0.0784300941028,0.0715058752686,1.0,0.0,0.0,0.0,1.0,0.0,0.0,0.0,1.0,-1.97828613281,0.387993164063,9.17412231445,0.1,0.0,0.0,0.0,0.1,0.0,0.0,0.0,0.1
1446040014591677361,34,1446040014588538885,robocape,-5.8864169086,-9.37886202135,-130.059352766,0.0,10.0,0.0,0.0,0.0,10.0,0.0,0.0,0.0,10.0,0.30067088707,-0.125834361506,0.0563258570552,1.0,0.0,0.0,0.0,1.0,0.0,0.0,0.0,1.0,-1.78668457031,0.425115966797,9.41362426758,0.1,0.0,0.0,0.0,0.1,0.0,0.0,0.0,0.1
1446040014625197486,35,1446040014622010946,robocape,-5.4838675367,-10.2546492602,-131.621770812,0.0,10.0,0.0,0.0,0.0,10.0,0.0,0.0,0.0,10.0,0.158191768751,-0.384959935571,-0.0162452826495,1.0,0.0,0.0,0.0,1.0,0.0,0.0,0.0,1.0,-2.13156738281,1.08494384766,10.9009313965,0.1,0.0,0.0,0.0,0.1,0.0,0.0,0.0,0.1
1446040014658310070,36,1446040014655262947,robocape,-5.36793275073,-11.3011166662,-133.191629155,0.0,10.0,0.0,0.0,0.0,10.0,0.0,0.0,0.0,10.0,-0.00625842856169,-0.472311619326,-0.0741690363587,1.0,0.0,0.0,0.0,1.0,0.0,0.0,0.0,1.0,-1.29331054688,0.338895263672,11.9008520508,0.1,0.0,0.0,0.0,0.1,0.0,0.0,0.0,0.1
1446040014691833361,37,1446040014688663959,robocape,-4.94348264069,-12.0965940703,-134.842519072,0.0,10.0,0.0,0.0,0.0,10.0,0.0,0.0,0.0,10.0,0.143278066646,-0.340085671203,-0.0636495500529,1.0,0.0,0.0,0.0,1.0,0.0,0.0,0.0,1.0,-0.387993164063,-0.78556640625,11.726015625,0.1,0.0,0.0,0.0,0.1,0.0,0.0,0.0,0.1
1446040014725297153,38,1446040014722335100,robocape,-4.14999566425,-12.6633871529,-136.555139636,0.0,10.0,0.0,0.0,0.0,10.0,0.0,0.0,0.0,10.0,0.33822145844,-0.22410500573,0.050733218766,1.0,0.0,0.0,0.0,1.0,0.0,0.0,0.0,1.0,-0.638272705078,0.40236328125,12.1415515137,0.1,0.0,0.0,0.0,0.1,0.0,0.0,0.0,0.1
1446040014762225445,39,1446040014759273052,robocape,-3.42840551194,-13.0623444751,-138.287385978,0.0,10.0,0.0,0.0,0.0,10.0,0.0,0.0,0.0,10.0,0.302268783724,-0.140881221665,0.128630680651,1.0,0.0,0.0,0.0,1.0,0.0,0.0,0.0,1.0,0.0347277832031,0.536484375,12.5008044434,0.1,0.0,0.0,0.0,0.1,0.0,0.0,0.0,0.1
1446040014791737903,40,1446040014788605928,robocape,-2.78276125812,-13.2070284948,-140.102944971,0.0,10.0,0.0,0.0,0.0,10.0,0.0,0.0,0.0,10.0,0.230762908455,-0.0134489635049,-0.0532632218016,1.0,0.0,0.0,0.0,1.0,0.0,0.0,0.0,1.0,0.587977294922,1.30887817383,12.5666674805,0.1,0.0,0.0,0.0,0.1,0.0,0.0,0.0,0.1
1446040014825434945,41,1446040014822438955,robocape,-2.86623864637,-12.8249086517,-141.924804783,0.0,10.0,0.0,0.0,0.0,10.0,0.0,0.0,0.0,10.0,-0.166314410075,0.257527677411,-0.182293376616,1.0,0.0,0.0,0.0,1.0,0.0,0.0,0.0,1.0,0.445473632813,2.78421020508,13.0576464844,0.1,0.0,0.0,0.0,0.1,0.0,0.0,0.0,0.1
1446040014859195986,42,1446040014856178045,robocape,-3.51707941294,-12.0653041266,-143.731085607,0.0,10.0,0.0,0.0,0.0,10.0,0.0,0.0,0.0,10.0,-0.454068965859,0.456732126949,-0.166048093966,1.0,0.0,0.0,0.0,1.0,0.0,0.0,0.0,1.0,-0.447868652344,0.989143066406,13.8192626953,0.1,0.0,0.0,0.0,0.1,0.0,0.0,0.0,0.1
1446040014891776070,43,1446040014888603925,robocape,-3.87945130888,-11.2985430373,-145.612061476,0.0,10.0,0.0,0.0,0.0,10.0,0.0,0.0,0.0,10.0,-0.312255637812,0.463789503837,-0.279898230567,1.0,0.0,0.0,0.0,1.0,0.0,0.0,0.0,1.0,-1.48131958008,-1.11368408203,13.3474438477,0.1,0.0,0.0,0.0,0.1,0.0,0.0,0.0,0.1
1446040014926337028,44,1446040014922651052,robocape,-3.70797058587,-10.6158518633,-147.583265735,0.0,10.0,0.0,0.0,0.0,10.0,0.0,0.0,0.0,10.0,-0.0466053190764,0.420779452233,-0.44022052819,1.0,0.0,0.0,0.0,1.0,0.0,0.0,0.0,1.0,-1.8357824707,-0.546064453125,13.3462463379,0.1,0.0,0.0,0.0,0.1,0.0,0.0,0.0,0.1
1446040014958668486,45,1446040014955540895,robocape,-3.46710801872,-9.999664366,-149.555887144,0.0,10.0,0.0,0.0,0.0,10.0,0.0,0.0,0.0,10.0,0.00719053494321,0.380965193936,-0.348075154473,1.0,0.0,0.0,0.0,1.0,0.0,0.0,0.0,1.0,-1.65495849609,0.576002197266,13.9042858887,0.1,0.0,0.0,0.0,0.1,0.0,0.0,0.0,0.1
1446040014991722236,46,1446040014988598108,robocape,-3.29803621926,-9.44756359646,-151.507227302,0.0,10.0,0.0,0.0,0.0,10.0,0.0,0.0,0.0,10.0,-0.00359526747161,0.341284093694,-0.146740176063,1.0,0.0,0.0,0.0,1.0,0.0,0.0,0.0,1.0,-1.43940673828,0.0299377441406,13.2851733398,0.1,0.0,0.0,0.0,0.1,0.0,0.0,0.0,0.1
1446040015025466361,47,1446040015022427082,robocape,-3.03118479323,-8.95013513485,-153.477211141,0.0,10.0,0.0,0.0,0.0,10.0,0.0,0.0,0.0,10.0,0.0537958540196,0.308260896177,-0.121040671544,1.0,0.0,0.0,0.0,1.0,0.0,0.0,0.0,1.0,-1.60825561523,0.269439697266,12.0397631836,0.1,0.0,0.0,0.0,0.1,0.0,0.0,0.0,0.1
1446040015058320778,48,1446040015055285930,robocape,-2.8208873343,-8.47911302871,-155.449787147,0.0,10.0,0.0,0.0,0.0,10.0,0.0,0.0,0.0,10.0,0.03488741028,0.289618768546,-0.0430100516048,1.0,0.0,0.0,0.0,1.0,0.0,0.0,0.0,1.0,-1.15439941406,0.426313476563,11.7475708008,0.1,0.0,0.0,0.0,0.1,0.0,0.0,0.0,0.1
1446040015091901445,49,1446040015088747024,robocape,-2.48710670877,-7.9813044212,-157.439454725,0.0,10.0,0.0,0.0,0.0,10.0,0.0,0.0,0.0,10.0,0.11145329162,0.297741409871,0.0675111336335,1.0,0.0,0.0,0.0,1.0,0.0,0.0,0.0,1.0,-0.835861816406,-0.330512695313,11.6218322754,0.1,0.0,0.0,0.0,0.1,0.0,0.0,0.0,0.1
1446040015125422237,50,1446040015122415065,robocape,-1.92895997585,-7.62106589593,-159.454393629,0.0,10.0,0.0,0.0,0.0,10.0,0.0,0.0,0.0,10.0,0.230363434292,0.219311315768,0.0719053494321,1.0,0.0,0.0,0.0,1.0,0.0,0.0,0.0,1.0,-1.17715209961,0.0299377441406,10.918894043,0.1,0.0,0.0,0.0,0.1,0.0,0.0,0.0,0.1
1446040015158285570,51,1446040015155277967,robocape,-1.31525013752,-7.4273992831,-161.487564541,0.0,10.0,0.0,0.0,0.0,10.0,0.0,0.0,0.0,10.0,0.252600829394,0.125967519561,-0.0260989786828,1.0,0.0,0.0,0.0,1.0,0.0,0.0,0.0,1.0,-0.656235351563,0.640667724609,10.407557373,0.1,0.0,0.0,0.0,0.1,0.0,0.0,0.0,0.1
1446040015191869237,52,1446040015188695907,robocape,-0.884622067754,-7.23189471637,-163.523838725,0.0,10.0,0.0,0.0,0.0,10.0,0.0,0.0,0.0,10.0,0.154729659334,0.121440145708,-0.0712395591596,1.0,0.0,0.0,0.0,1.0,0.0,0.0,0.0,1.0,-0.276624755859,1.08254882812,10.3596569824,0.1,0.0,0.0,0.0,0.1,0.0,0.0,0.0,0.1
1446040015230271195,53,1446040015227222919,robocape,-0.865091121946,-7.03268407826,-165.541975269,0.0,10.0,0.0,0.0,0.0,10.0,0.0,0.0,0.0,10.0,-0.049135322112,0.121573303762,0.068176923906,1.0,0.0,0.0,0.0,1.0,0.0,0.0,0.0,1.0,-0.754431152344,1.05859863281,10.4506677246,0.1,0.0,0.0,0.0,0.1,0.0,0.0,0.0,0.1
1446040015258324362,54,1446040015255383014,robocape,-1.05758855245,-6.97856252566,-167.555590517,0.0,10.0,0.0,0.0,0.0,10.0,0.0,0.0,0.0,10.0,-0.153264920734,0.0460726868584,0.167379674511,1.0,0.0,0.0,0.0,1.0,0.0,0.0,0.0,1.0,-1.30528564453,1.05620361328,10.3512744141,0.1,0.0,0.0,0.0,0.1,0.0,0.0,0.0,0.1
1446040015291764987,55,1446040015288631916,robocape,-1.2921922788,-7.04557466514,-169.576267666,0.0,10.0,0.0,0.0,0.0,10.0,0.0,0.0,0.0,10.0,-0.173105470855,-0.0167779148675,0.215582890242,1.0,0.0,0.0,0.0,1.0,0.0,0.0,0.0,1.0,-1.19032470703,-0.0251477050781,10.2111657715,0.1,0.0,0.0,0.0,0.1,0.0,0.0,0.0,0.1
1446040015325428570,56,1446040015322446107,robocape,-1.2741027634,-7.1116095834,-171.623474793,0.0,10.0,0.0,0.0,0.0,10.0,0.0,0.0,0.0,10.0,-0.0422111032778,-0.017976337358,0.218911841605,1.0,0.0,0.0,0.0,1.0,0.0,0.0,0.0,1.0,-0.913699951172,-0.32572265625,10.4985681152,0.1,0.0,0.0,0.0,0.1,0.0,0.0,0.0,0.1
1446040015358295987,57,1446040015355355024,robocape,-1.04973893799,-7.10260899818,-173.693807519,0.0,10.0,0.0,0.0,0.0,10.0,0.0,0.0,0.0,10.0,0.0636495500529,0.0181094954125,0.201468136464,1.0,0.0,0.0,0.0,1.0,0.0,0.0,0.0,1.0,-0.736468505859,-0.261057128906,9.87586303711,0.1,0.0,0.0,0.0,0.1,0.0,0.0,0.0,0.1
1446040015392312945,58,1446040015388674974,robocape,-0.775890242395,-7.04968276053,-175.774846257,0.0,10.0,0.0,0.0,0.0,10.0,0.0,0.0,0.0,10.0,0.0789627263208,0.0384826777516,0.0363521488796,1.0,0.0,0.0,0.0,1.0,0.0,0.0,0.0,1.0,-0.793948974609,0.0227526855469,9.40164916992,0.1,0.0,0.0,0.0,0.1,0.0,0.0,0.0,0.1
1446040015427070987,59,1446040015423016071,robocape,-0.688973451946,-6.81030302751,-177.849792327,0.0,10.0,0.0,0.0,0.0,10.0,0.0,0.0,0.0,10.0,-0.0284958236638,0.134889109213,-0.153930711007,1.0,0.0,0.0,0.0,1.0,0.0,0.0,0.0,1.0,-0.671802978516,0.554447021484,9.49744995117,0.1,0.0,0.0,0.0,0.1,0.0,0.0,0.0,0.1
1446040015458735862,60,1446040015455542087,robocape,-0.402432592478,-7.36678735077,-179.934496823,0.0,10.0,0.0,0.0,0.0,10.0,0.0,0.0,0.0,10.0,0.0753674588492,-0.28589034302,-0.0782969360483,1.0,0.0,0.0,0.0,1.0,0.0,0.0,0.0,1.0,-2.86923339844,-0.859812011719,10.6051464844,0.1,0.0,0.0,0.0,0.1,0.0,0.0,0.0,0.1
1446040015491700612,61,1446040015488671064,robocape,-0.0586558792542,-7.93608668911,177.972483902,0.0,10.0,0.0,0.0,0.0,10.0,0.0,0.0,0.0,10.0,0.101333279478,-0.297341935707,-0.0426105774413,1.0,0.0,0.0,0.0,1.0,0.0,0.0,0.0,1.0,-0.560434570312,0.729283447266,10.3033740234,0.1,0.0,0.0,0.0,0.1,0.0,0.0,0.0,0.1
1446040015525474362,62,1446040015522413969,robocape,0.173320767819,-8.60739285581,175.884090808,0.0,10.0,0.0,0.0,0.0,10.0,0.0,0.0,0.0,10.0,0.0400805744057,-0.354599899144,0.0130494893414,1.0,0.0,0.0,0.0,1.0,0.0,0.0,0.0,1.0,-0.856219482422,0.650247802734,10.1309326172,0.1,0.0,0.0,0.0,0.1,0.0,0.0,0.0,0.1
1446040015558464487,63,1446040015555438995,robocape,0.360345491947,-9.20535785963,173.798596694,0.0,10.0,0.0,0.0,0.0,10.0,0.0,0.0,0.0,10.0,0.00852211548825,-0.31957933081,-0.0195742340121,1.0,0.0,0.0,0.0,1.0,0.0,0.0,0.0,1.0,-0.409548339844,0.832269287109,10.407557373,0.1,0.0,0.0,0.0,0.1,0.0,0.0,0.0,0.1
1446040015591947737,64,1446040015588732004,robocape,0.537279334893,-9.68685402487,171.715912308,0.0,10.0,0.0,0.0,0.0,10.0,0.0,0.0,0.0,10.0,-0.00905474770627,-0.261921893209,-0.115714349364,1.0,0.0,0.0,0.0,1.0,0.0,0.0,0.0,1.0,-0.126936035156,0.523311767578,10.3213366699,0.1,0.0,0.0,0.0,0.1,0.0,0.0,0.0,0.1
1446040015625459528,65,1446040015622349977,robocape,0.859467970734,-9.98822452967,169.624929596,0.0,10.0,0.0,0.0,0.0,10.0,0.0,0.0,0.0,10.0,0.0521979573656,-0.172306522528,-0.248073455541,1.0,0.0,0.0,0.0,1.0,0.0,0.0,0.0,1.0,-0.0335302734375,0.285007324219,10.4267175293,0.1,0.0,0.0,0.0,0.1,0.0,0.0,0.0,0.1
1446040015658453737,66,1446040015655380010,robocape,1.17147252744,-10.0881278883,167.543795639,0.0,10.0,0.0,0.0,0.0,10.0,0.0,0.0,0.0,10.0,0.0472711093489,-0.0717721913776,-0.234225017872,1.0,0.0,0.0,0.0,1.0,0.0,0.0,0.0,1.0,-0.223934326172,0.407153320313,10.039921875,0.1,0.0,0.0,0.0,0.1,0.0,0.0,0.0,0.1
1446040015692104112,67,1446040015688937902,robocape,1.33713817531,-10.2258893341,165.485834699,0.0,10.0,0.0,0.0,0.0,10.0,0.0,0.0,0.0,10.0,-0.0197073920666,-0.0949416928613,-0.123437516525,1.0,0.0,0.0,0.0,1.0,0.0,0.0,0.0,1.0,-0.289797363281,0.343685302734,9.83634521484,0.1,0.0,0.0,0.0,0.1,0.0,0.0,0.0,0.1
1446040015725661028,68,1446040015722618103,robocape,1.41901205877,-10.4117282392,163.448182997,0.0,10.0,0.0,0.0,0.0,10.0,0.0,0.0,0.0,10.0,-0.0553937506736,-0.122505410144,-0.0247673981377,1.0,0.0,0.0,0.0,1.0,0.0,0.0,0.0,1.0,-0.296982421875,0.112565917969,9.98603393555,0.1,0.0,0.0,0.0,0.1,0.0,0.0,0.0,0.1
1446040015758457654,69,1446040015755430936,robocape,1.46398726926,-10.6370497832,161.428637652,0.0,10.0,0.0,0.0,0.0,10.0,0.0,0.0,0.0,10.0,-0.0697748205601,-0.145408595518,0.0403468905147,1.0,0.0,0.0,0.0,1.0,0.0,0.0,0.0,1.0,-0.395178222656,0.0934057617188,9.92615844727,0.1,0.0,0.0,0.0,0.1,0.0,0.0,0.0,0.1
1446040015792051612,70,1446040015788840055,robocape,1.5051537055,-10.9551157467,159.425111027,0.0,10.0,0.0,0.0,0.0,10.0,0.0,0.0,0.0,10.0,-0.0677774497425,-0.196541288448,0.102931176132,1.0,0.0,0.0,0.0,1.0,0.0,0.0,0.0,1.0,-0.1916015625,-0.0431103515625,9.96328125,0.1,0.0,0.0,0.0,0.1,0.0,0.0,0.0,0.1
1446040015826229529,71,1446040015822268962,robocape,1.6469029001,-11.2433484737,157.428409509,0.0,10.0,0.0,0.0,0.0,10.0,0.0,0.0,0.0,10.0,-0.018242653467,-0.184423905488,0.0869522095911,1.0,0.0,0.0,0.0,1.0,0.0,0.0,0.0,1.0,-0.237106933594,0.0335302734375,10.1560803223,0.1,0.0,0.0,0.0,0.1,0.0,0.0,0.0,0.1
1446040015858407820,72,1446040015855375051,robocape,1.80741015505,-11.5129568665,155.447934039,0.0,10.0,0.0,0.0,0.0,10.0,0.0,0.0,0.0,10.0,-0.00958737992429,-0.178165476926,0.0844222065555,1.0,0.0,0.0,0.0,1.0,0.0,0.0,0.0,1.0,0.185614013672,0.164058837891,10.0363293457,0.1,0.0,0.0,0.0,0.1,0.0,0.0,0.0,0.1
1446040015891982279,73,1446040015888784885,robocape,1.97960981524,-11.7064092859,153.490693579,0.0,10.0,0.0,0.0,0.0,10.0,0.0,0.0,0.0,10.0,-0.000399474163512,-0.141813328047,0.110654343293,1.0,0.0,0.0,0.0,1.0,0.0,0.0,0.0,1.0,-0.09580078125,0.251477050781,10.1177600098,0.1,0.0,0.0,0.0,0.1,0.0,0.0,0.0,0.1
1446040015926849779,74,1446040015923300981,robocape,2.11894093525,-11.8797225693,151.5591233,0.0,10.0,0.0,0.0,0.0,10.0,0.0,0.0,0.0,10.0,-0.016644756813,-0.13422331894,0.114249610764,1.0,0.0,0.0,0.0,1.0,0.0,0.0,0.0,1.0,-0.0550854492188,0.286204833984,10.019564209,0.1,0.0,0.0,0.0,0.1,0.0,0.0,0.0,0.1
1446040015958634612,75,1446040015955338954,robocape,2.24672642272,-12.0142911594,149.652208869,0.0,10.0,0.0,0.0,0.0,10.0,0.0,0.0,0.0,10.0,-0.0225037112112,-0.116646455745,0.107192233876,1.0,0.0,0.0,0.0,1.0,0.0,0.0,0.0,1.0,-0.253872070313,0.310155029297,10.1309326172,0.1,0.0,0.0,0.0,0.1,0.0,0.0,0.0,0.1
1446040015992262820,76,1446040015988965988,robocape,2.40411151302,-12.133466825,147.760284517,0.0,10.0,0.0,0.0,0.0,10.0,0.0,0.0,0.0,10.0,-0.0115847507418,-0.111320133565,0.0601874406358,1.0,0.0,0.0,0.0,1.0,0.0,0.0,0.0,1.0,0.0634680175781,0.106578369141,9.9596887207,0.1,0.0,0.0,0.0,0.1,0.0,0.0,0.0,0.1
1446040016025374404,77,1446040016022227048,robocape,2.61135824195,-12.2087304668,145.886770227,0.0,10.0,0.0,0.0,0.0,10.0,0.0,0.0,0.0,10.0,0.0138484376684,-0.0914795834442,0.0423442613323,1.0,0.0,0.0,0.0,1.0,0.0,0.0,0.0,1.0,0.0359252929688,0.0682580566406,10.1680554199,0.1,0.0,0.0,0.0,0.1,0.0,0.0,0.0,0.1
1446040016058398154,78,1446040016055284023,robocape,2.84177394953,-12.1899959655,144.037832053,0.0,10.0,0.0,0.0,0.0,10.0,0.0,0.0,0.0,10.0,0.0264984528463,-0.0451405804768,0.0233026595382,1.0,0.0,0.0,0.0,1.0,0.0,0.0,0.0,1.0,-0.047900390625,0.178428955078,10.003996582,0.1,0.0,0.0,0.0,0.1,0.0,0.0,0.0,0.1
1446040016092208445,79,1446040016088927984,robocape,3.02202722399,-12.1730978072,142.2235994,0.0,10.0,0.0,0.0,0.0,10.0,0.0,0.0,0.0,10.0,0.00532632218016,-0.0484695318394,0.0431432096593,1.0,0.0,0.0,0.0,1.0,0.0,0.0,0.0,1.0,-0.0646655273438,0.396375732422,9.73934692383,0.1,0.0,0.0,0.0,0.1,0.0,0.0,0.0,0.1
1446040016125519237,80,1446040016122420072,robocape,3.16670887752,-12.2285679765,140.436034095,0.0,10.0,0.0,0.0,0.0,10.0,0.0,0.0,0.0,10.0,-0.0113184346328,-0.0885501062451,0.0472711093489,1.0,0.0,0.0,0.0,1.0,0.0,0.0,0.0,1.0,-0.24908203125,0.422720947266,10.0147741699,0.1,0.0,0.0,0.0,0.1,0.0,0.0,0.0,0.1
1446040016168376279,81,1446040016158288955,robocape,3.36336804891,-11.8594345221,138.686266645,0.0,10.0,0.0,0.0,0.0,10.0,0.0,0.0,0.0,10.0,0.016644756813,0.132891738395,-0.00972053797879,1.0,0.0,0.0,0.0,1.0,0.0,0.0,0.0,1.0,0.876577148438,0.0742456054688,11.1548034668,0.1,0.0,0.0,0.0,0.1,0.0,0.0,0.0,0.1
1446040016193157612,82,1446040016189877986,robocape,3.56545763192,-11.5871688033,136.954987813,0.0,10.0,0.0,0.0,0.0,10.0,0.0,0.0,0.0,10.0,0.0218379209386,0.0805606229749,-0.0227700273202,1.0,0.0,0.0,0.0,1.0,0.0,0.0,0.0,1.0,0.380808105469,-0.0311352539063,10.1608703613,0.1,0.0,0.0,0.0,0.1,0.0,0.0,0.0,0.1
1446040016225450362,83,1446040016222377061,robocape,3.78151683026,-11.3463587691,135.249515208,0.0,10.0,0.0,0.0,0.0,10.0,0.0,0.0,0.0,10.0,0.0336889877895,0.0624511275624,-0.0197073920666,1.0,0.0,0.0,0.0,1.0,0.0,0.0,0.0,1.0,0.416733398438,-0.0179626464844,10.0734521484,0.1,0.0,0.0,0.0,0.1,0.0,0.0,0.0,0.1
1446040016258459820,84,1446040016255439996,robocape,3.982727659,-11.1150446635,133.582918889,0.0,10.0,0.0,0.0,0.0,10.0,0.0,0.0,0.0,10.0,0.034354778062,0.0563258570552,0.0135821215594,1.0,0.0,0.0,0.0,1.0,0.0,0.0,0.0,1.0,0.439486083984,0.317340087891,10.0087866211,0.1,0.0,0.0,0.0,0.1,0.0,0.0,0.0,0.1
1446040016291816695,85,1446040016288646936,robocape,4.07986666475,-10.9257755697,131.953756196,0.0,10.0,0.0,0.0,0.0,10.0,0.0,0.0,0.0,10.0,-0.015845808486,0.0342216200075,0.0187752856851,1.0,0.0,0.0,0.0,1.0,0.0,0.0,0.0,1.0,0.374820556641,0.827479248047,10.1896105957,0.1,0.0,0.0,0.0,0.1,0.0,0.0,0.0,0.1
1446040016325414195,86,1446040016322362899,robocape,4.02156814212,-10.7737654866,130.368872311,0.0,10.0,0.0,0.0,0.0,10.0,0.0,0.0,0.0,10.0,-0.0928111639893,0.0159789665405,0.0303600364269,1.0,0.0,0.0,0.0,1.0,0.0,0.0,0.0,1.0,0.225131835938,0.417930908203,9.96328125,0.1,0.0,0.0,0.0,0.1,0.0,0.0,0.0,0.1
1446040016358495695,87,1446040016355443000,robocape,3.95274440529,-10.6260216508,128.811508115,0.0,10.0,0.0,0.0,0.0,10.0,0.0,0.0,0.0,10.0,-0.0965395895154,0.0145142279409,0.0246342400832,1.0,0.0,0.0,0.0,1.0,0.0,0.0,0.0,1.0,0.138911132813,-0.142503662109,9.95010864258,0.1,0.0,0.0,0.0,0.1,0.0,0.0,0.0,0.1
1446040016392096487,88,1446040016388844013,robocape,4.00150700663,-10.4060751139,127.27419465,0.0,10.0,0.0,0.0,0.0,10.0,0.0,0.0,0.0,10.0,-0.0328900394625,0.0521979573656,0.0137152796139,1.0,0.0,0.0,0.0,1.0,0.0,0.0,0.0,1.0,-0.0502954101563,-0.393980712891,9.96567626953,0.1,0.0,0.0,0.0,0.1,0.0,0.0,0.0,0.1
1446040016425707320,89,1446040016422214031,robocape,4.10695308926,-10.1894873959,125.761789537,0.0,10.0,0.0,0.0,0.0,10.0,0.0,0.0,0.0,10.0,0.000399474163512,0.050200586548,0.016644756813,1.0,0.0,0.0,0.0,1.0,0.0,0.0,0.0,1.0,-0.231119384766,-0.311352539063,10.1249450684,0.1,0.0,0.0,0.0,0.1,0.0,0.0,0.0,0.1
1446040016458660612,90,1446040016455379009,robocape,4.33388484124,-9.96024586063,124.267852922,0.0,10.0,0.0,0.0,0.0,10.0,0.0,0.0,0.0,10.0,0.0672448175245,0.0556600667827,0.0133158054504,1.0,0.0,0.0,0.0,1.0,0.0,0.0,0.0,1.0,-0.0742456054688,0.0934057617188,10.0483044434,0.1,0.0,0.0,0.0,0.1,0.0,0.0,0.0,0.1
1446040016492066154,91,1446040016488801956,robocape,4.50204426824,-9.71503280857,122.811717422,0.0,10.0,0.0,0.0,0.0,10.0,0.0,0.0,0.0,10.0,0.0412789968962,0.0641821822709,0.0193079179031,1.0,0.0,0.0,0.0,1.0,0.0,0.0,0.0,1.0,0.0383203125,0.482596435547,10.0471069336,0.1,0.0,0.0,0.0,0.1,0.0,0.0,0.0,0.1
1446040016525346487,92,1446040016522229909,robocape,4.57781229353,-9.50385686692,121.390832773,0.0,10.0,0.0,0.0,0.0,10.0,0.0,0.0,0.0,10.0,-0.0034621094171,0.0471379512944,0.0235689756472,1.0,0.0,0.0,0.0,1.0,0.0,0.0,0.0,1.0,0.269439697266,0.558039550781,10.1249450684,0.1,0.0,0.0,0.0,0.1,0.0,0.0,0.0,0.1
1446040016558551196,93,1446040016555449008,robocape,4.61158245395,-9.3408440088,119.981910961,0.0,10.0,0.0,0.0,0.0,10.0,0.0,0.0,0.0,10.0,-0.0271642431188,0.0221042370477,-0.0099868540878,1.0,0.0,0.0,0.0,1.0,0.0,0.0,0.0,1.0,-0.32572265625,0.216749267578,9.97645385742,0.1,0.0,0.0,0.0,0.1,0.0,0.0,0.0,0.1
1446040016592201987,94,1446040016588898897,robocape,4.58818324312,-9.11478564913,118.634052257,0.0,10.0,0.0,0.0,0.0,10.0,0.0,0.0,0.0,10.0,-0.0479368996214,0.0573911214912,0.0394147841332,1.0,0.0,0.0,0.0,1.0,0.0,0.0,0.0,1.0,0.416733398438,0.0467028808594,10.0279467773,0.1,0.0,0.0,0.0,0.1,0.0,0.0,0.0,0.1
1446040016625336362,95,1446040016622226953,robocape,4.60709183716,-8.92482485167,117.286291362,0.0,10.0,0.0,0.0,0.0,10.0,0.0,0.0,0.0,10.0,-0.0286289817184,0.0384826777516,-0.00266316109008,1.0,0.0,0.0,0.0,1.0,0.0,0.0,0.0,1.0,-0.723295898438,-0.076640625,10.1596728516,0.1,0.0,0.0,0.0,0.1,0.0,0.0,0.0,0.1
1446040016658614696,96,1446040016655350923,robocape,4.71080791039,-8.68294334689,115.959437182,0.0,10.0,0.0,0.0,0.0,10.0,0.0,0.0,0.0,10.0,0.0181094954125,0.0659132369795,-0.0106526443603,1.0,0.0,0.0,0.0,1.0,0.0,0.0,0.0,1.0,-0.24908203125,-0.130528564453,10.0135766602,0.1,0.0,0.0,0.0,0.1,0.0,0.0,0.0,0.1
1446040016691914571,97,1446040016688694000,robocape,4.87585984984,-8.4367758439,114.664954895,0.0,10.0,0.0,0.0,0.0,10.0,0.0,0.0,0.0,10.0,0.0555269087282,0.0685763980695,0.00745685105222,1.0,0.0,0.0,0.0,1.0,0.0,0.0,0.0,1.0,0.0143701171875,-0.143701171875,10.0566870117,0.1,0.0,0.0,0.0,0.1,0.0,0.0,0.0,0.1
1446040016725265321,98,1446040016722207069,robocape,5.07780038419,-8.19261500777,113.396521515,0.0,10.0,0.0,0.0,0.0,10.0,0.0,0.0,0.0,10.0,0.0785632521573,0.067644291688,0.0115847507418,1.0,0.0,0.0,0.0,1.0,0.0,0.0,0.0,1.0,0.0299377441406,0.132923583984,10.0818347168,0.1,0.0,0.0,0.0,0.1,0.0,0.0,0.0,0.1
1446040016758471279,99,1446040016755449056,robocape,5.22423067906,-7.98944932997,112.14059352,0.0,10.0,0.0,0.0,0.0,10.0,0.0,0.0,0.0,10.0,0.049401638221,0.0460726868584,-0.0121173829599,1.0,0.0,0.0,0.0,1.0,0.0,0.0,0.0,1.0,-0.0981958007813,0.385598144531,10.152487793,0.1,0.0,0.0,0.0,0.1,0.0,0.0,0.0,0.1
1446040016791949404,100,1446040016788772106,robocape,5.34967611462,-7.82350961847,110.915538779,0.0,10.0,0.0,0.0,0.0,10.0,0.0,0.0,0.0,10.0,0.0420779452233,0.0272974011733,0.00066579027252,1.0,0.0,0.0,0.0,1.0,0.0,0.0,0.0,1.0,0.0227526855469,0.475411376953,10.0614770508,0.1,0.0,0.0,0.0,0.1,0.0,0.0,0.0,0.1
1446040016825437446,101,1446040016822364091,robocape,5.39126206062,-7.66562603279,109.723412166,0.0,10.0,0.0,0.0,0.0,10.0,0.0,0.0,0.0,10.0,0.000798948327024,0.0243679239742,0.00585895439817,1.0,0.0,0.0,0.0,1.0,0.0,0.0,0.0,1.0,0.0514929199219,0.332907714844,10.0518969727,0.1,0.0,0.0,0.0,0.1,0.0,0.0,0.0,0.1
1446040016858492196,102,1446040016855303049,robocape,5.40527334705,-7.51685045555,108.558386742,0.0,10.0,0.0,0.0,0.0,10.0,0.0,0.0,0.0,10.0,-0.0115847507418,0.0207726565026,0.00878843159726,1.0,0.0,0.0,0.0,1.0,0.0,0.0,0.0,1.0,0.0203576660156,0.232316894531,10.0854272461,0.1,0.0,0.0,0.0,0.1,0.0,0.0,0.0,0.1
1446040016891805362,103,1446040016888701915,robocape,5.40967737512,-7.37095839956,107.417921918,0.0,10.0,0.0,0.0,0.0,10.0,0.0,0.0,0.0,10.0,-0.0149137021044,0.0203731823391,0.00945422186978,1.0,0.0,0.0,0.0,1.0,0.0,0.0,0.0,1.0,0.01916015625,0.211959228516,10.0566870117,0.1,0.0,0.0,0.0,0.1,0.0,0.0,0.0,0.1
1446040016925763487,104,1446040016922329902,robocape,5.41134944374,-7.22681462698,106.300036403,0.0,10.0,0.0,0.0,0.0,10.0,0.0,0.0,0.0,10.0,-0.0149137021044,0.0205063403936,0.00838895743375,1.0,0.0,0.0,0.0,1.0,0.0,0.0,0.0,1.0,0.0179626464844,0.188009033203,10.0506994629,0.1,0.0,0.0,0.0,0.1,0.0,0.0,0.0,0.1
1446040016959025696,105,1446040016955539941,robocape,5.4138087261,-7.08443602011,105.204546473,0.0,10.0,0.0,0.0,0.0,10.0,0.0,0.0,0.0,10.0,-0.0130494893414,0.0206394984481,0.00812264132474,1.0,0.0,0.0,0.0,1.0,0.0,0.0,0.0,1.0,0.0143701171875,0.159268798828,10.0459094238,0.1,0.0,0.0,0.0,0.1,0.0,0.0,0.0,0.1
1446040016992652571,106,1446040016989401102,robocape,5.42241915287,-6.94349402285,104.130856237,0.0,10.0,0.0,0.0,0.0,10.0,0.0,0.0,0.0,10.0,-0.00838895743375,0.0209058145571,0.00812264132474,1.0,0.0,0.0,0.0,1.0,0.0,0.0,0.0,1.0,0.0335302734375,0.154478759766,10.0411193848,0.1,0.0,0.0,0.0,0.1,0.0,0.0,0.0,0.1
1446040017025546237,107,1446040017022069931,robocape,5.44067727182,-6.80433508202,103.077773988,0.0,10.0,0.0,0.0,0.0,10.0,0.0,0.0,0.0,10.0,-0.00199737081756,0.0209058145571,0.00745685105222,1.0,0.0,0.0,0.0,1.0,0.0,0.0,0.0,1.0,0.0263452148438,0.143701171875,10.0710571289,0.1,0.0,0.0,0.0,0.1,0.0,0.0,0.0,0.1
1446040017058722112,108,1446040017055423021,robocape,5.46609275887,-6.6656358687,102.045003713,0.0,10.0,0.0,0.0,0.0,10.0,0.0,0.0,0.0,10.0,0.00306263525359,0.0215716048296,0.0066579027252,1.0,0.0,0.0,0.0,1.0,0.0,0.0,0.0,1.0,0.0227526855469,0.149688720703,10.0339343262,0.1,0.0,0.0,0.0,0.1,0.0,0.0,0.0,0.1
1446040017092055529,109,1446040017088665008,robocape,5.49850087902,-6.52893165618,101.032837147,0.0,10.0,0.0,0.0,0.0,10.0,0.0,0.0,0.0,10.0,0.00812264132474,0.0214384467751,0.00705737688871,1.0,0.0,0.0,0.0,1.0,0.0,0.0,0.0,1.0,0.0263452148438,0.155676269531,10.0578845215,0.1,0.0,0.0,0.0,0.1,0.0,0.0,0.0,0.1
1446040017125554196,110,1446040017122045040,robocape,5.53253091599,-6.39291456414,100.040634992,0.0,10.0,0.0,0.0,0.0,10.0,0.0,0.0,0.0,10.0,0.0102531701968,0.0219710789932,0.0066579027252,1.0,0.0,0.0,0.0,1.0,0.0,0.0,0.0,1.0,0.0203576660156,0.155676269531,10.0171691895,0.1,0.0,0.0,0.0,0.1,0.0,0.0,0.0,0.1
1446040017158583029,111,1446040017155250072,robocape,5.56664878046,-6.25914850855,99.0683836547,0.0,10.0,0.0,0.0,0.0,10.0,0.0,0.0,0.0,10.0,0.0115847507418,0.0217047628841,0.00692421883421,1.0,0.0,0.0,0.0,1.0,0.0,0.0,0.0,1.0,0.0155676269531,0.183218994141,10.0483044434,0.1,0.0,0.0,0.0,0.1,0.0,0.0,0.0,0.1
1446040017191965238,112,1446040017188627004,robocape,5.59654096553,-6.12635609518,98.1153401059,0.0,10.0,0.0,0.0,0.0,10.0,0.0,0.0,0.0,10.0,0.0105194863058,0.0221042370477,0.00639158661619,1.0,0.0,0.0,0.0,1.0,0.0,0.0,0.0,1.0,0.00598754882813,0.186811523438,10.039921875,0.1,0.0,0.0,0.0,0.1,0.0,0.0,0.0,0.1
1446040017225725696,113,1446040017222234010,robocape,5.61950204411,-5.99613573067,97.1813487876,0.0,10.0,0.0,0.0,0.0,10.0,0.0,0.0,0.0,10.0,0.00798948327024,0.0217047628841,0.00625842856169,1.0,0.0,0.0,0.0,1.0,0.0,0.0,0.0,1.0,0.0167651367188,0.199984130859,10.0387243652,0.1,0.0,0.0,0.0,0.1,0.0,0.0,0.0,0.1
1446040017258693821,114,1446040017255431890,robocape,5.63434033077,-5.86831340236,96.2663563881,0.0,10.0,0.0,0.0,0.0,10.0,0.0,0.0,0.0,10.0,0.00479368996214,0.0214384467751,0.00652474467069,1.0,0.0,0.0,0.0,1.0,0.0,0.0,0.0,1.0,0.0167651367188,0.202379150391,10.0506994629,0.1,0.0,0.0,0.0,0.1,0.0,0.0,0.0,0.1
1446040017292120488,115,1446040017288811922,robocape,5.64278227629,-5.74186154872,95.3695754252,0.0,10.0,0.0,0.0,0.0,10.0,0.0,0.0,0.0,10.0,0.00239684498107,0.0217047628841,0.00639158661619,1.0,0.0,0.0,0.0,1.0,0.0,0.0,0.0,1.0,0.0215551757813,0.197589111328,10.0411193848,0.1,0.0,0.0,0.0,0.1,0.0,0.0,0.0,0.1
1446040017325790363,116,1446040017322249889,robocape,5.64642311046,-5.61959532861,94.4906599257,0.0,10.0,0.0,0.0,0.0,10.0,0.0,0.0,0.0,10.0,0.000798948327024,0.0205063403936,0.0067910607797,1.0,0.0,0.0,0.0,1.0,0.0,0.0,0.0,1.0,0.0239501953125,0.1916015625,10.0614770508,0.1,0.0,0.0,0.0,0.1,0.0,0.0,0.0,0.1
1446040017358474071,117,1446040017355210065,robocape,5.64561769119,-5.49822048885,93.6293610509,0.0,10.0,0.0,0.0,0.0,10.0,0.0,0.0,0.0,10.0,-0.00066579027252,0.0210389726116,0.00705737688871,1.0,0.0,0.0,0.0,1.0,0.0,0.0,0.0,1.0,0.0323327636719,0.178428955078,10.0518969727,0.1,0.0,0.0,0.0,0.1,0.0,0.0,0.0,0.1
1446040017392155279,118,1446040017388508081,robocape,5.64146150785,-5.37799445942,92.7852920283,0.0,10.0,0.0,0.0,0.0,10.0,0.0,0.0,0.0,10.0,-0.00159789665405,0.0214384467751,0.00745685105222,1.0,0.0,0.0,0.0,1.0,0.0,0.0,0.0,1.0,0.0179626464844,0.184416503906,10.0495019531,0.1,0.0,0.0,0.0,0.1,0.0,0.0,0.0,0.1
1446040017426347404,119,1446040017422317028,robocape,5.63389456463,-5.26190518064,91.9575103741,0.0,10.0,0.0,0.0,0.0,10.0,0.0,0.0,0.0,10.0,-0.00266316109008,0.0202400242846,0.00759000910673,1.0,0.0,0.0,0.0,1.0,0.0,0.0,0.0,1.0,0.0263452148438,0.165256347656,10.0315393066,0.1,0.0,0.0,0.0,0.1,0.0,0.0,0.0,0.1
1446040017458560529,120,1446040017455218076,robocape,5.62422574368,-5.14740912926,91.1459135317,0.0,10.0,0.0,0.0,0.0,10.0,0.0,0.0,0.0,10.0,-0.00306263525359,0.0203731823391,0.00785632521573,1.0,0.0,0.0,0.0,1.0,0.0,0.0,0.0,1.0,0.0263452148438,0.158071289063,10.0423168945,0.1,0.0,0.0,0.0,0.1,0.0,0.0,0.0,0.1
1446040017492099404,121,1446040017488723039,robocape,5.61726097811,-5.03421959305,90.350280002,0.0,10.0,0.0,0.0,0.0,10.0,0.0,0.0,0.0,10.0,-0.000932106381528,0.0206394984481,0.00852211548825,1.0,0.0,0.0,0.0,1.0,0.0,0.0,0.0,1.0,0.028740234375,0.146096191406,10.0662670898,0.1,0.0,0.0,0.0,0.1,0.0,0.0,0.0,0.1
1446040017525434154,122,1446040017521975994,robocape,5.61772325819,-4.92226702501,89.5678735396,0.0,10.0,0.0,0.0,0.0,10.0,0.0,0.0,0.0,10.0,0.0034621094171,0.0207726565026,0.00692421883421,1.0,0.0,0.0,0.0,1.0,0.0,0.0,0.0,1.0,0.0323327636719,0.13412109375,10.0506994629,0.1,0.0,0.0,0.0,0.1,0.0,0.0,0.0,0.1
1446040017558544821,123,1446040017555250883,robocape,5.62411647829,-4.80959460738,88.7997232802,0.0,10.0,0.0,0.0,0.0,10.0,0.0,0.0,0.0,10.0,0.00719053494321,0.0219710789932,0.00652474467069,1.0,0.0,0.0,0.0,1.0,0.0,0.0,0.0,1.0,0.01916015625,0.156873779297,10.0423168945,0.1,0.0,0.0,0.0,0.1,0.0,0.0,0.0,0.1
1446040017591918654,124,1446040017588608026,robocape,5.63141528302,-4.69923315887,88.0455302652,0.0,10.0,0.0,0.0,0.0,10.0,0.0,0.0,0.0,10.0,0.00825579937925,0.0215716048296,0.00625842856169,1.0,0.0,0.0,0.0,1.0,0.0,0.0,0.0,1.0,0.0047900390625,0.164058837891,10.0483044434,0.1,0.0,0.0,0.0,0.1,0.0,0.0,0.0,0.1
1446040017625512738,125,1446040017622052907,robocape,5.63557569339,-4.59020488365,87.3054685315,0.0,10.0,0.0,0.0,0.0,10.0,0.0,0.0,0.0,10.0,0.00719053494321,0.0217047628841,0.00625842856169,1.0,0.0,0.0,0.0,1.0,0.0,0.0,0.0,1.0,0.0179626464844,0.162861328125,10.0387243652,0.1,0.0,0.0,0.0,0.1,0.0,0.0,0.0,0.1
1446040017658531071,126,1446040017655237913,robocape,5.63864518756,-4.4822547139,86.5793846004,0.0,10.0,0.0,0.0,0.0,10.0,0.0,0.0,0.0,10.0,0.00719053494321,0.0219710789932,0.00652474467069,1.0,0.0,0.0,0.0,1.0,0.0,0.0,0.0,1.0,0.0119750976563,0.146096191406,10.0566870117,0.1,0.0,0.0,0.0,0.1,0.0,0.0,0.0,0.1
1446040017691899154,127,1446040017688677072,robocape,5.63967159837,-4.37689407124,85.8669675123,0.0,10.0,0.0,0.0,0.0,10.0,0.0,0.0,0.0,10.0,0.0066579027252,0.0214384467751,0.00692421883421,1.0,0.0,0.0,0.0,1.0,0.0,0.0,0.0,1.0,0.0275427246094,0.1916015625,10.0495019531,0.1,0.0,0.0,0.0,0.1,0.0,0.0,0.0,0.1
1446040017725016196,128,1446040017721945047,robocape,5.63419601349,-4.27362385012,85.1679820928,0.0,10.0,0.0,0.0,0.0,10.0,0.0,0.0,0.0,10.0,0.00372842552611,0.0211721306661,0.00719053494321,1.0,0.0,0.0,0.0,1.0,0.0,0.0,0.0,1.0,0.0347277832031,0.188009033203,10.0279467773,0.1,0.0,0.0,0.0,0.1,0.0,0.0,0.0,0.1
1446040017758498779,129,1446040017755280971,robocape,5.62587807687,-4.17162663422,84.4817477735,0.0,10.0,0.0,0.0,0.0,10.0,0.0,0.0,0.0,10.0,0.00266316109008,0.0213052887206,0.00719053494321,1.0,0.0,0.0,0.0,1.0,0.0,0.0,0.0,1.0,0.0119750976563,0.165256347656,10.0459094238,0.1,0.0,0.0,0.0,0.1,0.0,0.0,0.0,0.1
1446040017791932696,130,1446040017788722038,robocape,5.61856556326,-4.07085055933,83.8077934786,0.0,10.0,0.0,0.0,0.0,10.0,0.0,0.0,0.0,10.0,0.00359526747161,0.0214384467751,0.00719053494321,1.0,0.0,0.0,0.0,1.0,0.0,0.0,0.0,1.0,0.0119750976563,0.154478759766,10.0459094238,0.1,0.0,0.0,0.0,0.1,0.0,0.0,0.0,0.1
1446040017825187946,131,1446040017822140932,robocape,5.61565925247,-3.97014777398,83.145081241,0.0,10.0,0.0,0.0,0.0,10.0,0.0,0.0,0.0,10.0,0.00625842856169,0.0221042370477,0.00652474467069,1.0,0.0,0.0,0.0,1.0,0.0,0.0,0.0,1.0,0.00718505859375,0.162861328125,10.0530944824,0.1,0.0,0.0,0.0,0.1,0.0,0.0,0.0,0.1
1446040017858529488,132,1446040017855294942,robocape,5.61175952163,-3.87264366854,82.4942279811,0.0,10.0,0.0,0.0,0.0,10.0,0.0,0.0,0.0,10.0,0.00612527050718,0.0211721306661,0.0067910607797,1.0,0.0,0.0,0.0,1.0,0.0,0.0,0.0,1.0,0.0143701171875,0.166453857422,10.0375268555,0.1,0.0,0.0,0.0,0.1,0.0,0.0,0.0,0.1
1446040017892261280,133,1446040017888982057,robocape,5.60699259546,-3.77621263793,81.854419022,0.0,10.0,0.0,0.0,0.0,10.0,0.0,0.0,0.0,10.0,0.00599211245268,0.0213052887206,0.00639158661619,1.0,0.0,0.0,0.0,1.0,0.0,0.0,0.0,1.0,0.01916015625,0.170046386719,10.0315393066,0.1,0.0,0.0,0.0,0.1,0.0,0.0,0.0,0.1
1446040017924967821,134,1446040017921911001,robocape,5.60074044697,-3.68095834432,81.2265433174,0.0,10.0,0.0,0.0,0.0,10.0,0.0,0.0,0.0,10.0,0.00559263828917,0.0214384467751,0.00705737688871,1.0,0.0,0.0,0.0,1.0,0.0,0.0,0.0,1.0,0.0227526855469,0.161663818359,10.0614770508,0.1,0.0,0.0,0.0,0.1,0.0,0.0,0.0,0.1
1446040017958406446,135,1446040017955296039,robocape,5.59849603058,-3.58643795331,80.6089884774,0.0,10.0,0.0,0.0,0.0,10.0,0.0,0.0,0.0,10.0,0.00798948327024,0.0217047628841,0.0066579027252,1.0,0.0,0.0,0.0,1.0,0.0,0.0,0.0,1.0,0.0263452148438,0.149688720703,10.0459094238,0.1,0.0,0.0,0.0,0.1,0.0,0.0,0.0,0.1
1446040017992061238,136,1446040017988765001,robocape,5.59894681762,-3.49291520514,80.0019570968,0.0,10.0,0.0,0.0,0.0,10.0,0.0,0.0,0.0,10.0,0.00972053797879,0.0218379209386,0.0066579027252,1.0,0.0,0.0,0.0,1.0,0.0,0.0,0.0,1.0,0.0323327636719,0.152083740234,10.0291442871,0.1,0.0,0.0,0.0,0.1,0.0,0.0,0.0,0.1
1446040018025075030,137,1446040018021985054,robocape,5.60441403418,-3.39877451685,79.4048093988,0.0,10.0,0.0,0.0,0.0,10.0,0.0,0.0,0.0,10.0,0.0126500151779,0.0227700273202,0.00625842856169,1.0,0.0,0.0,0.0,1.0,0.0,0.0,0.0,1.0,0.0227526855469,0.154478759766,10.0339343262,0.1,0.0,0.0,0.0,0.1,0.0,0.0,0.0,0.1
1446040018058400280,138,1446040018055272102,robocape,5.61033407796,-3.3065612832,78.8175234127,0.0,10.0,0.0,0.0,0.0,10.0,0.0,0.0,0.0,10.0,0.0131826473959,0.0223705531567,0.00612527050718,1.0,0.0,0.0,0.0,1.0,0.0,0.0,0.0,1.0,0.028740234375,0.173638916016,10.0542919922,0.1,0.0,0.0,0.0,0.1,0.0,0.0,0.0,0.1
1446040018092020530,139,1446040018088633060,robocape,5.61436210284,-3.21661063225,78.2408152375,0.0,10.0,0.0,0.0,0.0,10.0,0.0,0.0,0.0,10.0,0.0125168571234,0.0218379209386,0.0067910607797,1.0,0.0,0.0,0.0,1.0,0.0,0.0,0.0,1.0,0.0131726074219,0.176033935547,10.0542919922,0.1,0.0,0.0,0.0,0.1,0.0,0.0,0.0,0.1
1446040018125256613,140,1446040018121896982,robocape,5.61390123457,-3.1282866899,77.6733695449,0.0,10.0,0.0,0.0,0.0,10.0,0.0,0.0,0.0,10.0,0.0103863282513,0.0215716048296,0.00639158661619,1.0,0.0,0.0,0.0,1.0,0.0,0.0,0.0,1.0,0.0275427246094,0.1916015625,10.0459094238,0.1,0.0,0.0,0.0,0.1,0.0,0.0,0.0,0.1
1446040018158989780,141,1446040018155847072,robocape,5.60817239809,-3.04242519414,77.1156706704,0.0,10.0,0.0,0.0,0.0,10.0,0.0,0.0,0.0,10.0,0.00785632521573,0.0209058145571,0.0066579027252,1.0,0.0,0.0,0.0,1.0,0.0,0.0,0.0,1.0,0.0239501953125,0.199984130859,10.0698596191,0.1,0.0,0.0,0.0,0.1,0.0,0.0,0.0,0.1
1446040018192099696,142,1446040018188925027,robocape,5.59774344494,-2.95723417178,76.5674787274,0.0,10.0,0.0,0.0,0.0,10.0,0.0,0.0,0.0,10.0,0.00559263828917,0.0211721306661,0.0067910607797,1.0,0.0,0.0,0.0,1.0,0.0,0.0,0.0,1.0,0.0167651367188,0.192799072266,10.0339343262,0.1,0.0,0.0,0.0,0.1,0.0,0.0,0.0,0.1
1446040018227644405,143,1446040018224371910,robocape,5.57813162523,-2.87375155358,76.0286232167,0.0,10.0,0.0,0.0,0.0,10.0,0.0,0.0,0.0,10.0,0.000932106381528,0.0209058145571,0.00692421883421,1.0,0.0,0.0,0.0,1.0,0.0,0.0,0.0,1.0,0.0143701171875,0.198786621094,10.039921875,0.1,0.0,0.0,0.0,0.1,0.0,0.0,0.0,0.1
1446040018258371988,144,1446040018255363941,robocape,5.55466378869,-2.79124422092,75.4992469995,0.0,10.0,0.0,0.0,0.0,10.0,0.0,0.0,0.0,10.0,-0.000932106381528,0.0210389726116,0.00745685105222,1.0,0.0,0.0,0.0,1.0,0.0,0.0,0.0,1.0,-0.00239501953125,0.1916015625,10.0339343262,0.1,0.0,0.0,0.0,0.1,0.0,0.0,0.0,0.1
1446040018292026155,145,1446040018288825988,robocape,5.53019806952,-2.71015198672,74.9786872983,0.0,10.0,0.0,0.0,0.0,10.0,0.0,0.0,0.0,10.0,-0.00133158054504,0.0209058145571,0.00772316716123,1.0,0.0,0.0,0.0,1.0,0.0,0.0,0.0,1.0,0.0215551757813,0.159268798828,10.0387243652,0.1,0.0,0.0,0.0,0.1,0.0,0.0,0.0,0.1
1446040018325184571,146,1446040018322027921,robocape,5.50776224201,-2.63071537298,74.4669434637,0.0,10.0,0.0,0.0,0.0,10.0,0.0,0.0,0.0,10.0,-0.000133158054504,0.0206394984481,0.00825579937925,1.0,0.0,0.0,0.0,1.0,0.0,0.0,0.0,1.0,0.0179626464844,0.137713623047,10.055489502,0.1,0.0,0.0,0.0,0.1,0.0,0.0,0.0,0.1
1446040018358339363,147,1446040018355307102,robocape,5.49037285022,-2.55134493424,73.9612920745,0.0,10.0,0.0,0.0,0.0,10.0,0.0,0.0,0.0,10.0,0.00253000303558,0.0210389726116,0.0066579027252,1.0,0.0,0.0,0.0,1.0,0.0,0.0,0.0,1.0,0.0119750976563,0.126936035156,10.0387243652,0.1,0.0,0.0,0.0,0.1,0.0,0.0,0.0,0.1
1446040018391754446,148,1446040018388606071,robocape,5.47882512198,-2.47247059907,73.4635962751,0.0,10.0,0.0,0.0,0.0,10.0,0.0,0.0,0.0,10.0,0.00572579634367,0.0213052887206,0.0067910607797,1.0,0.0,0.0,0.0,1.0,0.0,0.0,0.0,1.0,0.0227526855469,0.130528564453,10.0447119141,0.1,0.0,0.0,0.0,0.1,0.0,0.0,0.0,0.1
1446040018425432780,149,1446040018422175884,robocape,5.47491771399,-2.39321274114,72.9730458835,0.0,10.0,0.0,0.0,0.0,10.0,0.0,0.0,0.0,10.0,0.00985369603329,0.0219710789932,0.00639158661619,1.0,0.0,0.0,0.0,1.0,0.0,0.0,0.0,1.0,0.01916015625,0.15328125,10.0231567383,0.1,0.0,0.0,0.0,0.1,0.0,0.0,0.0,0.1
1446040018458301905,150,1446040018455249071,robocape,5.47305658936,-2.314839736,72.4896858385,0.0,10.0,0.0,0.0,0.0,10.0,0.0,0.0,0.0,10.0,0.0110521185238,0.0219710789932,0.00612527050718,1.0,0.0,0.0,0.0,1.0,0.0,0.0,0.0,1.0,0.0251477050781,0.165256347656,10.0435144043,0.1,0.0,0.0,0.0,0.1,0.0,0.0,0.0,0.1
1446040018492053988,151,1446040018488838911,robocape,5.47139659657,-2.23616355189,72.0143296603,0.0,10.0,0.0,0.0,0.0,10.0,0.0,0.0,0.0,10.0,0.0113184346328,0.0226368692657,0.00652474467069,1.0,0.0,0.0,0.0,1.0,0.0,0.0,0.0,1.0,0.0119750976563,0.171243896484,10.0219592285,0.1,0.0,0.0,0.0,0.1,0.0,0.0,0.0,0.1
1446040018525174655,152,1446040018521969079,robocape,5.46710595026,-2.15974701826,71.5446647375,0.0,10.0,0.0,0.0,0.0,10.0,0.0,0.0,0.0,10.0,0.0099868540878,0.0218379209386,0.00532632218016,1.0,0.0,0.0,0.0,1.0,0.0,0.0,0.0,1.0,0.028740234375,0.183218994141,10.0363293457,0.1,0.0,0.0,0.0,0.1,0.0,0.0,0.0,0.1
1446040018558360030,153,1446040018555247068,robocape,5.45901497885,-2.08557606779,71.0829065916,0.0,10.0,0.0,0.0,0.0,10.0,0.0,0.0,0.0,10.0,0.00812264132474,0.0211721306661,0.00599211245268,1.0,0.0,0.0,0.0,1.0,0.0,0.0,0.0,1.0,0.0203576660156,0.182021484375,10.0423168945,0.1,0.0,0.0,0.0,0.1,0.0,0.0,0.0,0.1
1446040018591779030,154,1446040018588634967,robocape,5.44589450579,-2.01238636272,70.6290359281,0.0,10.0,0.0,0.0,0.0,10.0,0.0,0.0,0.0,10.0,0.00559263828917,0.0211721306661,0.0066579027252,1.0,0.0,0.0,0.0,1.0,0.0,0.0,0.0,1.0,0.0143701171875,0.185614013672,10.0279467773,0.1,0.0,0.0,0.0,0.1,0.0,0.0,0.0,0.1
1446040018625583363,155,1446040018622138977,robocape,5.4283786837,-1.94107262477,70.1817783052,0.0,10.0,0.0,0.0,0.0,10.0,0.0,0.0,0.0,10.0,0.0033289513626,0.0206394984481,0.00652474467069,1.0,0.0,0.0,0.0,1.0,0.0,0.0,0.0,1.0,0.0263452148438,0.171243896484,10.0638720703,0.1,0.0,0.0,0.0,0.1,0.0,0.0,0.0,0.1
1446040018658353322,156,1446040018655262947,robocape,5.41096733279,-1.87044799128,69.7419803887,0.0,10.0,0.0,0.0,0.0,10.0,0.0,0.0,0.0,10.0,0.0034621094171,0.0207726565026,0.00719053494321,1.0,0.0,0.0,0.0,1.0,0.0,0.0,0.0,1.0,0.0047900390625,0.164058837891,10.0435144043,0.1,0.0,0.0,0.0,0.1,0.0,0.0,0.0,0.1
1446040018691839530,157,1446040018688740015,robocape,5.39501382401,-1.79935218508,69.3083574291,0.0,10.0,0.0,0.0,0.0,10.0,0.0,0.0,0.0,10.0,0.00426105774413,0.0214384467751,0.00692421883421,1.0,0.0,0.0,0.0,1.0,0.0,0.0,0.0,1.0,0.0227526855469,0.164058837891,10.0483044434,0.1,0.0,0.0,0.0,0.1,0.0,0.0,0.0,0.1
1446040018725282863,158,1446040018722141027,robocape,5.38150259322,-1.72805134034,68.881061361,0.0,10.0,0.0,0.0,0.0,10.0,0.0,0.0,0.0,10.0,0.00559263828917,0.0219710789932,0.00692421883421,1.0,0.0,0.0,0.0,1.0,0.0,0.0,0.0,1.0,0.0167651367188,0.164058837891,10.0255517578,0.1,0.0,0.0,0.0,0.1,0.0,0.0,0.0,0.1
1446040018758435155,159,1446040018755233049,robocape,5.37046039907,-1.65799970624,68.4594816409,0.0,10.0,0.0,0.0,0.0,10.0,0.0,0.0,0.0,10.0,0.00692421883421,0.0217047628841,0.0066579027252,1.0,0.0,0.0,0.0,1.0,0.0,0.0,0.0,1.0,0.0155676269531,0.166453857422,10.0459094238,0.1,0.0,0.0,0.0,0.1,0.0,0.0,0.0,0.1
1446040018791717822,160,1446040018788705110,robocape,5.35884037744,-1.59073375398,68.043781306,0.0,10.0,0.0,0.0,0.0,10.0,0.0,0.0,0.0,10.0,0.0066579027252,0.0206394984481,0.0066579027252,1.0,0.0,0.0,0.0,1.0,0.0,0.0,0.0,1.0,0.0251477050781,0.170046386719,10.0638720703,0.1,0.0,0.0,0.0,0.1,0.0,0.0,0.0,0.1
1446040018825248322,161,1446040018822077035,robocape,5.3465898568,-1.52227032981,67.6348699928,0.0,10.0,0.0,0.0,0.0,10.0,0.0,0.0,0.0,10.0,0.00639158661619,0.0217047628841,0.00719053494321,1.0,0.0,0.0,0.0,1.0,0.0,0.0,0.0,1.0,0.009580078125,0.170046386719,10.039921875,0.1,0.0,0.0,0.0,0.1,0.0,0.0,0.0,0.1
1446040018858442280,162,1446040018855179071,robocape,5.33432557816,-1.45497499635,67.2309930507,0.0,10.0,0.0,0.0,0.0,10.0,0.0,0.0,0.0,10.0,0.00639158661619,0.0214384467751,0.0066579027252,1.0,0.0,0.0,0.0,1.0,0.0,0.0,0.0,1.0,0.00598754882813,0.158071289063,10.0255517578,0.1,0.0,0.0,0.0,0.1,0.0,0.0,0.0,0.1
1446040018891726363,163,1446040018888659000,robocape,5.32074817568,-1.3886581457,66.832782856,0.0,10.0,0.0,0.0,0.0,10.0,0.0,0.0,0.0,10.0,0.00572579634367,0.0213052887206,0.0066579027252,1.0,0.0,0.0,0.0,1.0,0.0,0.0,0.0,1.0,0.0107775878906,0.185614013672,10.0351318359,0.1,0.0,0.0,0.0,0.1,0.0,0.0,0.0,0.1
1446040018925202988,164,1446040018922074079,robocape,5.30613473823,-1.32303518728,66.4399572464,0.0,10.0,0.0,0.0,0.0,10.0,0.0,0.0,0.0,10.0,0.00519316412565,0.0213052887206,0.00652474467069,1.0,0.0,0.0,0.0,1.0,0.0,0.0,0.0,1.0,0.0179626464844,0.186811523438,10.0590820312,0.1,0.0,0.0,0.0,0.1,0.0,0.0,0.0,0.1
1446040018958384613,165,1446040018955131053,robocape,5.29270282213,-1.25871730276,66.0535374645,0.0,10.0,0.0,0.0,0.0,10.0,0.0,0.0,0.0,10.0,0.00585895439817,0.0210389726116,0.00732369299772,1.0,0.0,0.0,0.0,1.0,0.0,0.0,0.0,1.0,0.0275427246094,0.179626464844,10.0650695801,0.1,0.0,0.0,0.0,0.1,0.0,0.0,0.0,0.1
1446040018992134947,166,1446040018988857030,robocape,5.27754912868,-1.19444654584,65.6712573975,0.0,10.0,0.0,0.0,0.0,10.0,0.0,0.0,0.0,10.0,0.00492684801665,0.0213052887206,0.00639158661619,1.0,0.0,0.0,0.0,1.0,0.0,0.0,0.0,1.0,0.0263452148438,0.168848876953,10.0411193848,0.1,0.0,0.0,0.0,0.1,0.0,0.0,0.0,0.1
1446040019025516905,167,1446040019022303104,robocape,5.26261455115,-1.13140284062,65.294659072,0.0,10.0,0.0,0.0,0.0,10.0,0.0,0.0,0.0,10.0,0.00506000607115,0.0210389726116,0.0067910607797,1.0,0.0,0.0,0.0,1.0,0.0,0.0,0.0,1.0,0.0263452148438,0.171243896484,10.0351318359,0.1,0.0,0.0,0.0,0.1,0.0,0.0,0.0,0.1
1446040019058463030,168,1446040019055150985,robocape,5.24717315392,-1.06875945628,64.9231764794,0.0,10.0,0.0,0.0,0.0,10.0,0.0,0.0,0.0,10.0,0.00479368996214,0.0211721306661,0.0067910607797,1.0,0.0,0.0,0.0,1.0,0.0,0.0,0.0,1.0,0.0143701171875,0.167651367188,10.0411193848,0.1,0.0,0.0,0.0,0.1,0.0,0.0,0.0,0.1
1446040019091771030,169,1446040019088645935,robocape,5.23198141747,-1.00652067957,64.5568658192,0.0,10.0,0.0,0.0,0.0,10.0,0.0,0.0,0.0,10.0,0.00492684801665,0.0213052887206,0.00692421883421,1.0,0.0,0.0,0.0,1.0,0.0,0.0,0.0,1.0,0.0167651367188,0.168848876953,10.0650695801,0.1,0.0,0.0,0.0,0.1,0.0,0.0,0.0,0.1
1446040019125215780,170,1446040019122056007,robocape,5.21754590113,-0.944167046742,64.1956537902,0.0,10.0,0.0,0.0,0.0,10.0,0.0,0.0,0.0,10.0,0.00532632218016,0.0217047628841,0.00705737688871,1.0,0.0,0.0,0.0,1.0,0.0,0.0,0.0,1.0,0.0227526855469,0.179626464844,10.0650695801,0.1,0.0,0.0,0.0,0.1,0.0,0.0,0.0,0.1
1446040019158580947,171,1446040019155258893,robocape,5.20462942134,-0.882691950649,63.8393397279,0.0,10.0,0.0,0.0,0.0,10.0,0.0,0.0,0.0,10.0,0.00612527050718,0.0215716048296,0.00719053494321,1.0,0.0,0.0,0.0,1.0,0.0,0.0,0.0,1.0,0.0239501953125,0.189206542969,10.0542919922,0.1,0.0,0.0,0.0,0.1,0.0,0.0,0.0,0.1
1446040019191889905,172,1446040019188801050,robocape,5.19119980151,-0.821852657389,63.4880740624,0.0,10.0,0.0,0.0,0.0,10.0,0.0,0.0,0.0,10.0,0.00585895439817,0.0215716048296,0.00745685105222,1.0,0.0,0.0,0.0,1.0,0.0,0.0,0.0,1.0,0.0119750976563,0.154478759766,10.0435144043,0.1,0.0,0.0,0.0,0.1,0.0,0.0,0.0,0.1
1446040019225416447,173,1446040019222310066,robocape,5.17832448575,-0.761519849648,63.1406434576,0.0,10.0,0.0,0.0,0.0,10.0,0.0,0.0,0.0,10.0,0.00612527050718,0.0215716048296,0.00692421883421,1.0,0.0,0.0,0.0,1.0,0.0,0.0,0.0,1.0,0.028740234375,0.160466308594,10.0614770508,0.1,0.0,0.0,0.0,0.1,0.0,0.0,0.0,0.1
1446040019258691989,174,1446040019255422115,robocape,5.16475692245,-0.701899933986,62.7966006335,0.0,10.0,0.0,0.0,0.0,10.0,0.0,0.0,0.0,10.0,0.00572579634367,0.0214384467751,0.00612527050718,1.0,0.0,0.0,0.0,1.0,0.0,0.0,0.0,1.0,0.0179626464844,0.177231445313,10.0698596191,0.1,0.0,0.0,0.0,0.1,0.0,0.0,0.0,0.1
1446040019291710572,175,1446040019288688898,robocape,5.15118550653,-0.641638249381,62.457621934,0.0,10.0,0.0,0.0,0.0,10.0,0.0,0.0,0.0,10.0,0.00572579634367,0.0221042370477,0.00652474467069,1.0,0.0,0.0,0.0,1.0,0.0,0.0,0.0,1.0,0.0251477050781,0.176033935547,10.0423168945,0.1,0.0,0.0,0.0,0.1,0.0,0.0,0.0,0.1
1446040019325260489,176,1446040019322041034,robocape,5.13637207426,-0.58246106593,62.1231300683,0.0,10.0,0.0,0.0,0.0,10.0,0.0,0.0,0.0,10.0,0.00506000607115,0.0218379209386,0.0066579027252,1.0,0.0,0.0,0.0,1.0,0.0,0.0,0.0,1.0,0.0239501953125,0.168848876953,10.0339343262,0.1,0.0,0.0,0.0,0.1,0.0,0.0,0.0,0.1
1446040019358512739,177,1446040019355289936,robocape,5.11931428776,-0.525137336158,61.7931837479,0.0,10.0,0.0,0.0,0.0,10.0,0.0,0.0,0.0,10.0,0.00386158358061,0.0211721306661,0.00692421883421,1.0,0.0,0.0,0.0,1.0,0.0,0.0,0.0,1.0,0.0263452148438,0.17244140625,10.0339343262,0.1,0.0,0.0,0.0,0.1,0.0,0.0,0.0,0.1
1446040019392179780,178,1446040019388597965,robocape,5.10280968739,-0.467860158371,61.4675964358,0.0,10.0,0.0,0.0,0.0,10.0,0.0,0.0,0.0,10.0,0.00412789968962,0.0214384467751,0.00705737688871,1.0,0.0,0.0,0.0,1.0,0.0,0.0,0.0,1.0,0.0131726074219,0.173638916016,10.0423168945,0.1,0.0,0.0,0.0,0.1,0.0,0.0,0.0,0.1
1446040019425100322,179,1446040019421874046,robocape,5.08458609526,-0.411132698279,61.1462914353,0.0,10.0,0.0,0.0,0.0,10.0,0.0,0.0,0.0,10.0,0.0031957933081,0.0214384467751,0.00719053494321,1.0,0.0,0.0,0.0,1.0,0.0,0.0,0.0,1.0,0.0227526855469,0.170046386719,10.0662670898,0.1,0.0,0.0,0.0,0.1,0.0,0.0,0.0,0.1
1446040019458384489,180,1446040019455183029,robocape,5.06744354105,-0.355423211062,60.828905582,0.0,10.0,0.0,0.0,0.0,10.0,0.0,0.0,0.0,10.0,0.00372842552611,0.0211721306661,0.00719053494321,1.0,0.0,0.0,0.0,1.0,0.0,0.0,0.0,1.0,0.028740234375,0.179626464844,10.0506994629,0.1,0.0,0.0,0.0,0.1,0.0,0.0,0.0,0.1
1446040019492561030,181,1446040019489485979,robocape,5.05112611679,-0.300212787287,60.5154084826,0.0,10.0,0.0,0.0,0.0,10.0,0.0,0.0,0.0,10.0,0.00412789968962,0.0211721306661,0.00719053494321,1.0,0.0,0.0,0.0,1.0,0.0,0.0,0.0,1.0,0.0155676269531,0.174836425781,10.0315393066,0.1,0.0,0.0,0.0,0.1,0.0,0.0,0.0,0.1
1446040019525300739,182,1446040019521883010,robocape,5.03563936482,-0.244189970716,60.205448114,0.0,10.0,0.0,0.0,0.0,10.0,0.0,0.0,0.0,10.0,0.00452737385313,0.0218379209386,0.00692421883421,1.0,0.0,0.0,0.0,1.0,0.0,0.0,0.0,1.0,0.0167651367188,0.158071289063,10.0315393066,0.1,0.0,0.0,0.0,0.1,0.0,0.0,0.0,0.1
1446040019558427864,183,1446040019555165052,robocape,5.02148734729,-0.189888996952,59.8989351856,0.0,10.0,0.0,0.0,0.0,10.0,0.0,0.0,0.0,10.0,0.00519316412565,0.0211721306661,0.0067910607797,1.0,0.0,0.0,0.0,1.0,0.0,0.0,0.0,1.0,0.0179626464844,0.161663818359,10.0495019531,0.1,0.0,0.0,0.0,0.1,0.0,0.0,0.0,0.1
1446040019591855197,184,1446040019588728904,robocape,5.0073636887,-0.134889087561,59.5971586227,0.0,10.0,0.0,0.0,0.0,10.0,0.0,0.0,0.0,10.0,0.00519316412565,0.0218379209386,0.00745685105222,1.0,0.0,0.0,0.0,1.0,0.0,0.0,0.0,1.0,0.00598754882813,0.170046386719,10.0375268555,0.1,0.0,0.0,0.0,0.1,0.0,0.0,0.0,0.1
1446040019625202864,185,1446040019621920108,robocape,4.99256638597,-0.082818340026,59.2982432496,0.0,10.0,0.0,0.0,0.0,10.0,0.0,0.0,0.0,10.0,0.00479368996214,0.0205063403936,0.00705737688871,1.0,0.0,0.0,0.0,1.0,0.0,0.0,0.0,1.0,0.0203576660156,0.161663818359,10.0435144043,0.1,0.0,0.0,0.0,0.1,0.0,0.0,0.0,0.1
1446040019658460447,186,1446040019655240058,robocape,4.97684048713,-0.0301274186209,59.0024043167,0.0,10.0,0.0,0.0,0.0,10.0,0.0,0.0,0.0,10.0,0.00426105774413,0.0210389726116,0.0066579027252,1.0,0.0,0.0,0.0,1.0,0.0,0.0,0.0,1.0,0.0179626464844,0.177231445313,10.060279541,0.1,0.0,0.0,0.0,0.1,0.0,0.0,0.0,0.1
1446040019691587447,187,1446040019688467025,robocape,4.96091617375,0.0225478522811,58.7108624545,0.0,10.0,0.0,0.0,0.0,10.0,0.0,0.0,0.0,10.0,0.00412789968962,0.0213052887206,0.00719053494321,1.0,0.0,0.0,0.0,1.0,0.0,0.0,0.0,1.0,0.01916015625,0.173638916016,10.0483044434,0.1,0.0,0.0,0.0,0.1,0.0,0.0,0.0,0.1
1446040019725152905,188,1446040019721895933,robocape,4.94305273639,0.0758284521343,58.4224673938,0.0,10.0,0.0,0.0,0.0,10.0,0.0,0.0,0.0,10.0,0.00306263525359,0.0218379209386,0.00692421883421,1.0,0.0,0.0,0.0,1.0,0.0,0.0,0.0,1.0,0.0203576660156,0.174836425781,10.0447119141,0.1,0.0,0.0,0.0,0.1,0.0,0.0,0.0,0.1
1446040019758302114,189,1446040019755208969,robocape,4.92526134019,0.127585797353,58.1381201509,0.0,10.0,0.0,0.0,0.0,10.0,0.0,0.0,0.0,10.0,0.00306263525359,0.0213052887206,0.00745685105222,1.0,0.0,0.0,0.0,1.0,0.0,0.0,0.0,1.0,0.0251477050781,0.165256347656,10.0339343262,0.1,0.0,0.0,0.0,0.1,0.0,0.0,0.0,0.1
1446040019795999905,190,1446040019792676925,robocape,4.90833109077,0.180009003653,57.8563529705,0.0,10.0,0.0,0.0,0.0,10.0,0.0,0.0,0.0,10.0,0.0034621094171,0.0218379209386,0.00692421883421,1.0,0.0,0.0,0.0,1.0,0.0,0.0,0.0,1.0,0.0107775878906,0.168848876953,10.0495019531,0.1,0.0,0.0,0.0,0.1,0.0,0.0,0.0,0.1
1446040019825379530,191,1446040019822153091,robocape,4.89172705547,0.230675774081,57.5784947258,0.0,10.0,0.0,0.0,0.0,10.0,0.0,0.0,0.0,10.0,0.00359526747161,0.0211721306661,0.00745685105222,1.0,0.0,0.0,0.0,1.0,0.0,0.0,0.0,1.0,0.0251477050781,0.170046386719,10.0387243652,0.1,0.0,0.0,0.0,0.1,0.0,0.0,0.0,0.1
1446040019858399114,192,1446040019855362892,robocape,4.8744606263,0.280723184729,57.303414017,0.0,10.0,0.0,0.0,0.0,10.0,0.0,0.0,0.0,10.0,0.0031957933081,0.0210389726116,0.00719053494321,1.0,0.0,0.0,0.0,1.0,0.0,0.0,0.0,1.0,0.01916015625,0.143701171875,10.0219592285,0.1,0.0,0.0,0.0,0.1,0.0,0.0,0.0,0.1
1446040019891691030,193,1446040019888648986,robocape,4.85729619892,0.330684440126,57.0308864026,0.0,10.0,0.0,0.0,0.0,10.0,0.0,0.0,0.0,10.0,0.0031957933081,0.0211721306661,0.0067910607797,1.0,0.0,0.0,0.0,1.0,0.0,0.0,0.0,1.0,0.0263452148438,0.154478759766,10.0662670898,0.1,0.0,0.0,0.0,0.1,0.0,0.0,0.0,0.1
1446040019925455072,194,1446040019922122001,robocape,4.8422572674,0.379814500907,56.7607696851,0.0,10.0,0.0,0.0,0.0,10.0,0.0,0.0,0.0,10.0,0.00426105774413,0.0209058145571,0.00639158661619,1.0,0.0,0.0,0.0,1.0,0.0,0.0,0.0,1.0,0.00838256835938,0.162861328125,10.0459094238,0.1,0.0,0.0,0.0,0.1,0.0,0.0,0.0,0.1
1446040019958508947,195,1446040019955425024,robocape,4.82729092682,0.428742603127,56.49447203,0.0,10.0,0.0,0.0,0.0,10.0,0.0,0.0,0.0,10.0,0.00426105774413,0.0210389726116,0.00692421883421,1.0,0.0,0.0,0.0,1.0,0.0,0.0,0.0,1.0,0.00359252929688,0.162861328125,10.0135766602,0.1,0.0,0.0,0.0,0.1,0.0,0.0,0.0,0.1
1446040019991574531,196,1446040019988521099,robocape,4.81215679635,0.477551960946,56.2311555114,0.0,10.0,0.0,0.0,0.0,10.0,0.0,0.0,0.0,10.0,0.00412789968962,0.0211721306661,0.00692421883421,1.0,0.0,0.0,0.0,1.0,0.0,0.0,0.0,1.0,0.00359252929688,0.171243896484,10.024354248,0.1,0.0,0.0,0.0,0.1,0.0,0.0,0.0,0.1
1446040020025268406,197,1446040020022001028,robocape,4.79659926856,0.525956107247,55.9711460524,0.0,10.0,0.0,0.0,0.0,10.0,0.0,0.0,0.0,10.0,0.00386158358061,0.0211721306661,0.00719053494321,1.0,0.0,0.0,0.0,1.0,0.0,0.0,0.0,1.0,0.0263452148438,0.156873779297,10.0267492676,0.1,0.0,0.0,0.0,0.1,0.0,0.0,0.0,0.1
1446040020058446281,198,1446040020055334091,robocape,4.78087511103,0.57293300608,55.7145097492,0.0,10.0,0.0,0.0,0.0,10.0,0.0,0.0,0.0,10.0,0.00372842552611,0.0206394984481,0.00759000910673,1.0,0.0,0.0,0.0,1.0,0.0,0.0,0.0,1.0,0.0119750976563,0.159268798828,10.0794396973,0.1,0.0,0.0,0.0,0.1,0.0,0.0,0.0,0.1
1446040020092042781,199,1446040020088937997,robocape,4.76574437624,0.620786580717,55.4611499683,0.0,10.0,0.0,0.0,0.0,10.0,0.0,0.0,0.0,10.0,0.00399474163512,0.0213052887206,0.00785632521573,1.0,0.0,0.0,0.0,1.0,0.0,0.0,0.0,1.0,0.0311352539063,0.158071289063,10.0746496582,0.1,0.0,0.0,0.0,0.1,0.0,0.0,0.0,0.1
1446040020125379822,200,1446040020122113943,robocape,4.74970797227,0.667165142813,55.2090758806,0.0,10.0,0.0,0.0,0.0,10.0,0.0,0.0,0.0,10.0,0.0034621094171,0.0206394984481,0.00692421883421,1.0,0.0,0.0,0.0,1.0,0.0,0.0,0.0,1.0,0.0215551757813,0.160466308594,10.0375268555,0.1,0.0,0.0,0.0,0.1,0.0,0.0,0.0,0.1
1446040020159536281,201,1446040020156337022,robocape,4.73427512251,0.713479783991,54.9595251231,0.0,10.0,0.0,0.0,0.0,10.0,0.0,0.0,0.0,10.0,0.00372842552611,0.0207726565026,0.0067910607797,1.0,0.0,0.0,0.0,1.0,0.0,0.0,0.0,1.0,0.028740234375,0.148491210938,10.0423168945,0.1,0.0,0.0,0.0,0.1,0.0,0.0,0.0,0.1
1446040020191779531,202,1446040020188704967,robocape,4.72069611472,0.759837394824,54.7140414864,0.0,10.0,0.0,0.0,0.0,10.0,0.0,0.0,0.0,10.0,0.00466053190764,0.0210389726116,0.00772316716123,1.0,0.0,0.0,0.0,1.0,0.0,0.0,0.0,1.0,0.0107775878906,0.150886230469,10.0315393066,0.1,0.0,0.0,0.0,0.1,0.0,0.0,0.0,0.1
1446040020225371031,203,1446040020222207069,robocape,4.70619529961,0.805655938794,54.4707667429,0.0,10.0,0.0,0.0,0.0,10.0,0.0,0.0,0.0,10.0,0.00412789968962,0.0209058145571,0.00745685105222,1.0,0.0,0.0,0.0,1.0,0.0,0.0,0.0,1.0,0.0143701171875,0.148491210938,10.0638720703,0.1,0.0,0.0,0.0,0.1,0.0,0.0,0.0,0.1
1446040020258523656,204,1446040020255352973,robocape,4.69178915145,0.850166005997,54.2297901975,0.0,10.0,0.0,0.0,0.0,10.0,0.0,0.0,0.0,10.0,0.00412789968962,0.0203731823391,0.00732369299772,1.0,0.0,0.0,0.0,1.0,0.0,0.0,0.0,1.0,0.0143701171875,0.162861328125,10.0315393066,0.1,0.0,0.0,0.0,0.1,0.0,0.0,0.0,0.1
1446040020291612031,205,1446040020288585901,robocape,4.67520426002,0.89498310701,53.9902110471,0.0,10.0,0.0,0.0,0.0,10.0,0.0,0.0,0.0,10.0,0.00292947719909,0.0206394984481,0.00652474467069,1.0,0.0,0.0,0.0,1.0,0.0,0.0,0.0,1.0,0.00718505859375,0.158071289063,10.0483044434,0.1,0.0,0.0,0.0,0.1,0.0,0.0,0.0,0.1
1446040020325088656,206,1446040020321867942,robocape,4.65770543202,0.940129060924,53.7543977936,0.0,10.0,0.0,0.0,0.0,10.0,0.0,0.0,0.0,10.0,0.00239684498107,0.0210389726116,0.00732369299772,1.0,0.0,0.0,0.0,1.0,0.0,0.0,0.0,1.0,0.00359252929688,0.155676269531,10.0483044434,0.1,0.0,0.0,0.0,0.1,0.0,0.0,0.0,0.1
1446040020358528864,207,1446040020355330944,robocape,4.64006167811,0.98426634198,53.5203748032,0.0,10.0,0.0,0.0,0.0,10.0,0.0,0.0,0.0,10.0,0.00226368692657,0.0206394984481,0.00692421883421,1.0,0.0,0.0,0.0,1.0,0.0,0.0,0.0,1.0,0.0131726074219,0.141306152344,10.0459094238,0.1,0.0,0.0,0.0,0.1,0.0,0.0,0.0,0.1
1446040020391789531,208,1446040020388746976,robocape,4.6237885604,1.02878593525,53.289599812,0.0,10.0,0.0,0.0,0.0,10.0,0.0,0.0,0.0,10.0,0.00292947719909,0.0210389726116,0.00745685105222,1.0,0.0,0.0,0.0,1.0,0.0,0.0,0.0,1.0,-0.00239501953125,0.144898681641,10.0662670898,0.1,0.0,0.0,0.0,0.1,0.0,0.0,0.0,0.1
1446040020426319364,209,1446040020422622919,robocape,4.6098921956,1.07332531422,53.0605665491,0.0,10.0,0.0,0.0,0.0,10.0,0.0,0.0,0.0,10.0,0.00412789968962,0.0211721306661,0.00705737688871,1.0,0.0,0.0,0.0,1.0,0.0,0.0,0.0,1.0,0.0203576660156,0.142503662109,10.0506994629,0.1,0.0,0.0,0.0,0.1,0.0,0.0,0.0,0.1
1446040020458416822,210,1446040020455373048,robocape,4.59810735095,1.11864898832,52.8332968939,0.0,10.0,0.0,0.0,0.0,10.0,0.0,0.0,0.0,10.0,0.00519316412565,0.0217047628841,0.0066579027252,1.0,0.0,0.0,0.0,1.0,0.0,0.0,0.0,1.0,0.028740234375,0.125738525391,10.055489502,0.1,0.0,0.0,0.0,0.1,0.0,0.0,0.0,0.1
1446040020492078531,211,1446040020488946914,robocape,4.58867787103,1.16324651572,52.6076494409,0.0,10.0,0.0,0.0,0.0,10.0,0.0,0.0,0.0,10.0,0.00639158661619,0.0214384467751,0.00625842856169,1.0,0.0,0.0,0.0,1.0,0.0,0.0,0.0,1.0,0.0227526855469,0.150886230469,10.0375268555,0.1,0.0,0.0,0.0,0.1,0.0,0.0,0.0,0.1
1446040020525168489,212,1446040020521826982,robocape,4.58286103737,1.20755890636,52.3844224726,0.0,10.0,0.0,0.0,0.0,10.0,0.0,0.0,0.0,10.0,0.00825579937925,0.0214384467751,0.00639158661619,1.0,0.0,0.0,0.0,1.0,0.0,0.0,0.0,1.0,0.0239501953125,0.15328125,10.055489502,0.1,0.0,0.0,0.0,0.1,0.0,0.0,0.0,0.1
1446040020558567614,213,1446040020555452108,robocape,4.57608990994,1.25158699289,52.1636413187,0.0,10.0,0.0,0.0,0.0,10.0,0.0,0.0,0.0,10.0,0.00772316716123,0.0214384467751,0.00652474467069,1.0,0.0,0.0,0.0,1.0,0.0,0.0,0.0,1.0,0.01916015625,0.154478759766,10.0495019531,0.1,0.0,0.0,0.0,0.1,0.0,0.0,0.0,0.1
1446040020591871031,214,1446040020588762044,robocape,4.56938209942,1.29630683929,51.9457314077,0.0,10.0,0.0,0.0,0.0,10.0,0.0,0.0,0.0,10.0,0.00772316716123,0.0219710789932,0.00692421883421,1.0,0.0,0.0,0.0,1.0,0.0,0.0,0.0,1.0,0.0167651367188,0.160466308594,10.0339343262,0.1,0.0,0.0,0.0,0.1,0.0,0.0,0.0,0.1
1446040020625318364,215,1446040020621942043,robocape,4.56222640296,1.33930908442,51.7292633109,0.0,10.0,0.0,0.0,0.0,10.0,0.0,0.0,0.0,10.0,0.00745685105222,0.0211721306661,0.00652474467069,1.0,0.0,0.0,0.0,1.0,0.0,0.0,0.0,1.0,0.0251477050781,0.156873779297,10.0387243652,0.1,0.0,0.0,0.0,0.1,0.0,0.0,0.0,0.1
1446040020658414281,216,1446040020655332088,robocape,4.55236195444,1.38343424522,51.5164885683,0.0,10.0,0.0,0.0,0.0,10.0,0.0,0.0,0.0,10.0,0.00599211245268,0.0219710789932,0.00745685105222,1.0,0.0,0.0,0.0,1.0,0.0,0.0,0.0,1.0,0.0179626464844,0.166453857422,10.0483044434,0.1,0.0,0.0,0.0,0.1,0.0,0.0,0.0,0.1
1446040020691698823,217,1446040020688622951,robocape,4.5402923681,1.4255890485,51.3050843867,0.0,10.0,0.0,0.0,0.0,10.0,0.0,0.0,0.0,10.0,0.00479368996214,0.0210389726116,0.00705737688871,1.0,0.0,0.0,0.0,1.0,0.0,0.0,0.0,1.0,0.00718505859375,0.167651367188,10.0614770508,0.1,0.0,0.0,0.0,0.1,0.0,0.0,0.0,0.1
1446040020725274031,218,1446040020721879005,robocape,4.52705036407,1.46743391575,51.0963608724,0.0,10.0,0.0,0.0,0.0,10.0,0.0,0.0,0.0,10.0,0.00412789968962,0.0210389726116,0.00745685105222,1.0,0.0,0.0,0.0,1.0,0.0,0.0,0.0,1.0,0.00359252929688,0.160466308594,10.0471069336,0.1,0.0,0.0,0.0,0.1,0.0,0.0,0.0,0.1
1446040020758993573,219,1446040020755949974,robocape,4.51339417463,1.50928358585,50.8896718815,0.0,10.0,0.0,0.0,0.0,10.0,0.0,0.0,0.0,10.0,0.00386158358061,0.0211721306661,0.00745685105222,1.0,0.0,0.0,0.0,1.0,0.0,0.0,0.0,1.0,0.0203576660156,0.15328125,10.0423168945,0.1,0.0,0.0,0.0,0.1,0.0,0.0,0.0,0.1
1446040020791620739,220,1446040020788589954,robocape,4.49907747614,1.55034344742,50.6853506746,0.0,10.0,0.0,0.0,0.0,10.0,0.0,0.0,0.0,10.0,0.0034621094171,0.0209058145571,0.00772316716123,1.0,0.0,0.0,0.0,1.0,0.0,0.0,0.0,1.0,0.0239501953125,0.161663818359,10.0327368164,0.1,0.0,0.0,0.0,0.1,0.0,0.0,0.0,0.1
1446040020825279531,221,1446040020821954011,robocape,4.48510012718,1.592252043,50.4822137834,0.0,10.0,0.0,0.0,0.0,10.0,0.0,0.0,0.0,10.0,0.00359526747161,0.0214384467751,0.00719053494321,1.0,0.0,0.0,0.0,1.0,0.0,0.0,0.0,1.0,0.0227526855469,0.148491210938,10.0327368164,0.1,0.0,0.0,0.0,0.1,0.0,0.0,0.0,0.1
1446040020858612614,222,1446040020855232000,robocape,4.47096064949,1.63419236983,50.2808117876,0.0,10.0,0.0,0.0,0.0,10.0,0.0,0.0,0.0,10.0,0.0034621094171,0.0215716048296,0.00705737688871,1.0,0.0,0.0,0.0,1.0,0.0,0.0,0.0,1.0,0.028740234375,0.147293701172,10.0674645996,0.1,0.0,0.0,0.0,0.1,0.0,0.0,0.0,0.1
1446040020891752864,223,1446040020888688087,robocape,4.45715960424,1.67570130606,50.0806626989,0.0,10.0,0.0,0.0,0.0,10.0,0.0,0.0,0.0,10.0,0.00359526747161,0.0214384467751,0.0066579027252,1.0,0.0,0.0,0.0,1.0,0.0,0.0,0.0,1.0,0.01916015625,0.147293701172,10.0219592285,0.1,0.0,0.0,0.0,0.1,0.0,0.0,0.0,0.1
1446040020925173823,224,1446040020921797037,robocape,4.44395360157,1.71775557781,49.8822200219,0.0,10.0,0.0,0.0,0.0,10.0,0.0,0.0,0.0,10.0,0.00386158358061,0.0218379209386,0.00652474467069,1.0,0.0,0.0,0.0,1.0,0.0,0.0,0.0,1.0,0.0203576660156,0.15328125,10.0387243652,0.1,0.0,0.0,0.0,0.1,0.0,0.0,0.0,0.1
1446040020958547823,225,1446040020955300092,robocape,4.43185276711,1.75804572856,49.6857180825,0.0,10.0,0.0,0.0,0.0,10.0,0.0,0.0,0.0,10.0,0.00439421579863,0.0210389726116,0.0066579027252,1.0,0.0,0.0,0.0,1.0,0.0,0.0,0.0,1.0,0.01916015625,0.148491210938,10.0506994629,0.1,0.0,0.0,0.0,0.1,0.0,0.0,0.0,0.1
1446040020991857906,226,1446040020988580942,robocape,4.42036260222,1.79751501909,49.4920348218,0.0,10.0,0.0,0.0,0.0,10.0,0.0,0.0,0.0,10.0,0.00466053190764,0.0207726565026,0.00732369299772,1.0,0.0,0.0,0.0,1.0,0.0,0.0,0.0,1.0,0.0227526855469,0.146096191406,10.0471069336,0.1,0.0,0.0,0.0,0.1,0.0,0.0,0.0,0.1
1446040021026608823,227,1446040021022994995,robocape,4.40844526402,1.83655640296,49.299706319,0.0,10.0,0.0,0.0,0.0,10.0,0.0,0.0,0.0,10.0,0.00439421579863,0.0206394984481,0.00705737688871,1.0,0.0,0.0,0.0,1.0,0.0,0.0,0.0,1.0,0.0131726074219,0.149688720703,10.060279541,0.1,0.0,0.0,0.0,0.1,0.0,0.0,0.0,0.1
1446040021058576948,228,1446040021055480957,robocape,4.39459532666,1.87561779738,49.1093851214,0.0,10.0,0.0,0.0,0.0,10.0,0.0,0.0,0.0,10.0,0.0033289513626,0.0207726565026,0.00719053494321,1.0,0.0,0.0,0.0,1.0,0.0,0.0,0.0,1.0,0.0215551757813,0.160466308594,10.0363293457,0.1,0.0,0.0,0.0,0.1,0.0,0.0,0.0,0.1
1446040021091901989,229,1446040021088629961,robocape,4.38031425603,1.91481706783,48.9197702785,0.0,10.0,0.0,0.0,0.0,10.0,0.0,0.0,0.0,10.0,0.00306263525359,0.0209058145571,0.00652474467069,1.0,0.0,0.0,0.0,1.0,0.0,0.0,0.0,1.0,0.028740234375,0.158071289063,10.0387243652,0.1,0.0,0.0,0.0,0.1,0.0,0.0,0.0,0.1
1446040021125291698,230,1446040021121951103,robocape,4.36589656689,1.95446780373,48.7329663549,0.0,10.0,0.0,0.0,0.0,10.0,0.0,0.0,0.0,10.0,0.00292947719909,0.0213052887206,0.00719053494321,1.0,0.0,0.0,0.0,1.0,0.0,0.0,0.0,1.0,0.0203576660156,0.155676269531,10.0291442871,0.1,0.0,0.0,0.0,0.1,0.0,0.0,0.0,0.1
1446040021158391823,231,1446040021155313014,robocape,4.34980327748,1.99340169623,48.5478285188,0.0,10.0,0.0,0.0,0.0,10.0,0.0,0.0,0.0,10.0,0.00199737081756,0.0210389726116,0.00719053494321,1.0,0.0,0.0,0.0,1.0,0.0,0.0,0.0,1.0,0.00718505859375,0.140108642578,10.0387243652,0.1,0.0,0.0,0.0,0.1,0.0,0.0,0.0,0.1
1446040021193183573,232,1446040021188523054,robocape,4.33431882119,2.03137243867,48.364291322,0.0,10.0,0.0,0.0,0.0,10.0,0.0,0.0,0.0,10.0,0.00226368692657,0.0206394984481,0.00719053494321,1.0,0.0,0.0,0.0,1.0,0.0,0.0,0.0,1.0,0.0155676269531,0.130528564453,10.0530944824,0.1,0.0,0.0,0.0,0.1,0.0,0.0,0.0,0.1
1446040021225303739,233,1446040021222120046,robocape,4.31995229177,2.06963139369,48.1826165323,0.0,10.0,0.0,0.0,0.0,10.0,0.0,0.0,0.0,10.0,0.00279631914458,0.0209058145571,0.00732369299772,1.0,0.0,0.0,0.0,1.0,0.0,0.0,0.0,1.0,0.0167651367188,0.137713623047,10.0375268555,0.1,0.0,0.0,0.0,0.1,0.0,0.0,0.0,0.1
1446040021258598281,234,1446040021255451917,robocape,4.3061680184,2.10827644799,48.0017308896,0.0,10.0,0.0,0.0,0.0,10.0,0.0,0.0,0.0,10.0,0.00306263525359,0.0211721306661,0.0067910607797,1.0,0.0,0.0,0.0,1.0,0.0,0.0,0.0,1.0,0.0155676269531,0.128133544922,10.0459094238,0.1,0.0,0.0,0.0,0.1,0.0,0.0,0.0,0.1
1446040021291877531,235,1446040021288642883,robocape,4.29197515524,2.14670613507,47.8226507205,0.0,10.0,0.0,0.0,0.0,10.0,0.0,0.0,0.0,10.0,0.00279631914458,0.0211721306661,0.00692421883421,1.0,0.0,0.0,0.0,1.0,0.0,0.0,0.0,1.0,0.0203576660156,0.140108642578,10.0267492676,0.1,0.0,0.0,0.0,0.1,0.0,0.0,0.0,0.1
1446040021325100573,236,1446040021321969032,robocape,4.27763368951,2.1851567054,47.6455762431,0.0,10.0,0.0,0.0,0.0,10.0,0.0,0.0,0.0,10.0,0.00266316109008,0.0213052887206,0.00719053494321,1.0,0.0,0.0,0.0,1.0,0.0,0.0,0.0,1.0,0.028740234375,0.136516113281,10.0518969727,0.1,0.0,0.0,0.0,0.1,0.0,0.0,0.0,0.1
1446040021358925281,237,1446040021355639934,robocape,4.26339728787,2.22261995052,47.47041751,0.0,10.0,0.0,0.0,0.0,10.0,0.0,0.0,0.0,10.0,0.00266316109008,0.0209058145571,0.00745685105222,1.0,0.0,0.0,0.0,1.0,0.0,0.0,0.0,1.0,0.009580078125,0.141306152344,10.0447119141,0.1,0.0,0.0,0.0,0.1,0.0,0.0,0.0,0.1
1446040021392190281,238,1446040021388542890,robocape,4.24825463801,2.26086879549,47.2972701738,0.0,10.0,0.0,0.0,0.0,10.0,0.0,0.0,0.0,10.0,0.00213052887206,0.0214384467751,0.00772316716123,1.0,0.0,0.0,0.0,1.0,0.0,0.0,0.0,1.0,0.0215551757813,0.143701171875,10.0351318359,0.1,0.0,0.0,0.0,0.1,0.0,0.0,0.0,0.1
1446040021425413115,239,1446040021422311067,robocape,4.23320279236,2.29819149315,47.1253535864,0.0,10.0,0.0,0.0,0.0,10.0,0.0,0.0,0.0,10.0,0.00213052887206,0.0210389726116,0.00759000910673,1.0,0.0,0.0,0.0,1.0,0.0,0.0,0.0,1.0,0.0203576660156,0.137713623047,10.0471069336,0.1,0.0,0.0,0.0,0.1,0.0,0.0,0.0,0.1
1446040021458737115,240,1446040021455646038,robocape,4.22101384919,2.33488808136,46.9542117672,0.0,10.0,0.0,0.0,0.0,10.0,0.0,0.0,0.0,10.0,0.00359526747161,0.0207726565026,0.00719053494321,1.0,0.0,0.0,0.0,1.0,0.0,0.0,0.0,1.0,0.0215551757813,0.136516113281,10.0315393066,0.1,0.0,0.0,0.0,0.1,0.0,0.0,0.0,0.1
1446040021491948656,241,1446040021488655090,robocape,4.20917696145,2.37187808646,46.7849807753,0.0,10.0,0.0,0.0,0.0,10.0,0.0,0.0,0.0,10.0,0.00372842552611,0.0210389726116,0.00745685105222,1.0,0.0,0.0,0.0,1.0,0.0,0.0,0.0,1.0,0.0383203125,0.149688720703,10.0698596191,0.1,0.0,0.0,0.0,0.1,0.0,0.0,0.0,0.1
1446040021525257323,242,1446040021522181987,robocape,4.19867115188,2.40976457987,46.6165922741,0.0,10.0,0.0,0.0,0.0,10.0,0.0,0.0,0.0,10.0,0.00439421579863,0.0215716048296,0.00705737688871,1.0,0.0,0.0,0.0,1.0,0.0,0.0,0.0,1.0,0.009580078125,0.135318603516,10.0435144043,0.1,0.0,0.0,0.0,0.1,0.0,0.0,0.0,0.1
1446040021558772365,243,1446040021555685043,robocape,4.18874914766,2.44672089579,46.4495712709,0.0,10.0,0.0,0.0,0.0,10.0,0.0,0.0,0.0,10.0,0.00466053190764,0.0211721306661,0.00705737688871,1.0,0.0,0.0,0.0,1.0,0.0,0.0,0.0,1.0,0.0215551757813,0.135318603516,10.0231567383,0.1,0.0,0.0,0.0,0.1,0.0,0.0,0.0,0.1
1446040021591872406,244,1446040021588560104,robocape,4.17964293589,2.48407353501,46.2833316362,0.0,10.0,0.0,0.0,0.0,10.0,0.0,0.0,0.0,10.0,0.00506000607115,0.0214384467751,0.0066579027252,1.0,0.0,0.0,0.0,1.0,0.0,0.0,0.0,1.0,0.0179626464844,0.129331054688,10.0375268555,0.1,0.0,0.0,0.0,0.1,0.0,0.0,0.0,0.1
1446040021625134073,245,1446040021622061967,robocape,4.17062964153,2.52069785377,46.1190887325,0.0,10.0,0.0,0.0,0.0,10.0,0.0,0.0,0.0,10.0,0.00506000607115,0.0211721306661,0.00705737688871,1.0,0.0,0.0,0.0,1.0,0.0,0.0,0.0,1.0,0.0107775878906,0.129331054688,10.0231567383,0.1,0.0,0.0,0.0,0.1,0.0,0.0,0.0,0.1
1446040021658733365,246,1446040021655724048,robocape,4.16346825823,2.55764919492,45.9564355583,0.0,10.0,0.0,0.0,0.0,10.0,0.0,0.0,0.0,10.0,0.00599211245268,0.0214384467751,0.00719053494321,1.0,0.0,0.0,0.0,1.0,0.0,0.0,0.0,1.0,0.0275427246094,0.128133544922,10.0530944824,0.1,0.0,0.0,0.0,0.1,0.0,0.0,0.0,0.1
1446040021691840448,247,1446040021688536882,robocape,4.15763074335,2.59471493073,45.7949135931,0.0,10.0,0.0,0.0,0.0,10.0,0.0,0.0,0.0,10.0,0.0066579027252,0.0215716048296,0.00705737688871,1.0,0.0,0.0,0.0,1.0,0.0,0.0,0.0,1.0,0.0251477050781,0.140108642578,10.0423168945,0.1,0.0,0.0,0.0,0.1,0.0,0.0,0.0,0.1
1446040021725139740,248,1446040021722131013,robocape,4.15363955359,2.63057789808,45.6350715266,0.0,10.0,0.0,0.0,0.0,10.0,0.0,0.0,0.0,10.0,0.00759000910673,0.0210389726116,0.00732369299772,1.0,0.0,0.0,0.0,1.0,0.0,0.0,0.0,1.0,0.01916015625,0.123343505859,10.0351318359,0.1,0.0,0.0,0.0,0.1,0.0,0.0,0.0,0.1
1446040021758844740,249,1446040021755717992,robocape,4.1491750104,2.66811785145,45.476000758,0.0,10.0,0.0,0.0,0.0,10.0,0.0,0.0,0.0,10.0,0.00732369299772,0.0219710789932,0.00692421883421,1.0,0.0,0.0,0.0,1.0,0.0,0.0,0.0,1.0,0.0251477050781,0.137713623047,10.0590820312,0.1,0.0,0.0,0.0,0.1,0.0,0.0,0.0,0.1
1446040021791821990,250,1446040021788599967,robocape,4.14474110985,2.7053088511,45.3175618888,0.0,10.0,0.0,0.0,0.0,10.0,0.0,0.0,0.0,10.0,0.00732369299772,0.0218379209386,0.00652474467069,1.0,0.0,0.0,0.0,1.0,0.0,0.0,0.0,1.0,0.0155676269531,0.142503662109,10.0183666992,0.1,0.0,0.0,0.0,0.1,0.0,0.0,0.0,0.1
1446040021825236531,251,1446040021822196960,robocape,4.13783722204,2.74156893825,45.1605973295,0.0,10.0,0.0,0.0,0.0,10.0,0.0,0.0,0.0,10.0,0.00599211245268,0.0214384467751,0.0066579027252,1.0,0.0,0.0,0.0,1.0,0.0,0.0,0.0,1.0,0.0203576660156,0.146096191406,10.0351318359,0.1,0.0,0.0,0.0,0.1,0.0,0.0,0.0,0.1
1446040021858950115,252,1446040021855626106,robocape,4.1282039613,2.77693775374,45.0046592676,0.0,10.0,0.0,0.0,0.0,10.0,0.0,0.0,0.0,10.0,0.00452737385313,0.0210389726116,0.00652474467069,1.0,0.0,0.0,0.0,1.0,0.0,0.0,0.0,1.0,0.0263452148438,0.141306152344,10.0387243652,0.1,0.0,0.0,0.0,0.1,0.0,0.0,0.0,0.1
1446040021891954531,253,1446040021888727903,robocape,4.1171592856,2.81258602763,44.8508747315,0.0,10.0,0.0,0.0,0.0,10.0,0.0,0.0,0.0,10.0,0.00372842552611,0.0213052887206,0.00705737688871,1.0,0.0,0.0,0.0,1.0,0.0,0.0,0.0,1.0,0.0251477050781,0.136516113281,10.0590820312,0.1,0.0,0.0,0.0,0.1,0.0,0.0,0.0,0.1
1446040021924912906,254,1446040021921884059,robocape,4.10670815923,2.84831940516,44.6985396109,0.0,10.0,0.0,0.0,0.0,10.0,0.0,0.0,0.0,10.0,0.00399474163512,0.0214384467751,0.00719053494321,1.0,0.0,0.0,0.0,1.0,0.0,0.0,0.0,1.0,0.0263452148438,0.138911132813,10.0339343262,0.1,0.0,0.0,0.0,0.1,0.0,0.0,0.0,0.1
1446040021958759948,255,1446040021955648899,robocape,4.09557364825,2.88390463953,44.5474166006,0.0,10.0,0.0,0.0,0.0,10.0,0.0,0.0,0.0,10.0,0.00359526747161,0.0214384467751,0.00719053494321,1.0,0.0,0.0,0.0,1.0,0.0,0.0,0.0,1.0,0.0275427246094,0.125738525391,10.0375268555,0.1,0.0,0.0,0.0,0.1,0.0,0.0,0.0,0.1
1446040021992344115,256,1446040021989007949,robocape,4.08832340755,2.91907598283,44.3976527876,0.0,10.0,0.0,0.0,0.0,10.0,0.0,0.0,0.0,10.0,0.00559263828917,0.0213052887206,0.00732369299772,1.0,0.0,0.0,0.0,1.0,0.0,0.0,0.0,1.0,0.0239501953125,0.119750976563,10.060279541,0.1,0.0,0.0,0.0,0.1,0.0,0.0,0.0,0.1
1446040022025254407,257,1446040022022150039,robocape,4.0821590986,2.95358488238,44.249243264,0.0,10.0,0.0,0.0,0.0,10.0,0.0,0.0,0.0,10.0,0.00612527050718,0.0210389726116,0.00745685105222,1.0,0.0,0.0,0.0,1.0,0.0,0.0,0.0,1.0,0.01916015625,0.136516113281,10.055489502,0.1,0.0,0.0,0.0,0.1,0.0,0.0,0.0,0.1
1446040022058799782,258,1446040022055686950,robocape,4.07625680017,2.99034796744,44.1008174708,0.0,10.0,0.0,0.0,0.0,10.0,0.0,0.0,0.0,10.0,0.00625842856169,0.0222373951022,0.0066579027252,1.0,0.0,0.0,0.0,1.0,0.0,0.0,0.0,1.0,0.0155676269531,0.13412109375,10.0315393066,0.1,0.0,0.0,0.0,0.1,0.0,0.0,0.0,0.1
1446040022091892073,259,1446040022088634967,robocape,4.07069163325,3.02564989973,43.9541211909,0.0,10.0,0.0,0.0,0.0,10.0,0.0,0.0,0.0,10.0,0.00639158661619,0.0215716048296,0.00705737688871,1.0,0.0,0.0,0.0,1.0,0.0,0.0,0.0,1.0,0.0299377441406,0.140108642578,10.0339343262,0.1,0.0,0.0,0.0,0.1,0.0,0.0,0.0,0.1
1446040022125109698,260,1446040022122039079,robocape,4.0646766889,3.05955368921,43.8084907848,0.0,10.0,0.0,0.0,0.0,10.0,0.0,0.0,0.0,10.0,0.00612527050718,0.0209058145571,0.00705737688871,1.0,0.0,0.0,0.0,1.0,0.0,0.0,0.0,1.0,0.0215551757813,0.138911132813,10.0267492676,0.1,0.0,0.0,0.0,0.1,0.0,0.0,0.0,0.1
1446040022158674865,261,1446040022155500888,robocape,4.05946297648,3.09362025653,43.663552953,0.0,10.0,0.0,0.0,0.0,10.0,0.0,0.0,0.0,10.0,0.00652474467069,0.0210389726116,0.0067910607797,1.0,0.0,0.0,0.0,1.0,0.0,0.0,0.0,1.0,0.0227526855469,0.141306152344,10.0471069336,0.1,0.0,0.0,0.0,0.1,0.0,0.0,0.0,0.1
1446040022192270240,262,1446040022189100980,robocape,4.05206669106,3.12748098506,43.5206162598,0.0,10.0,0.0,0.0,0.0,10.0,0.0,0.0,0.0,10.0,0.00532632218016,0.0210389726116,0.00732369299772,1.0,0.0,0.0,0.0,1.0,0.0,0.0,0.0,1.0,0.0227526855469,0.152083740234,10.0351318359,0.1,0.0,0.0,0.0,0.1,0.0,0.0,0.0,0.1
1446040022225380907,263,1446040022222341060,robocape,4.04271933895,3.16094009615,43.3789890846,0.0,10.0,0.0,0.0,0.0,10.0,0.0,0.0,0.0,10.0,0.00426105774413,0.0209058145571,0.00745685105222,1.0,0.0,0.0,0.0,1.0,0.0,0.0,0.0,1.0,0.0215551757813,0.140108642578,10.0423168945,0.1,0.0,0.0,0.0,0.1,0.0,0.0,0.0,0.1
1446040022259090115,264,1446040022255942106,robocape,4.03342278541,3.19355167595,43.2379550835,0.0,10.0,0.0,0.0,0.0,10.0,0.0,0.0,0.0,10.0,0.00426105774413,0.0205063403936,0.00719053494321,1.0,0.0,0.0,0.0,1.0,0.0,0.0,0.0,1.0,0.0155676269531,0.128133544922,10.0411193848,0.1,0.0,0.0,0.0,0.1,0.0,0.0,0.0,0.1
1446040022291892990,265,1446040022288551092,robocape,4.0243902072,3.22615407754,43.0966692154,0.0,10.0,0.0,0.0,0.0,10.0,0.0,0.0,0.0,10.0,0.00439421579863,0.0205063403936,0.00639158661619,1.0,0.0,0.0,0.0,1.0,0.0,0.0,0.0,1.0,0.0311352539063,0.141306152344,10.0626745605,0.1,0.0,0.0,0.0,0.1,0.0,0.0,0.0,0.1
1446040022325082240,266,1446040022322015047,robocape,4.01496495448,3.26032646887,42.9574223717,0.0,10.0,0.0,0.0,0.0,10.0,0.0,0.0,0.0,10.0,0.00412789968962,0.0214384467751,0.00692421883421,1.0,0.0,0.0,0.0,1.0,0.0,0.0,0.0,1.0,0.0239501953125,0.136516113281,10.0219592285,0.1,0.0,0.0,0.0,0.1,0.0,0.0,0.0,0.1
1446040022358941990,267,1446040022355670928,robocape,4.00711735853,3.29363415822,42.818940476,0.0,10.0,0.0,0.0,0.0,10.0,0.0,0.0,0.0,10.0,0.00492684801665,0.0210389726116,0.0067910607797,1.0,0.0,0.0,0.0,1.0,0.0,0.0,0.0,1.0,0.0275427246094,0.130528564453,10.0387243652,0.1,0.0,0.0,0.0,0.1,0.0,0.0,0.0,0.1
1446040022391708240,268,1446040022388624906,robocape,3.9996311917,3.32725003759,42.6823918894,0.0,10.0,0.0,0.0,0.0,10.0,0.0,0.0,0.0,10.0,0.00506000607115,0.0213052887206,0.00732369299772,1.0,0.0,0.0,0.0,1.0,0.0,0.0,0.0,1.0,0.01916015625,0.131726074219,10.0207617188,0.1,0.0,0.0,0.0,0.1,0.0,0.0,0.0,0.1
1446040022425033240,269,1446040022421994924,robocape,3.99314499448,3.36062595085,42.5452929217,0.0,10.0,0.0,0.0,0.0,10.0,0.0,0.0,0.0,10.0,0.00559263828917,0.0211721306661,0.00639158661619,1.0,0.0,0.0,0.0,1.0,0.0,0.0,0.0,1.0,0.0155676269531,0.140108642578,10.0291442871,0.1,0.0,0.0,0.0,0.1,0.0,0.0,0.0,0.1
1446040022458871365,270,1446040022455749034,robocape,3.98576948774,3.39225256054,42.4104466481,0.0,10.0,0.0,0.0,0.0,10.0,0.0,0.0,0.0,10.0,0.00506000607115,0.0203731823391,0.00719053494321,1.0,0.0,0.0,0.0,1.0,0.0,0.0,0.0,1.0,0.0119750976563,0.13412109375,10.0483044434,0.1,0.0,0.0,0.0,0.1,0.0,0.0,0.0,0.1
1446040022491580698,271,1446040022488543033,robocape,3.97821768429,3.42501100954,42.2768813275,0.0,10.0,0.0,0.0,0.0,10.0,0.0,0.0,0.0,10.0,0.00492684801665,0.0210389726116,0.00732369299772,1.0,0.0,0.0,0.0,1.0,0.0,0.0,0.0,1.0,0.009580078125,0.144898681641,10.0638720703,0.1,0.0,0.0,0.0,0.1,0.0,0.0,0.0,0.1
1446040022525084615,272,1446040022521969079,robocape,3.97021174629,3.45792519277,42.1440876792,0.0,10.0,0.0,0.0,0.0,10.0,0.0,0.0,0.0,10.0,0.00466053190764,0.0211721306661,0.00719053494321,1.0,0.0,0.0,0.0,1.0,0.0,0.0,0.0,1.0,0.0179626464844,0.140108642578,10.0530944824,0.1,0.0,0.0,0.0,0.1,0.0,0.0,0.0,0.1
1446040022558634865,273,1446040022555552005,robocape,3.96025598426,3.49095587094,42.0125073651,0.0,10.0,0.0,0.0,0.0,10.0,0.0,0.0,0.0,10.0,0.00359526747161,0.0213052887206,0.00732369299772,1.0,0.0,0.0,0.0,1.0,0.0,0.0,0.0,1.0,0.0239501953125,0.130528564453,10.0159716797,0.1,0.0,0.0,0.0,0.1,0.0,0.0,0.0,0.1
1446040022591895823,274,1446040022588766098,robocape,3.94806849718,3.52415835486,41.8814656102,0.0,10.0,0.0,0.0,0.0,10.0,0.0,0.0,0.0,10.0,0.00239684498107,0.0214384467751,0.00705737688871,1.0,0.0,0.0,0.0,1.0,0.0,0.0,0.0,1.0,0.0119750976563,0.125738525391,10.0435144043,0.1,0.0,0.0,0.0,0.1,0.0,0.0,0.0,0.1
1446040022625173573,275,1446040022621984004,robocape,3.93701699878,3.55640904624,41.7521995796,0.0,10.0,0.0,0.0,0.0,10.0,0.0,0.0,0.0,10.0,0.00292947719909,0.0210389726116,0.00759000910673,1.0,0.0,0.0,0.0,1.0,0.0,0.0,0.0,1.0,0.0131726074219,0.120948486328,10.0518969727,0.1,0.0,0.0,0.0,0.1,0.0,0.0,0.0,0.1
1446040022658939948,276,1446040022655905008,robocape,3.92675149773,3.58862233314,41.6229675673,0.0,10.0,0.0,0.0,0.0,10.0,0.0,0.0,0.0,10.0,0.0033289513626,0.0210389726116,0.00705737688871,1.0,0.0,0.0,0.0,1.0,0.0,0.0,0.0,1.0,0.0179626464844,0.122145996094,10.0315393066,0.1,0.0,0.0,0.0,0.1,0.0,0.0,0.0,0.1
1446040022694994698,277,1446040022691669940,robocape,3.92139341371,3.62119496836,41.4950911033,0.0,10.0,0.0,0.0,0.0,10.0,0.0,0.0,0.0,10.0,0.00585895439817,0.0213052887206,0.00732369299772,1.0,0.0,0.0,0.0,1.0,0.0,0.0,0.0,1.0,0.0107775878906,0.120948486328,10.0375268555,0.1,0.0,0.0,0.0,0.1,0.0,0.0,0.0,0.1
1446040022725055032,278,1446040022721971988,robocape,3.91759597317,3.65317457374,41.3678627885,0.0,10.0,0.0,0.0,0.0,10.0,0.0,0.0,0.0,10.0,0.0066579027252,0.0210389726116,0.00719053494321,1.0,0.0,0.0,0.0,1.0,0.0,0.0,0.0,1.0,-0.00359252929688,0.1149609375,10.0423168945,0.1,0.0,0.0,0.0,0.1,0.0,0.0,0.0,0.1
1446040022758875615,279,1446040022755717039,robocape,3.91612708097,3.68505236138,41.2415182327,0.0,10.0,0.0,0.0,0.0,10.0,0.0,0.0,0.0,10.0,0.00785632521573,0.0210389726116,0.00719053494321,1.0,0.0,0.0,0.0,1.0,0.0,0.0,0.0,1.0,0.00598754882813,0.132923583984,10.0483044434,0.1,0.0,0.0,0.0,0.1,0.0,0.0,0.0,0.1
1446040022791798282,280,1446040022788605928,robocape,3.9171590641,3.71820870881,41.1147816788,0.0,10.0,0.0,0.0,0.0,10.0,0.0,0.0,0.0,10.0,0.00918790576077,0.0217047628841,0.00639158661619,1.0,0.0,0.0,0.0,1.0,0.0,0.0,0.0,1.0,0.0215551757813,0.126936035156,10.060279541,0.1,0.0,0.0,0.0,0.1,0.0,0.0,0.0,0.1
1446040022825325157,281,1446040022822257995,robocape,3.91825999467,3.7507014827,40.9895730332,0.0,10.0,0.0,0.0,0.0,10.0,0.0,0.0,0.0,10.0,0.00918790576077,0.0214384467751,0.0067910607797,1.0,0.0,0.0,0.0,1.0,0.0,0.0,0.0,1.0,0.0215551757813,0.138911132813,10.0506994629,0.1,0.0,0.0,0.0,0.1,0.0,0.0,0.0,0.1
1446040022859206407,282,1446040022855926990,robocape,3.9170639607,3.78418079884,40.8644188954,0.0,10.0,0.0,0.0,0.0,10.0,0.0,0.0,0.0,10.0,0.00798948327024,0.0219710789932,0.00625842856169,1.0,0.0,0.0,0.0,1.0,0.0,0.0,0.0,1.0,0.0119750976563,0.136516113281,10.0423168945,0.1,0.0,0.0,0.0,0.1,0.0,0.0,0.0,0.1
1446040022891884407,283,1446040022888664007,robocape,3.91346268719,3.81641155859,40.7416545932,0.0,10.0,0.0,0.0,0.0,10.0,0.0,0.0,0.0,10.0,0.0066579027252,0.0214384467751,0.00719053494321,1.0,0.0,0.0,0.0,1.0,0.0,0.0,0.0,1.0,0.009580078125,0.144898681641,10.0447119141,0.1,0.0,0.0,0.0,0.1,0.0,0.0,0.0,0.1
1446040022926565615,284,1446040022923326969,robocape,3.9067997192,3.84610767919,40.6185102545,0.0,10.0,0.0,0.0,0.0,10.0,0.0,0.0,0.0,10.0,0.00506000607115,0.0201068662301,0.00652474467069,1.0,0.0,0.0,0.0,1.0,0.0,0.0,0.0,1.0,0.0167651367188,0.146096191406,10.0375268555,0.1,0.0,0.0,0.0,0.1,0.0,0.0,0.0,0.1
1446040022958856615,285,1446040022955754995,robocape,3.89870566686,3.87743916531,40.4967635085,0.0,10.0,0.0,0.0,0.0,10.0,0.0,0.0,0.0,10.0,0.00426105774413,0.0210389726116,0.0067910607797,1.0,0.0,0.0,0.0,1.0,0.0,0.0,0.0,1.0,0.01916015625,0.13412109375,10.0363293457,0.1,0.0,0.0,0.0,0.1,0.0,0.0,0.0,0.1
1446040022992028490,286,1446040022988774061,robocape,3.88891304241,3.90814476901,40.3760572656,0.0,10.0,0.0,0.0,0.0,10.0,0.0,0.0,0.0,10.0,0.0033289513626,0.0207726565026,0.00692421883421,1.0,0.0,0.0,0.0,1.0,0.0,0.0,0.0,1.0,0.0251477050781,0.138911132813,10.019564209,0.1,0.0,0.0,0.0,0.1,0.0,0.0,0.0,0.1
1446040023025054365,287,1446040023021948099,robocape,3.87741622264,3.93950814971,40.2562241857,0.0,10.0,0.0,0.0,0.0,10.0,0.0,0.0,0.0,10.0,0.00239684498107,0.0211721306661,0.00692421883421,1.0,0.0,0.0,0.0,1.0,0.0,0.0,0.0,1.0,0.0215551757813,0.131726074219,10.039921875,0.1,0.0,0.0,0.0,0.1,0.0,0.0,0.0,0.1
1446040023058886615,288,1446040023055768013,robocape,3.86674808145,3.96900110519,40.1371033589,0.0,10.0,0.0,0.0,0.0,10.0,0.0,0.0,0.0,10.0,0.00279631914458,0.0202400242846,0.00692421883421,1.0,0.0,0.0,0.0,1.0,0.0,0.0,0.0,1.0,0.0239501953125,0.123343505859,10.0483044434,0.1,0.0,0.0,0.0,0.1,0.0,0.0,0.0,0.1
1446040023091946865,289,1446040023088644027,robocape,3.85691262255,3.99966334522,40.0188475355,0.0,10.0,0.0,0.0,0.0,10.0,0.0,0.0,0.0,10.0,0.0031957933081,0.0209058145571,0.00692421883421,1.0,0.0,0.0,0.0,1.0,0.0,0.0,0.0,1.0,0.0131726074219,0.122145996094,10.0686621094,0.1,0.0,0.0,0.0,0.1,0.0,0.0,0.0,0.1
1446040023125341699,290,1446040023122055053,robocape,3.84794731194,4.03118317137,39.9021052275,0.0,10.0,0.0,0.0,0.0,10.0,0.0,0.0,0.0,10.0,0.00359526747161,0.0214384467751,0.00732369299772,1.0,0.0,0.0,0.0,1.0,0.0,0.0,0.0,1.0,0.0251477050781,0.125738525391,10.0506994629,0.1,0.0,0.0,0.0,0.1,0.0,0.0,0.0,0.1
1446040023158779115,291,1446040023155587911,robocape,3.84050419391,4.06065947523,39.7851314983,0.0,10.0,0.0,0.0,0.0,10.0,0.0,0.0,0.0,10.0,0.00439421579863,0.0203731823391,0.0067910607797,1.0,0.0,0.0,0.0,1.0,0.0,0.0,0.0,1.0,0.01916015625,0.129331054688,10.0291442871,0.1,0.0,0.0,0.0,0.1,0.0,0.0,0.0,0.1
1446040023191811407,292,1446040023188549041,robocape,3.83383970595,4.09136636197,39.6683254013,0.0,10.0,0.0,0.0,0.0,10.0,0.0,0.0,0.0,10.0,0.00479368996214,0.0210389726116,0.00639158661619,1.0,0.0,0.0,0.0,1.0,0.0,0.0,0.0,1.0,0.0167651367188,0.137713623047,10.0506994629,0.1,0.0,0.0,0.0,0.1,0.0,0.0,0.0,0.1
1446040023225234240,293,1446040023222171068,robocape,3.82757048356,4.12186780571,39.5536388925,0.0,10.0,0.0,0.0,0.0,10.0,0.0,0.0,0.0,10.0,0.00492684801665,0.0210389726116,0.00719053494321,1.0,0.0,0.0,0.0,1.0,0.0,0.0,0.0,1.0,0.00838256835938,0.129331054688,10.0423168945,0.1,0.0,0.0,0.0,0.1,0.0,0.0,0.0,0.1
1446040023258728324,294,1446040023255492925,robocape,3.82266611797,4.1524750908,39.4403894281,0.0,10.0,0.0,0.0,0.0,10.0,0.0,0.0,0.0,10.0,0.00559263828917,0.0211721306661,0.00759000910673,1.0,0.0,0.0,0.0,1.0,0.0,0.0,0.0,1.0,0.0167651367188,0.124541015625,10.0578845215,0.1,0.0,0.0,0.0,0.1,0.0,0.0,0.0,0.1
1446040023291855240,295,1446040023288640022,robocape,3.81873521903,4.18260088135,39.3265045922,0.0,10.0,0.0,0.0,0.0,10.0,0.0,0.0,0.0,10.0,0.00612527050718,0.0209058145571,0.0067910607797,1.0,0.0,0.0,0.0,1.0,0.0,0.0,0.0,1.0,0.0263452148438,0.130528564453,10.0471069336,0.1,0.0,0.0,0.0,0.1,0.0,0.0,0.0,0.1
1446040023325059824,296,1446040023322038888,robocape,3.81637315391,4.2139041778,39.2134222656,0.0,10.0,0.0,0.0,0.0,10.0,0.0,0.0,0.0,10.0,0.00692421883421,0.0215716048296,0.0067910607797,1.0,0.0,0.0,0.0,1.0,0.0,0.0,0.0,1.0,0.0239501953125,0.132923583984,10.0566870117,0.1,0.0,0.0,0.0,0.1,0.0,0.0,0.0,0.1
1446040023358731949,297,1446040023355479001,robocape,3.81478040596,4.24465156909,39.1005971264,0.0,10.0,0.0,0.0,0.0,10.0,0.0,0.0,0.0,10.0,0.00732369299772,0.0213052887206,0.00652474467069,1.0,0.0,0.0,0.0,1.0,0.0,0.0,0.0,1.0,0.0227526855469,0.129331054688,10.055489502,0.1,0.0,0.0,0.0,0.1,0.0,0.0,0.0,0.1
1446040023392247532,298,1446040023388514995,robocape,3.81271777735,4.27455494088,38.9884698399,0.0,10.0,0.0,0.0,0.0,10.0,0.0,0.0,0.0,10.0,0.00705737688871,0.0209058145571,0.00652474467069,1.0,0.0,0.0,0.0,1.0,0.0,0.0,0.0,1.0,0.0263452148438,0.140108642578,10.0255517578,0.1,0.0,0.0,0.0,0.1,0.0,0.0,0.0,0.1
1446040023425108949,299,1446040023422055959,robocape,3.80979065488,4.30500070074,38.8786925508,0.0,10.0,0.0,0.0,0.0,10.0,0.0,0.0,0.0,10.0,0.00652474467069,0.0213052887206,0.00745685105222,1.0,0.0,0.0,0.0,1.0,0.0,0.0,0.0,1.0,0.0251477050781,0.132923583984,10.0590820312,0.1,0.0,0.0,0.0,0.1,0.0,0.0,0.0,0.1
1446040023459377907,300,1446040023456250905,robocape,3.80410336431,4.33512621682,38.7694017603,0.0,10.0,0.0,0.0,0.0,10.0,0.0,0.0,0.0,10.0,0.00506000607115,0.0211721306661,0.00732369299772,1.0,0.0,0.0,0.0,1.0,0.0,0.0,0.0,1.0,0.0047900390625,0.143701171875,10.0614770508,0.1,0.0,0.0,0.0,0.1,0.0,0.0,0.0,0.1
1446040023491869532,301,1446040023488574981,robocape,3.79789944864,4.36599932659,38.6599505449,0.0,10.0,0.0,0.0,0.0,10.0,0.0,0.0,0.0,10.0,0.00479368996214,0.0215716048296,0.0067910607797,1.0,0.0,0.0,0.0,1.0,0.0,0.0,0.0,1.0,0.00838256835938,0.13412109375,10.0495019531,0.1,0.0,0.0,0.0,0.1,0.0,0.0,0.0,0.1
1446040023525108032,302,1446040023521970987,robocape,3.79226665082,4.39550257634,38.5513560246,0.0,10.0,0.0,0.0,0.0,10.0,0.0,0.0,0.0,10.0,0.00506000607115,0.0209058145571,0.00692421883421,1.0,0.0,0.0,0.0,1.0,0.0,0.0,0.0,1.0,0.0311352539063,0.136516113281,10.0363293457,0.1,0.0,0.0,0.0,0.1,0.0,0.0,0.0,0.1
1446040023558741032,303,1446040023555623054,robocape,3.78443456017,4.42412635816,38.4438796837,0.0,10.0,0.0,0.0,0.0,10.0,0.0,0.0,0.0,10.0,0.00386158358061,0.0205063403936,0.00719053494321,1.0,0.0,0.0,0.0,1.0,0.0,0.0,0.0,1.0,0.0167651367188,0.13412109375,10.0267492676,0.1,0.0,0.0,0.0,0.1,0.0,0.0,0.0,0.1
1446040023592015282,304,1446040023588716030,robocape,3.77667939387,4.45416616856,38.3373873257,0.0,10.0,0.0,0.0,0.0,10.0,0.0,0.0,0.0,10.0,0.00386158358061,0.0213052887206,0.00732369299772,1.0,0.0,0.0,0.0,1.0,0.0,0.0,0.0,1.0,0.0227526855469,0.140108642578,10.0447119141,0.1,0.0,0.0,0.0,0.1,0.0,0.0,0.0,0.1
1446040023625299074,305,1446040023622030973,robocape,3.76783768518,4.48427116328,38.2297598278,0.0,10.0,0.0,0.0,0.0,10.0,0.0,0.0,0.0,10.0,0.0033289513626,0.0213052887206,0.00625842856169,1.0,0.0,0.0,0.0,1.0,0.0,0.0,0.0,1.0,0.0275427246094,0.135318603516,10.0411193848,0.1,0.0,0.0,0.0,0.1,0.0,0.0,0.0,0.1
1446040023658737741,306,1446040023655268907,robocape,3.76046692874,4.51361660332,38.1248132992,0.0,10.0,0.0,0.0,0.0,10.0,0.0,0.0,0.0,10.0,0.00399474163512,0.0210389726116,0.00745685105222,1.0,0.0,0.0,0.0,1.0,0.0,0.0,0.0,1.0,0.0203576660156,0.117355957031,10.0411193848,0.1,0.0,0.0,0.0,0.1,0.0,0.0,0.0,0.1
1446040023691888574,307,1446040023688622951,robocape,3.75484332532,4.54348053195,38.0194043478,0.0,10.0,0.0,0.0,0.0,10.0,0.0,0.0,0.0,10.0,0.00492684801665,0.0213052887206,0.0067910607797,1.0,0.0,0.0,0.0,1.0,0.0,0.0,0.0,1.0,0.0263452148438,0.118553466797,10.0363293457,0.1,0.0,0.0,0.0,0.1,0.0,0.0,0.0,0.1
1446040023725365074,308,1446040023722172021,robocape,3.75060313262,4.57394642808,37.9155902982,0.0,10.0,0.0,0.0,0.0,10.0,0.0,0.0,0.0,10.0,0.00559263828917,0.0217047628841,0.00732369299772,1.0,0.0,0.0,0.0,1.0,0.0,0.0,0.0,1.0,0.0203576660156,0.1149609375,10.0506994629,0.1,0.0,0.0,0.0,0.1,0.0,0.0,0.0,0.1
1446040023759049241,309,1446040023755640983,robocape,3.74684332467,4.60288986672,37.8114334494,0.0,10.0,0.0,0.0,0.0,10.0,0.0,0.0,0.0,10.0,0.00585895439817,0.0209058145571,0.0067910607797,1.0,0.0,0.0,0.0,1.0,0.0,0.0,0.0,1.0,0.0347277832031,0.118553466797,10.0339343262,0.1,0.0,0.0,0.0,0.1,0.0,0.0,0.0,0.1
1446040023792085324,310,1446040023788877964,robocape,3.74394093359,4.63321688645,37.7086742126,0.0,10.0,0.0,0.0,0.0,10.0,0.0,0.0,0.0,10.0,0.00625842856169,0.0217047628841,0.00719053494321,1.0,0.0,0.0,0.0,1.0,0.0,0.0,0.0,1.0,0.028740234375,0.119750976563,10.0375268555,0.1,0.0,0.0,0.0,0.1,0.0,0.0,0.0,0.1
1446040023825118074,311,1446040023822077989,robocape,3.74215829487,4.6628841004,37.6074268265,0.0,10.0,0.0,0.0,0.0,10.0,0.0,0.0,0.0,10.0,0.0067910607797,0.0214384467751,0.00772316716123,1.0,0.0,0.0,0.0,1.0,0.0,0.0,0.0,1.0,0.01916015625,0.122145996094,10.0279467773,0.1,0.0,0.0,0.0,0.1,0.0,0.0,0.0,0.1
1446040023858883366,312,1446040023855232954,robocape,3.7383363384,4.69354106679,37.5061804608,0.0,10.0,0.0,0.0,0.0,10.0,0.0,0.0,0.0,10.0,0.00572579634367,0.0219710789932,0.00732369299772,1.0,0.0,0.0,0.0,1.0,0.0,0.0,0.0,1.0,0.0275427246094,0.130528564453,10.0435144043,0.1,0.0,0.0,0.0,0.1,0.0,0.0,0.0,0.1
1446040023892129657,313,1446040023888806104,robocape,3.73370312338,4.72143209079,37.4042797925,0.0,10.0,0.0,0.0,0.0,10.0,0.0,0.0,0.0,10.0,0.00532632218016,0.0205063403936,0.0066579027252,1.0,0.0,0.0,0.0,1.0,0.0,0.0,0.0,1.0,0.0227526855469,0.128133544922,10.0423168945,0.1,0.0,0.0,0.0,0.1,0.0,0.0,0.0,0.1
1446040023924935366,314,1446040023921889066,robocape,3.72837375495,4.7494845496,37.3032441739,0.0,10.0,0.0,0.0,0.0,10.0,0.0,0.0,0.0,10.0,0.00492684801665,0.0206394984481,0.0067910607797,1.0,0.0,0.0,0.0,1.0,0.0,0.0,0.0,1.0,0.0179626464844,0.128133544922,10.0506994629,0.1,0.0,0.0,0.0,0.1,0.0,0.0,0.0,0.1
1446040023958777074,315,1446040023955240011,robocape,3.72318086193,4.77787551549,37.2039860911,0.0,10.0,0.0,0.0,0.0,10.0,0.0,0.0,0.0,10.0,0.00492684801665,0.0209058145571,0.00745685105222,1.0,0.0,0.0,0.0,1.0,0.0,0.0,0.0,1.0,0.0167651367188,0.132923583984,10.0279467773,0.1,0.0,0.0,0.0,0.1,0.0,0.0,0.0,0.1
1446040023992042991,316,1446040023988778114,robocape,3.71774899785,4.80749379011,37.1049348717,0.0,10.0,0.0,0.0,0.0,10.0,0.0,0.0,0.0,10.0,0.00479368996214,0.0215716048296,0.00719053494321,1.0,0.0,0.0,0.0,1.0,0.0,0.0,0.0,1.0,0.0167651367188,0.136516113281,10.0590820312,0.1,0.0,0.0,0.0,0.1,0.0,0.0,0.0,0.1
1446040024025133282,317,1446040024022016048,robocape,3.71181853285,4.83606197756,37.005974817,0.0,10.0,0.0,0.0,0.0,10.0,0.0,0.0,0.0,10.0,0.00452737385313,0.0210389726116,0.00692421883421,1.0,0.0,0.0,0.0,1.0,0.0,0.0,0.0,1.0,0.0239501953125,0.13412109375,10.0710571289,0.1,0.0,0.0,0.0,0.1,0.0,0.0,0.0,0.1
1446040024058856949,318,1446040024055339097,robocape,3.70865462531,4.86589587256,36.906740385,0.0,10.0,0.0,0.0,0.0,10.0,0.0,0.0,0.0,10.0,0.00599211245268,0.0217047628841,0.00639158661619,1.0,0.0,0.0,0.0,1.0,0.0,0.0,0.0,1.0,0.0155676269531,0.118553466797,10.0746496582,0.1,0.0,0.0,0.0,0.1,0.0,0.0,0.0,0.1
1446040024092019116,319,1446040024088773012,robocape,3.7056187168,4.89505548086,36.8092154555,0.0,10.0,0.0,0.0,0.0,10.0,0.0,0.0,0.0,10.0,0.00599211245268,0.0214384467751,0.00705737688871,1.0,0.0,0.0,0.0,1.0,0.0,0.0,0.0,1.0,0.0227526855469,0.131726074219,10.0411193848,0.1,0.0,0.0,0.0,0.1,0.0,0.0,0.0,0.1
1446040024125304824,320,1446040024122042894,robocape,3.70176976563,4.92398341928,36.7111181285,0.0,10.0,0.0,0.0,0.0,10.0,0.0,0.0,0.0,10.0,0.00559263828917,0.0213052887206,0.00639158661619,1.0,0.0,0.0,0.0,1.0,0.0,0.0,0.0,1.0,0.0263452148438,0.126936035156,10.0435144043,0.1,0.0,0.0,0.0,0.1,0.0,0.0,0.0,0.1
1446040024158890949,321,1446040024155287027,robocape,3.69903175041,4.95328848822,36.6143070052,0.0,10.0,0.0,0.0,0.0,10.0,0.0,0.0,0.0,10.0,0.00612527050718,0.0215716048296,0.0067910607797,1.0,0.0,0.0,0.0,1.0,0.0,0.0,0.0,1.0,0.0299377441406,0.129331054688,10.0291442871,0.1,0.0,0.0,0.0,0.1,0.0,0.0,0.0,0.1
1446040024192446783,322,1446040024189250946,robocape,3.6960771096,4.98226859947,36.5180555711,0.0,10.0,0.0,0.0,0.0,10.0,0.0,0.0,0.0,10.0,0.00599211245268,0.0214384467751,0.0067910607797,1.0,0.0,0.0,0.0,1.0,0.0,0.0,0.0,1.0,0.0155676269531,0.136516113281,10.0303417969,0.1,0.0,0.0,0.0,0.1,0.0,0.0,0.0,0.1
1446040024225221283,323,1446040024222203016,robocape,3.69218489561,5.01139234663,36.4228451909,0.0,10.0,0.0,0.0,0.0,10.0,0.0,0.0,0.0,10.0,0.00545948023466,0.0215716048296,0.00705737688871,1.0,0.0,0.0,0.0,1.0,0.0,0.0,0.0,1.0,0.0143701171875,0.120948486328,10.0483044434,0.1,0.0,0.0,0.0,0.1,0.0,0.0,0.0,0.1
1446040024259022241,324,1446040024255477905,robocape,3.68854900718,5.04048187665,36.3277315767,0.0,10.0,0.0,0.0,0.0,10.0,0.0,0.0,0.0,10.0,0.00559263828917,0.0215716048296,0.0067910607797,1.0,0.0,0.0,0.0,1.0,0.0,0.0,0.0,1.0,0.01916015625,0.117355957031,10.0471069336,0.1,0.0,0.0,0.0,0.1,0.0,0.0,0.0,0.1
1446040024291988991,325,1446040024288712978,robocape,3.68368309887,5.06848930983,36.2331292179,0.0,10.0,0.0,0.0,0.0,10.0,0.0,0.0,0.0,10.0,0.00492684801665,0.0210389726116,0.0067910607797,1.0,0.0,0.0,0.0,1.0,0.0,0.0,0.0,1.0,0.0239501953125,0.138911132813,10.0279467773,0.1,0.0,0.0,0.0,0.1,0.0,0.0,0.0,0.1
1446040024325061158,326,1446040024322026014,robocape,3.6793689432,5.09693364263,36.1390977077,0.0,10.0,0.0,0.0,0.0,10.0,0.0,0.0,0.0,10.0,0.00519316412565,0.0213052887206,0.0067910607797,1.0,0.0,0.0,0.0,1.0,0.0,0.0,0.0,1.0,0.0299377441406,0.138911132813,10.0411193848,0.1,0.0,0.0,0.0,0.1,0.0,0.0,0.0,0.1
1446040024358410199,327,1446040024355214118,robocape,3.67388684635,5.12525214737,36.0463050282,0.0,10.0,0.0,0.0,0.0,10.0,0.0,0.0,0.0,10.0,0.00452737385313,0.0213052887206,0.00719053494321,1.0,0.0,0.0,0.0,1.0,0.0,0.0,0.0,1.0,0.0155676269531,0.131726074219,10.0387243652,0.1,0.0,0.0,0.0,0.1,0.0,0.0,0.0,0.1
1446040024391901408,328,1446040024388585090,robocape,3.66870023732,5.15249093595,35.9539965002,0.0,10.0,0.0,0.0,0.0,10.0,0.0,0.0,0.0,10.0,0.00466053190764,0.0207726565026,0.00719053494321,1.0,0.0,0.0,0.0,1.0,0.0,0.0,0.0,1.0,0.00598754882813,0.129331054688,10.0495019531,0.1,0.0,0.0,0.0,0.1,0.0,0.0,0.0,0.1
1446040024425163533,329,1446040024422135114,robocape,3.66398849761,5.18024457731,35.861319902,0.0,10.0,0.0,0.0,0.0,10.0,0.0,0.0,0.0,10.0,0.00492684801665,0.0210389726116,0.0066579027252,1.0,0.0,0.0,0.0,1.0,0.0,0.0,0.0,1.0,0.0203576660156,0.13412109375,10.0578845215,0.1,0.0,0.0,0.0,0.1,0.0,0.0,0.0,0.1
1446040024458367658,330,1446040024455343961,robocape,3.65961310931,5.20839958921,35.7696561077,0.0,10.0,0.0,0.0,0.0,10.0,0.0,0.0,0.0,10.0,0.00506000607115,0.0213052887206,0.00692421883421,1.0,0.0,0.0,0.0,1.0,0.0,0.0,0.0,1.0,0.00718505859375,0.13412109375,10.0447119141,0.1,0.0,0.0,0.0,0.1,0.0,0.0,0.0,0.1
1446040024492600991,331,1446040024489320993,robocape,3.65644657704,5.23632899125,35.6773446896,0.0,10.0,0.0,0.0,0.0,10.0,0.0,0.0,0.0,10.0,0.00572579634367,0.0211721306661,0.00625842856169,1.0,0.0,0.0,0.0,1.0,0.0,0.0,0.0,1.0,0.0143701171875,0.131726074219,10.0471069336,0.1,0.0,0.0,0.0,0.1,0.0,0.0,0.0,0.1
1446040024525075116,332,1446040024521966934,robocape,3.65411946772,5.26491365566,35.5860502542,0.0,10.0,0.0,0.0,0.0,10.0,0.0,0.0,0.0,10.0,0.00612527050718,0.0215716048296,0.00652474467069,1.0,0.0,0.0,0.0,1.0,0.0,0.0,0.0,1.0,0.0167651367188,0.1149609375,10.0518969727,0.1,0.0,0.0,0.0,0.1,0.0,0.0,0.0,0.1
1446040024559060324,333,1446040024555982112,robocape,3.6523122909,5.29294556829,35.4950147614,0.0,10.0,0.0,0.0,0.0,10.0,0.0,0.0,0.0,10.0,0.00639158661619,0.0213052887206,0.00639158661619,1.0,0.0,0.0,0.0,1.0,0.0,0.0,0.0,1.0,0.0323327636719,0.123343505859,10.0447119141,0.1,0.0,0.0,0.0,0.1,0.0,0.0,0.0,0.1
1446040024592320616,334,1446040024589010953,robocape,3.64835879092,5.32107150218,35.4056683108,0.0,10.0,0.0,0.0,0.0,10.0,0.0,0.0,0.0,10.0,0.00519316412565,0.0214384467751,0.00705737688871,1.0,0.0,0.0,0.0,1.0,0.0,0.0,0.0,1.0,0.0299377441406,0.130528564453,10.0542919922,0.1,0.0,0.0,0.0,0.1,0.0,0.0,0.0,0.1
1446040024624964741,335,1446040024621876955,robocape,3.64514316397,5.34893557772,35.3161150218,0.0,10.0,0.0,0.0,0.0,10.0,0.0,0.0,0.0,10.0,0.00559263828917,0.0213052887206,0.0066579027252,1.0,0.0,0.0,0.0,1.0,0.0,0.0,0.0,1.0,0.0131726074219,0.126936035156,10.0411193848,0.1,0.0,0.0,0.0,0.1,0.0,0.0,0.0,0.1
1446040024658616074,336,1446040024655209064,robocape,3.64069948089,5.37749304851,35.2271041585,0.0,10.0,0.0,0.0,0.0,10.0,0.0,0.0,0.0,10.0,0.00492684801665,0.0217047628841,0.0066579027252,1.0,0.0,0.0,0.0,1.0,0.0,0.0,0.0,1.0,0.0131726074219,0.124541015625,10.0375268555,0.1,0.0,0.0,0.0,0.1,0.0,0.0,0.0,0.1
1446040024691940783,337,1446040024688734054,robocape,3.63658559413,5.40443080937,35.1389770085,0.0,10.0,0.0,0.0,0.0,10.0,0.0,0.0,0.0,10.0,0.00506000607115,0.0209058145571,0.00692421883421,1.0,0.0,0.0,0.0,1.0,0.0,0.0,0.0,1.0,0.0227526855469,0.123343505859,10.0674645996,0.1,0.0,0.0,0.0,0.1,0.0,0.0,0.0,0.1
1446040024725104491,338,1446040024722062110,robocape,3.63183433201,5.43148438249,35.0522791812,0.0,10.0,0.0,0.0,0.0,10.0,0.0,0.0,0.0,10.0,0.00466053190764,0.0210389726116,0.00745685105222,1.0,0.0,0.0,0.0,1.0,0.0,0.0,0.0,1.0,0.0251477050781,0.132923583984,10.0734521484,0.1,0.0,0.0,0.0,0.1,0.0,0.0,0.0,0.1
1446040024758815283,339,1446040024755462884,robocape,3.62636471082,5.45872820308,34.9660762522,0.0,10.0,0.0,0.0,0.0,10.0,0.0,0.0,0.0,10.0,0.00426105774413,0.0211721306661,0.00745685105222,1.0,0.0,0.0,0.0,1.0,0.0,0.0,0.0,1.0,0.0275427246094,0.126936035156,10.0459094238,0.1,0.0,0.0,0.0,0.1,0.0,0.0,0.0,0.1
1446040024791873949,340,1446040024788768053,robocape,3.62009124761,5.4849736043,34.8793782563,0.0,10.0,0.0,0.0,0.0,10.0,0.0,0.0,0.0,10.0,0.00386158358061,0.0206394984481,0.00692421883421,1.0,0.0,0.0,0.0,1.0,0.0,0.0,0.0,1.0,0.00359252929688,0.120948486328,10.0327368164,0.1,0.0,0.0,0.0,0.1,0.0,0.0,0.0,0.1
1446040024825122991,341,1446040024822088003,robocape,3.61483500228,5.51119654687,34.7926882828,0.0,10.0,0.0,0.0,0.0,10.0,0.0,0.0,0.0,10.0,0.00439421579863,0.0206394984481,0.0066579027252,1.0,0.0,0.0,0.0,1.0,0.0,0.0,0.0,1.0,0.00718505859375,0.120948486328,10.0219592285,0.1,0.0,0.0,0.0,0.1,0.0,0.0,0.0,0.1
1446040024858515366,342,1446040024855174064,robocape,3.61025559886,5.53750068338,34.7078717847,0.0,10.0,0.0,0.0,0.0,10.0,0.0,0.0,0.0,10.0,0.00466053190764,0.0207726565026,0.00745685105222,1.0,0.0,0.0,0.0,1.0,0.0,0.0,0.0,1.0,0.0215551757813,0.100590820313,10.0375268555,0.1,0.0,0.0,0.0,0.1,0.0,0.0,0.0,0.1
1446040024891829908,343,1446040024888674020,robocape,3.60641820647,5.56557015996,34.6229019628,0.0,10.0,0.0,0.0,0.0,10.0,0.0,0.0,0.0,10.0,0.00506000607115,0.0217047628841,0.00705737688871,1.0,0.0,0.0,0.0,1.0,0.0,0.0,0.0,1.0,0.0215551757813,0.130528564453,10.0411193848,0.1,0.0,0.0,0.0,0.1,0.0,0.0,0.0,0.1
1446040024925042325,344,1446040024922017097,robocape,3.60390106227,5.59178978481,34.5385366586,0.0,10.0,0.0,0.0,0.0,10.0,0.0,0.0,0.0,10.0,0.00572579634367,0.0207726565026,0.00719053494321,1.0,0.0,0.0,0.0,1.0,0.0,0.0,0.0,1.0,0.0215551757813,0.117355957031,10.0327368164,0.1,0.0,0.0,0.0,0.1,0.0,0.0,0.0,0.1
1446040024958687158,345,1446040024955372095,robocape,3.60112624088,5.61950517827,34.4542367035,0.0,10.0,0.0,0.0,0.0,10.0,0.0,0.0,0.0,10.0,0.00559263828917,0.0215716048296,0.00692421883421,1.0,0.0,0.0,0.0,1.0,0.0,0.0,0.0,1.0,0.0143701171875,0.128133544922,10.0315393066,0.1,0.0,0.0,0.0,0.1,0.0,0.0,0.0,0.1
1446040024991870325,346,1446040024988681077,robocape,3.59768910277,5.64685053566,34.3710790035,0.0,10.0,0.0,0.0,0.0,10.0,0.0,0.0,0.0,10.0,0.00519316412565,0.0214384467751,0.00732369299772,1.0,0.0,0.0,0.0,1.0,0.0,0.0,0.0,1.0,0.0179626464844,0.125738525391,10.0375268555,0.1,0.0,0.0,0.0,0.1,0.0,0.0,0.0,0.1
1446040025025112491,347,1446040025022016048,robocape,3.59477128228,5.67364910225,34.2881101301,0.0,10.0,0.0,0.0,0.0,10.0,0.0,0.0,0.0,10.0,0.00545948023466,0.0211721306661,0.00719053494321,1.0,0.0,0.0,0.0,1.0,0.0,0.0,0.0,1.0,0.0263452148438,0.107775878906,10.0614770508,0.1,0.0,0.0,0.0,0.1,0.0,0.0,0.0,0.1
1446040025058513491,348,1446040025055270910,robocape,3.59156729774,5.69994032468,34.2048665055,0.0,10.0,0.0,0.0,0.0,10.0,0.0,0.0,0.0,10.0,0.00532632218016,0.0209058145571,0.0067910607797,1.0,0.0,0.0,0.0,1.0,0.0,0.0,0.0,1.0,0.0119750976563,0.124541015625,10.0530944824,0.1,0.0,0.0,0.0,0.1,0.0,0.0,0.0,0.1
1446040025092023658,349,1446040025088838100,robocape,3.58732041292,5.72673598485,34.1213977286,0.0,10.0,0.0,0.0,0.0,10.0,0.0,0.0,0.0,10.0,0.00479368996214,0.0211721306661,0.00639158661619,1.0,0.0,0.0,0.0,1.0,0.0,0.0,0.0,1.0,0.0335302734375,0.122145996094,10.0447119141,0.1,0.0,0.0,0.0,0.1,0.0,0.0,0.0,0.1
1446040025125162825,350,1446040025121958017,robocape,3.58239519331,5.75343576675,34.0388404839,0.0,10.0,0.0,0.0,0.0,10.0,0.0,0.0,0.0,10.0,0.00439421579863,0.0211721306661,0.0066579027252,1.0,0.0,0.0,0.0,1.0,0.0,0.0,0.0,1.0,0.0251477050781,0.120948486328,10.0339343262,0.1,0.0,0.0,0.0,0.1,0.0,0.0,0.0,0.1
1446040025171806408,351,1446040025168598890,robocape,3.57667148324,5.77916982553,33.958550832,0.0,10.0,0.0,0.0,0.0,10.0,0.0,0.0,0.0,10.0,0.00386158358061,0.0207726565026,0.00772316716123,1.0,0.0,0.0,0.0,1.0,0.0,0.0,0.0,1.0,0.0203576660156,0.122145996094,10.0387243652,0.1,0.0,0.0,0.0,0.1,0.0,0.0,0.0,0.1
1446040025195394366,352,1446040025192131042,robocape,3.57136153907,5.80470729568,33.8772744644,0.0,10.0,0.0,0.0,0.0,10.0,0.0,0.0,0.0,10.0,0.00412789968962,0.0206394984481,0.00692421883421,1.0,0.0,0.0,0.0,1.0,0.0,0.0,0.0,1.0,0.00718505859375,0.119750976563,10.039921875,0.1,0.0,0.0,0.0,0.1,0.0,0.0,0.0,0.1
1446040025225063783,353,1446040025221992015,robocape,3.56581877954,5.83096608648,33.7962285098,0.0,10.0,0.0,0.0,0.0,10.0,0.0,0.0,0.0,10.0,0.00399474163512,0.0210389726116,0.0067910607797,1.0,0.0,0.0,0.0,1.0,0.0,0.0,0.0,1.0,0.0179626464844,0.111368408203,10.0363293457,0.1,0.0,0.0,0.0,0.1,0.0,0.0,0.0,0.1
1446040025259036991,354,1446040025255698919,robocape,3.56144539148,5.85757985397,33.7167907628,0.0,10.0,0.0,0.0,0.0,10.0,0.0,0.0,0.0,10.0,0.00452737385313,0.0213052887206,0.00745685105222,1.0,0.0,0.0,0.0,1.0,0.0,0.0,0.0,1.0,0.01916015625,0.1149609375,10.0291442871,0.1,0.0,0.0,0.0,0.1,0.0,0.0,0.0,0.1
1446040025291834908,355,1446040025288738965,robocape,3.5586291437,5.88388388463,33.6377499115,0.0,10.0,0.0,0.0,0.0,10.0,0.0,0.0,0.0,10.0,0.00532632218016,0.0211721306661,0.00745685105222,1.0,0.0,0.0,0.0,1.0,0.0,0.0,0.0,1.0,0.0227526855469,0.111368408203,10.0255517578,0.1,0.0,0.0,0.0,0.1,0.0,0.0,0.0,0.1
1446040025325294075,356,1446040025322266101,robocape,3.55745829046,5.90975815062,33.557457943,0.0,10.0,0.0,0.0,0.0,10.0,0.0,0.0,0.0,10.0,0.00625842856169,0.0209058145571,0.00652474467069,1.0,0.0,0.0,0.0,1.0,0.0,0.0,0.0,1.0,0.0131726074219,0.113763427734,10.039921875,0.1,0.0,0.0,0.0,0.1,0.0,0.0,0.0,0.1
1446040025358464741,357,1446040025355295896,robocape,3.55521075934,5.93570132319,33.4792339073,0.0,10.0,0.0,0.0,0.0,10.0,0.0,0.0,0.0,10.0,0.00559263828917,0.0210389726116,0.00745685105222,1.0,0.0,0.0,0.0,1.0,0.0,0.0,0.0,1.0,0.0251477050781,0.132923583984,10.0566870117,0.1,0.0,0.0,0.0,0.1,0.0,0.0,0.0,0.1
1446040025392411491,358,1446040025388861894,robocape,3.55241908633,5.96189912955,33.400728338,0.0,10.0,0.0,0.0,0.0,10.0,0.0,0.0,0.0,10.0,0.00532632218016,0.0211721306661,0.00705737688871,1.0,0.0,0.0,0.0,1.0,0.0,0.0,0.0,1.0,0.0143701171875,0.113763427734,10.0435144043,0.1,0.0,0.0,0.0,0.1,0.0,0.0,0.0,0.1
1446040025426419783,359,1446040025422787904,robocape,3.54834529737,5.98782713189,33.3221540614,0.0,10.0,0.0,0.0,0.0,10.0,0.0,0.0,0.0,10.0,0.00466053190764,0.0210389726116,0.0067910607797,1.0,0.0,0.0,0.0,1.0,0.0,0.0,0.0,1.0,0.01916015625,0.112565917969,10.0387243652,0.1,0.0,0.0,0.0,0.1,0.0,0.0,0.0,0.1
1446040025458384575,360,1446040025455157041,robocape,3.54555219888,6.0139722696,33.2437557875,0.0,10.0,0.0,0.0,0.0,10.0,0.0,0.0,0.0,10.0,0.00532632218016,0.0211721306661,0.0066579027252,1.0,0.0,0.0,0.0,1.0,0.0,0.0,0.0,1.0,0.0227526855469,0.124541015625,10.0375268555,0.1,0.0,0.0,0.0,0.1,0.0,0.0,0.0,0.1
1446040025491834450,361,1446040025488735914,robocape,3.54138886814,6.04022266041,33.1669453782,0.0,10.0,0.0,0.0,0.0,10.0,0.0,0.0,0.0,10.0,0.00452737385313,0.0213052887206,0.00732369299772,1.0,0.0,0.0,0.0,1.0,0.0,0.0,0.0,1.0,0.0359252929688,0.124541015625,10.0387243652,0.1,0.0,0.0,0.0,0.1,0.0,0.0,0.0,0.1
1446040025525070492,362,1446040025521964073,robocape,3.53855049562,6.06589446132,33.0907324809,0.0,10.0,0.0,0.0,0.0,10.0,0.0,0.0,0.0,10.0,0.00519316412565,0.0210389726116,0.00745685105222,1.0,0.0,0.0,0.0,1.0,0.0,0.0,0.0,1.0,0.0215551757813,0.125738525391,10.0435144043,0.1,0.0,0.0,0.0,0.1,0.0,0.0,0.0,0.1
1446040025559185533,363,1446040025555886030,robocape,3.53599170873,6.09222388374,33.0123541626,0.0,10.0,0.0,0.0,0.0,10.0,0.0,0.0,0.0,10.0,0.00545948023466,0.0213052887206,0.00599211245268,1.0,0.0,0.0,0.0,1.0,0.0,0.0,0.0,1.0,0.009580078125,0.104183349609,10.0291442871,0.1,0.0,0.0,0.0,0.1,0.0,0.0,0.0,0.1
1446040025591739242,364,1446040025588640928,robocape,3.53386064047,6.11838790256,32.935776415,0.0,10.0,0.0,0.0,0.0,10.0,0.0,0.0,0.0,10.0,0.00559263828917,0.0213052887206,0.0067910607797,1.0,0.0,0.0,0.0,1.0,0.0,0.0,0.0,1.0,0.0203576660156,0.116158447266,10.0375268555,0.1,0.0,0.0,0.0,0.1,0.0,0.0,0.0,0.1
1446040025625675992,365,1446040025622410058,robocape,3.53102211843,6.14422768627,32.8598113779,0.0,10.0,0.0,0.0,0.0,10.0,0.0,0.0,0.0,10.0,0.00519316412565,0.0211721306661,0.00692421883421,1.0,0.0,0.0,0.0,1.0,0.0,0.0,0.0,1.0,0.0239501953125,0.116158447266,10.0566870117,0.1,0.0,0.0,0.0,0.1,0.0,0.0,0.0,0.1
1446040025658583242,366,1446040025655201911,robocape,3.52865237871,6.1708285426,32.7835578393,0.0,10.0,0.0,0.0,0.0,10.0,0.0,0.0,0.0,10.0,0.00545948023466,0.0215716048296,0.00652474467069,1.0,0.0,0.0,0.0,1.0,0.0,0.0,0.0,1.0,0.028740234375,0.110170898438,10.0578845215,0.1,0.0,0.0,0.0,0.1,0.0,0.0,0.0,0.1
1446040025691845367,367,1446040025688760042,robocape,3.52671143966,6.19726351265,32.7090920876,0.0,10.0,0.0,0.0,0.0,10.0,0.0,0.0,0.0,10.0,0.00559263828917,0.0215716048296,0.00732369299772,1.0,0.0,0.0,0.0,1.0,0.0,0.0,0.0,1.0,0.0215551757813,0.125738525391,10.0506994629,0.1,0.0,0.0,0.0,0.1,0.0,0.0,0.0,0.1
1446040025724950242,368,1446040025721885919,robocape,3.52431573719,6.2233737842,32.6352238968,0.0,10.0,0.0,0.0,0.0,10.0,0.0,0.0,0.0,10.0,0.00532632218016,0.0214384467751,0.00745685105222,1.0,0.0,0.0,0.0,1.0,0.0,0.0,0.0,1.0,0.0131726074219,0.113763427734,10.0387243652,0.1,0.0,0.0,0.0,0.1,0.0,0.0,0.0,0.1
1446040025763406200,369,1446040025760301113,robocape,3.52157230156,6.24901958863,32.560529035,0.0,10.0,0.0,0.0,0.0,10.0,0.0,0.0,0.0,10.0,0.00519316412565,0.0211721306661,0.0067910607797,1.0,0.0,0.0,0.0,1.0,0.0,0.0,0.0,1.0,0.0239501953125,0.116158447266,10.0483044434,0.1,0.0,0.0,0.0,0.1,0.0,0.0,0.0,0.1
1446040025791799658,370,1446040025788767099,robocape,3.51837916582,6.27510047842,32.4864644864,0.0,10.0,0.0,0.0,0.0,10.0,0.0,0.0,0.0,10.0,0.00492684801665,0.0214384467751,0.00692421883421,1.0,0.0,0.0,0.0,1.0,0.0,0.0,0.0,1.0,0.0131726074219,0.118553466797,10.0219592285,0.1,0.0,0.0,0.0,0.1,0.0,0.0,0.0,0.1
1446040025825127492,371,1446040025822092056,robocape,3.51630331597,6.30031543426,32.4134331078,0.0,10.0,0.0,0.0,0.0,10.0,0.0,0.0,0.0,10.0,0.00545948023466,0.0210389726116,0.00732369299772,1.0,0.0,0.0,0.0,1.0,0.0,0.0,0.0,1.0,0.0203576660156,0.107775878906,10.0674645996,0.1,0.0,0.0,0.0,0.1,0.0,0.0,0.0,0.1
1446040025858226283,372,1446040025855154037,robocape,3.51415804745,6.32580777254,32.3398342539,0.0,10.0,0.0,0.0,0.0,10.0,0.0,0.0,0.0,10.0,0.00545948023466,0.0211721306661,0.0067910607797,1.0,0.0,0.0,0.0,1.0,0.0,0.0,0.0,1.0,0.01916015625,0.105380859375,10.0483044434,0.1,0.0,0.0,0.0,0.1,0.0,0.0,0.0,0.1
1446040025891963533,373,1446040025888892889,robocape,3.51315479078,6.35092289149,32.2675228992,0.0,10.0,0.0,0.0,0.0,10.0,0.0,0.0,0.0,10.0,0.00599211245268,0.0210389726116,0.00732369299772,1.0,0.0,0.0,0.0,1.0,0.0,0.0,0.0,1.0,0.0119750976563,0.0993933105469,10.0315393066,0.1,0.0,0.0,0.0,0.1,0.0,0.0,0.0,0.1
1446040025924931075,374,1446040025921889066,robocape,3.51159626771,6.37629774327,32.1948748377,0.0,10.0,0.0,0.0,0.0,10.0,0.0,0.0,0.0,10.0,0.00572579634367,0.0211721306661,0.00692421883421,1.0,0.0,0.0,0.0,1.0,0.0,0.0,0.0,1.0,0.0239501953125,0.1149609375,10.0435144043,0.1,0.0,0.0,0.0,0.1,0.0,0.0,0.0,0.1
1446040025958333658,375,1446040025955316066,robocape,3.51024201675,6.40142676568,32.1218644248,0.0,10.0,0.0,0.0,0.0,10.0,0.0,0.0,0.0,10.0,0.00585895439817,0.0210389726116,0.00652474467069,1.0,0.0,0.0,0.0,1.0,0.0,0.0,0.0,1.0,0.00718505859375,0.123343505859,10.0566870117,0.1,0.0,0.0,0.0,0.1,0.0,0.0,0.0,0.1
1446040025991857825,376,1446040025988724946,robocape,3.50924402252,6.42645149359,32.049915444,0.0,10.0,0.0,0.0,0.0,10.0,0.0,0.0,0.0,10.0,0.00599211245268,0.0210389726116,0.00692421883421,1.0,0.0,0.0,0.0,1.0,0.0,0.0,0.0,1.0,0.0203576660156,0.125738525391,10.0459094238,0.1,0.0,0.0,0.0,0.1,0.0,0.0,0.0,0.1
1446040026025164533,377,1446040026022041082,robocape,3.50766038753,6.45074563602,31.9773431617,0.0,10.0,0.0,0.0,0.0,10.0,0.0,0.0,0.0,10.0,0.00572579634367,0.0206394984481,0.00639158661619,1.0,0.0,0.0,0.0,1.0,0.0,0.0,0.0,1.0,0.0107775878906,0.112565917969,10.0363293457,0.1,0.0,0.0,0.0,0.1,0.0,0.0,0.0,0.1
1446040026058316242,378,1446040026055226087,robocape,3.50567580578,6.47544282001,31.9058540424,0.0,10.0,0.0,0.0,0.0,10.0,0.0,0.0,0.0,10.0,0.00545948023466,0.0209058145571,0.0067910607797,1.0,0.0,0.0,0.0,1.0,0.0,0.0,0.0,1.0,0.0143701171875,0.119750976563,10.0495019531,0.1,0.0,0.0,0.0,0.1,0.0,0.0,0.0,0.1
1446040026091931450,379,1446040026088835000,robocape,3.50227460817,6.49978435564,31.8354117317,0.0,10.0,0.0,0.0,0.0,10.0,0.0,0.0,0.0,10.0,0.00466053190764,0.0207726565026,0.00719053494321,1.0,0.0,0.0,0.0,1.0,0.0,0.0,0.0,1.0,0.0179626464844,0.126936035156,10.0506994629,0.1,0.0,0.0,0.0,0.1,0.0,0.0,0.0,0.1
1446040026125408450,380,1446040026122006893,robocape,3.50116187748,6.52434996255,31.7650757615,0.0,10.0,0.0,0.0,0.0,10.0,0.0,0.0,0.0,10.0,0.00585895439817,0.0209058145571,0.00705737688871,1.0,0.0,0.0,0.0,1.0,0.0,0.0,0.0,1.0,0.0215551757813,0.111368408203,10.0530944824,0.1,0.0,0.0,0.0,0.1,0.0,0.0,0.0,0.1
1446040026158320992,381,1446040026155162096,robocape,3.49860930605,6.54984159266,31.6955997947,0.0,10.0,0.0,0.0,0.0,10.0,0.0,0.0,0.0,10.0,0.00506000607115,0.0214384467751,0.00732369299772,1.0,0.0,0.0,0.0,1.0,0.0,0.0,0.0,1.0,0.00598754882813,0.119750976563,10.0483044434,0.1,0.0,0.0,0.0,0.1,0.0,0.0,0.0,0.1
1446040026191893575,382,1446040026188821077,robocape,3.49654403528,6.5763306753,31.6260265406,0.0,10.0,0.0,0.0,0.0,10.0,0.0,0.0,0.0,10.0,0.00532632218016,0.0219710789932,0.00705737688871,1.0,0.0,0.0,0.0,1.0,0.0,0.0,0.0,1.0,0.009580078125,0.120948486328,10.0171691895,0.1,0.0,0.0,0.0,0.1,0.0,0.0,0.0,0.1
1446040026225485950,383,1446040026222451925,robocape,3.49559352756,6.60144971088,31.5574327657,0.0,10.0,0.0,0.0,0.0,10.0,0.0,0.0,0.0,10.0,0.00585895439817,0.0213052887206,0.00745685105222,1.0,0.0,0.0,0.0,1.0,0.0,0.0,0.0,1.0,0.00359252929688,0.129331054688,10.0578845215,0.1,0.0,0.0,0.0,0.1,0.0,0.0,0.0,0.1
1446040026258578325,384,1446040026255424976,robocape,3.49356935005,6.625062557,31.4883939345,0.0,10.0,0.0,0.0,0.0,10.0,0.0,0.0,0.0,10.0,0.00532632218016,0.0205063403936,0.00705737688871,1.0,0.0,0.0,0.0,1.0,0.0,0.0,0.0,1.0,0.0143701171875,0.118553466797,10.0459094238,0.1,0.0,0.0,0.0,0.1,0.0,0.0,0.0,0.1
1446040026291896325,385,1446040026288847923,robocape,3.4920311487,6.6496785578,31.4192533773,0.0,10.0,0.0,0.0,0.0,10.0,0.0,0.0,0.0,10.0,0.00559263828917,0.0210389726116,0.0067910607797,1.0,0.0,0.0,0.0,1.0,0.0,0.0,0.0,1.0,0.009580078125,0.118553466797,10.0518969727,0.1,0.0,0.0,0.0,0.1,0.0,0.0,0.0,0.1
1446040026325247200,386,1446040026322029113,robocape,3.48908305615,6.6757069339,31.3512205236,0.0,10.0,0.0,0.0,0.0,10.0,0.0,0.0,0.0,10.0,0.00479368996214,0.0218379209386,0.00719053494321,1.0,0.0,0.0,0.0,1.0,0.0,0.0,0.0,1.0,0.0215551757813,0.100590820313,10.0483044434,0.1,0.0,0.0,0.0,0.1,0.0,0.0,0.0,0.1
1446040026358524534,387,1446040026355315923,robocape,3.48706669279,6.70049730125,31.2825021965,0.0,10.0,0.0,0.0,0.0,10.0,0.0,0.0,0.0,10.0,0.00532632218016,0.0211721306661,0.0066579027252,1.0,0.0,0.0,0.0,1.0,0.0,0.0,0.0,1.0,0.0263452148438,0.1149609375,10.0530944824,0.1,0.0,0.0,0.0,0.1,0.0,0.0,0.0,0.1
1446040026392182450,388,1446040026389070034,robocape,3.48544056674,6.72592359017,31.2150846267,0.0,10.0,0.0,0.0,0.0,10.0,0.0,0.0,0.0,10.0,0.00545948023466,0.0215716048296,0.00719053494321,1.0,0.0,0.0,0.0,1.0,0.0,0.0,0.0,1.0,0.0239501953125,0.108973388672,10.0650695801,0.1,0.0,0.0,0.0,0.1,0.0,0.0,0.0,0.1
1446040026425111659,389,1446040026421886920,robocape,3.4832736423,6.74982462186,31.1474444205,0.0,10.0,0.0,0.0,0.0,10.0,0.0,0.0,0.0,10.0,0.00519316412565,0.0207726565026,0.00692421883421,1.0,0.0,0.0,0.0,1.0,0.0,0.0,0.0,1.0,0.0179626464844,0.113763427734,10.055489502,0.1,0.0,0.0,0.0,0.1,0.0,0.0,0.0,0.1
1446040026458340492,390,1446040026455327987,robocape,3.48217999728,6.77492467802,31.080408638,0.0,10.0,0.0,0.0,0.0,10.0,0.0,0.0,0.0,10.0,0.00572579634367,0.0214384467751,0.00705737688871,1.0,0.0,0.0,0.0,1.0,0.0,0.0,0.0,1.0,0.0239501953125,0.117355957031,10.0626745605,0.1,0.0,0.0,0.0,0.1,0.0,0.0,0.0,0.1
