%time,field.header.seq,field.header.stamp,field.header.frame_id,field.orientation.x,field.orientation.y,field.orientation.z,field.orientation.w,field.orientation_covariance0,field.orientation_covariance1,field.orientation_covariance2,field.orientation_covariance3,field.orientation_covariance4,field.orientation_covariance5,field.orientation_covariance6,field.orientation_covariance7,field.orientation_covariance8,field.angular_velocity.x,field.angular_velocity.y,field.angular_velocity.z,field.angular_velocity_covariance0,field.angular_velocity_covariance1,field.angular_velocity_covariance2,field.angular_velocity_covariance3,field.angular_velocity_covariance4,field.angular_velocity_covariance5,field.angular_velocity_covariance6,field.angular_velocity_covariance7,field.angular_velocity_covariance8,field.linear_acceleration.x,field.linear_acceleration.y,field.linear_acceleration.z,field.linear_acceleration_covariance0,field.linear_acceleration_covariance1,field.linear_acceleration_covariance2,field.linear_acceleration_covariance3,field.linear_acceleration_covariance4,field.linear_acceleration_covariance5,field.linear_acceleration_covariance6,field.linear_acceleration_covariance7,field.linear_acceleration_covariance8
1446038820279668984,1,1446038820276031017,robocape,4.93461191142,5.39315803666,30.2344072914,0.0,10.0,0.0,0.0,0.0,10.0,0.0,0.0,0.0,10.0,0.0366184649886,0.017177389031,0.016112124595,1.0,0.0,0.0,0.0,1.0,0.0,0.0,0.0,1.0,-0.0634680175781,0.36404296875,10.0219592285,0.1,0.0,0.0,0.0,0.1,0.0,0.0,0.0,0.1
1446038820309971317,2,1446038820306720972,robocape,5.04167331067,5.4124610684,30.1684640835,0.0,10.0,0.0,0.0,0.0,10.0,0.0,0.0,0.0,10.0,0.0640490242164,0.0159789665405,0.00532632218016,1.0,0.0,0.0,0.0,1.0,0.0,0.0,0.0,1.0,-0.0538879394531,0.720900878906,9.98363891602,0.1,0.0,0.0,0.0,0.1,0.0,0.0,0.0,0.1
1446038820352999859,3,1446038820341866016,robocape,5.12205303647,5.43391872733,30.1019811756,0.0,10.0,0.0,0.0,0.0,10.0,0.0,0.0,0.0,10.0,0.050200586548,0.0170442309765,0.00466053190764,1.0,0.0,0.0,0.0,1.0,0.0,0.0,0.0,1.0,-0.01916015625,0.851429443359,10.0495019531,0.1,0.0,0.0,0.0,0.1,0.0,0.0,0.0,0.1
1446038820378459151,4,1446038820375453948,robocape,5.1244497089,5.45673704206,30.0357953331,0.0,10.0,0.0,0.0,0.0,10.0,0.0,0.0,0.0,10.0,0.00932106381528,0.017710021249,0.00426105774413,1.0,0.0,0.0,0.0,1.0,0.0,0.0,0.0,1.0,-0.0443078613281,0.893342285156,10.0147741699,0.1,0.0,0.0,0.0,0.1,0.0,0.0,0.0,0.1
1446038820409926276,5,1446038820406806945,robocape,5.05885224911,5.48026791402,29.9805264041,0.0,10.0,0.0,0.0,0.0,10.0,0.0,0.0,0.0,10.0,-0.0268979270098,0.0186421276306,0.00985369603329,1.0,0.0,0.0,0.0,1.0,0.0,0.0,0.0,1.0,-0.0143701171875,0.910107421875,9.98124389648,0.1,0.0,0.0,0.0,0.1,0.0,0.0,0.0,0.1
1446038820443174026,6,1446038820440221071,robocape,4.98126225642,5.50575810016,29.9109110822,0.0,10.0,0.0,0.0,0.0,10.0,0.0,0.0,0.0,10.0,-0.0326237233535,0.0189084437396,0.00159789665405,1.0,0.0,0.0,0.0,1.0,0.0,0.0,0.0,1.0,-0.0526904296875,0.525706787109,10.0363293457,0.1,0.0,0.0,0.0,0.1,0.0,0.0,0.0,0.1
1446038820476669734,7,1446038820473700046,robocape,4.97334990266,5.54089263744,29.7729249019,0.0,10.0,0.0,0.0,0.0,10.0,0.0,0.0,0.0,10.0,0.00705737688871,0.0203731823391,-0.0367516230431,1.0,0.0,0.0,0.0,1.0,0.0,0.0,0.0,1.0,-0.102985839844,0.835861816406,10.0530944824,0.1,0.0,0.0,0.0,0.1,0.0,0.0,0.0,0.1
1446038820509675526,8,1446038820506673097,robocape,4.89779735464,5.56917311707,29.7326067259,0.0,10.0,0.0,0.0,0.0,10.0,0.0,0.0,0.0,10.0,-0.033023197517,0.0219710789932,0.0173105470855,1.0,0.0,0.0,0.0,1.0,0.0,0.0,0.0,1.0,-0.0119750976563,0.286204833984,10.1333276367,0.1,0.0,0.0,0.0,0.1,0.0,0.0,0.0,0.1
1446038820543050692,9,1446038820540083885,robocape,4.86254638292,5.59438557066,29.6787741582,0.0,10.0,0.0,0.0,0.0,10.0,0.0,0.0,0.0,10.0,-0.0113184346328,0.0197073920666,0.0099868540878,1.0,0.0,0.0,0.0,1.0,0.0,0.0,0.0,1.0,-0.0730480957031,0.411943359375,9.94531860352,0.1,0.0,0.0,0.0,0.1,0.0,0.0,0.0,0.1
1446038820576424067,10,1446038820573424100,robocape,4.89886878962,5.62269226247,29.5827765832,0.0,10.0,0.0,0.0,0.0,10.0,0.0,0.0,0.0,10.0,0.0282295075548,0.0191747598486,-0.0134489635049,1.0,0.0,0.0,0.0,1.0,0.0,0.0,0.0,1.0,-0.05748046875,0.338895263672,9.95729370117,0.1,0.0,0.0,0.0,0.1,0.0,0.0,0.0,0.1
1446038820609644692,11,1446038820606704950,robocape,4.95136513905,5.64698385798,29.5013951696,0.0,10.0,0.0,0.0,0.0,10.0,0.0,0.0,0.0,10.0,0.0360858327706,0.0178431793035,-0.00532632218016,1.0,0.0,0.0,0.0,1.0,0.0,0.0,0.0,1.0,-0.0694555664063,0.647852783203,9.97765136719,0.1,0.0,0.0,0.0,0.1,0.0,0.0,0.0,0.1
1446038820643028817,12,1446038820640014886,robocape,4.95766734651,5.66965332336,29.4292108728,0.0,10.0,0.0,0.0,0.0,10.0,0.0,0.0,0.0,10.0,0.0114515926873,0.01744370514,-0.000532632218016,1.0,0.0,0.0,0.0,1.0,0.0,0.0,0.0,1.0,-0.0682580566406,0.975970458984,9.98244140625,0.1,0.0,0.0,0.0,0.1,0.0,0.0,0.0,0.1
1446038820677129484,13,1446038820673631906,robocape,4.80139391296,5.68899407645,29.3894292154,0.0,10.0,0.0,0.0,0.0,10.0,0.0,0.0,0.0,10.0,-0.0755006169037,0.0173105470855,0.0167779148675,1.0,0.0,0.0,0.0,1.0,0.0,0.0,0.0,1.0,0.0550854492188,1.51365234375,10.0087866211,0.1,0.0,0.0,0.0,0.1,0.0,0.0,0.0,0.1
1446038820709731401,14,1446038820706646919,robocape,4.39890271774,5.72028860368,29.3340412795,0.0,10.0,0.0,0.0,0.0,10.0,0.0,0.0,0.0,10.0,-0.204264455609,0.0226368692657,0.0066579027252,1.0,0.0,0.0,0.0,1.0,0.0,0.0,0.0,1.0,0.102985839844,1.43461669922,10.0255517578,0.1,0.0,0.0,0.0,0.1,0.0,0.0,0.0,0.1
1446038820743290901,15,1446038820740072965,robocape,3.87547202032,5.74240335673,29.3065972769,0.0,10.0,0.0,0.0,0.0,10.0,0.0,0.0,0.0,10.0,-0.269645060371,0.0191747598486,0.0222373951022,1.0,0.0,0.0,0.0,1.0,0.0,0.0,0.0,1.0,0.125738525391,0.635877685547,10.0111816406,0.1,0.0,0.0,0.0,0.1,0.0,0.0,0.0,0.1
1446038820777164276,16,1446038820773701906,robocape,3.4029040119,5.76300303986,29.2837201093,0.0,10.0,0.0,0.0,0.0,10.0,0.0,0.0,0.0,10.0,-0.243812397797,0.0186421276306,0.0253000303558,1.0,0.0,0.0,0.0,1.0,0.0,0.0,0.0,1.0,-0.160466308594,-0.152083740234,9.91897338867,0.1,0.0,0.0,0.0,0.1,0.0,0.0,0.0,0.1
1446038820812231442,17,1446038820808765888,robocape,3.04484529549,5.76663074373,29.3340077398,0.0,10.0,0.0,0.0,0.0,10.0,0.0,0.0,0.0,10.0,-0.18801917296,0.0125168571234,0.0669785014155,1.0,0.0,0.0,0.0,1.0,0.0,0.0,0.0,1.0,-0.279019775391,-0.486188964844,10.0339343262,0.1,0.0,0.0,0.0,0.1,0.0,0.0,0.0,0.1
1446038820848629109,18,1446038820845350027,robocape,2.99899473939,5.79652161624,29.255139955,0.0,10.0,0.0,0.0,0.0,10.0,0.0,0.0,0.0,10.0,-0.017976337358,0.0217047628841,-0.00466053190764,1.0,0.0,0.0,0.0,1.0,0.0,0.0,0.0,1.0,-0.0730480957031,-0.743653564453,9.96447875977,0.1,0.0,0.0,0.0,0.1,0.0,0.0,0.0,0.1
1446038820879640192,19,1446038820876585006,robocape,3.14608767339,5.82175081271,29.195204167,0.0,10.0,0.0,0.0,0.0,10.0,0.0,0.0,0.0,10.0,0.0822916776834,0.0199737081756,0.00612527050718,1.0,0.0,0.0,0.0,1.0,0.0,0.0,0.0,1.0,-0.0694555664063,-0.0802331542969,9.99202148437,0.1,0.0,0.0,0.0,0.1,0.0,0.0,0.0,0.1
1446038820912437442,20,1446038820909106969,robocape,3.2862458467,5.84517851325,29.1251941878,0.0,10.0,0.0,0.0,0.0,10.0,0.0,0.0,0.0,10.0,0.0793622004844,0.0186421276306,0.000399474163512,1.0,0.0,0.0,0.0,1.0,0.0,0.0,0.0,1.0,0.174836425781,0.744851074219,10.0063916016,0.1,0.0,0.0,0.0,0.1,0.0,0.0,0.0,0.1
1446038820945494317,21,1446038820942224025,robocape,3.41421983616,5.88351980113,28.9318975309,0.0,10.0,0.0,0.0,0.0,10.0,0.0,0.0,0.0,10.0,0.0794953585389,0.0217047628841,-0.068709556124,1.0,0.0,0.0,0.0,1.0,0.0,0.0,0.0,1.0,0.117355957031,0.408350830078,10.0926123047,0.1,0.0,0.0,0.0,0.1,0.0,0.0,0.0,0.1
1446038820977919151,22,1446038820974795103,robocape,3.46699980413,5.9100227694,28.8805249175,0.0,10.0,0.0,0.0,0.0,10.0,0.0,0.0,0.0,10.0,0.0328900394625,0.0209058145571,0.00985369603329,1.0,0.0,0.0,0.0,1.0,0.0,0.0,0.0,1.0,0.0431103515625,0.234711914063,9.95729370117,0.1,0.0,0.0,0.0,0.1,0.0,0.0,0.0,0.1
1446038821011291651,23,1446038821008033037,robocape,3.58832619858,5.94135804887,28.7849890278,0.0,10.0,0.0,0.0,0.0,10.0,0.0,0.0,0.0,10.0,0.0712395591596,0.0217047628841,-0.0147805440499,1.0,0.0,0.0,0.0,1.0,0.0,0.0,0.0,1.0,0.0742456054688,0.414338378906,9.96567626953,0.1,0.0,0.0,0.0,0.1,0.0,0.0,0.0,0.1
1446038821043742442,24,1446038821040702104,robocape,3.60509293207,5.97974343563,28.7177472128,0.0,10.0,0.0,0.0,0.0,10.0,0.0,0.0,0.0,10.0,0.0150468601589,0.0264984528463,0.000266316109008,1.0,0.0,0.0,0.0,1.0,0.0,0.0,0.0,1.0,-0.118553466797,0.832269287109,10.1189575195,0.1,0.0,0.0,0.0,0.1,0.0,0.0,0.0,0.1
1446038821077182818,25,1446038821074136018,robocape,3.54528108605,6.01038595292,28.6029558614,0.0,10.0,0.0,0.0,0.0,10.0,0.0,0.0,0.0,10.0,-0.0226368692657,0.0205063403936,-0.0262321367373,1.0,0.0,0.0,0.0,1.0,0.0,0.0,0.0,1.0,-0.207169189453,0.596359863281,9.99920654297,0.1,0.0,0.0,0.0,0.1,0.0,0.0,0.0,0.1
1446038821110295484,26,1446038821107103109,robocape,3.50040409179,6.03996058911,28.4743095809,0.0,10.0,0.0,0.0,0.0,10.0,0.0,0.0,0.0,10.0,-0.0141147537774,0.0194410759576,-0.034088461953,1.0,0.0,0.0,0.0,1.0,0.0,0.0,0.0,1.0,-0.0299377441406,0.0802331542969,10.0974023437,0.1,0.0,0.0,0.0,0.1,0.0,0.0,0.0,0.1
1446038821143533026,27,1446038821140497922,robocape,3.50787590317,6.06894017669,28.285821696,0.0,10.0,0.0,0.0,0.0,10.0,0.0,0.0,0.0,10.0,0.0165115987585,0.0167779148675,-0.067377975579,1.0,0.0,0.0,0.0,1.0,0.0,0.0,0.0,1.0,-0.0407153320313,0.640667724609,10.0590820312,0.1,0.0,0.0,0.0,0.1,0.0,0.0,0.0,0.1
1446038821177210943,28,1446038821173820018,robocape,3.53788021119,6.10681487059,28.0081037891,0.0,10.0,0.0,0.0,0.0,10.0,0.0,0.0,0.0,10.0,0.0331563555715,0.0178431793035,-0.117312246018,1.0,0.0,0.0,0.0,1.0,0.0,0.0,0.0,1.0,-0.0323327636719,0.443078613281,10.039921875,0.1,0.0,0.0,0.0,0.1,0.0,0.0,0.0,0.1
1446038821214329568,29,1446038821210944890,robocape,3.58101548665,6.1637498437,27.6234110494,0.0,10.0,0.0,0.0,0.0,10.0,0.0,0.0,0.0,10.0,0.0459395288039,0.0234358175927,-0.177366528599,1.0,0.0,0.0,0.0,1.0,0.0,0.0,0.0,1.0,-0.076640625,0.502954101562,10.0830322266,0.1,0.0,0.0,0.0,0.1,0.0,0.0,0.0,0.1
1446038821243337026,30,1446038821240317106,robocape,3.5225648626,6.20671734448,27.1901760837,0.0,10.0,0.0,0.0,0.0,10.0,0.0,0.0,0.0,10.0,-0.00452737385313,0.0141147537774,-0.204530771718,1.0,0.0,0.0,0.0,1.0,0.0,0.0,0.0,1.0,0.0467028808594,0.880169677734,9.98004638672,0.1,0.0,0.0,0.0,0.1,0.0,0.0,0.0,0.1
1446038821276507651,31,1446038821273391008,robocape,3.36231086912,6.25047918486,26.9047985446,0.0,10.0,0.0,0.0,0.0,10.0,0.0,0.0,0.0,10.0,-0.0659132369795,0.0206394984481,-0.123970148743,1.0,0.0,0.0,0.0,1.0,0.0,0.0,0.0,1.0,0.0299377441406,0.106578369141,9.96088623047,0.1,0.0,0.0,0.0,0.1,0.0,0.0,0.0,0.1
1446038821310158484,32,1446038821307028055,robocape,3.35252703746,6.31224434651,26.6093041573,0.0,10.0,0.0,0.0,0.0,10.0,0.0,0.0,0.0,10.0,0.0135821215594,0.0299605622634,-0.13009541925,1.0,0.0,0.0,0.0,1.0,0.0,0.0,0.0,1.0,-0.358055419922,-0.0311352539063,10.0997973633,0.1,0.0,0.0,0.0,0.1,0.0,0.0,0.0,0.1
1446038821343185276,33,1446038821340102910,robocape,3.44986799993,6.36862056132,26.1541564386,0.0,10.0,0.0,0.0,0.0,10.0,0.0,0.0,0.0,10.0,0.0788295682663,0.0209058145571,-0.217846577168,1.0,0.0,0.0,0.0,1.0,0.0,0.0,0.0,1.0,0.13412109375,0.176033935547,9.97884887695,0.1,0.0,0.0,0.0,0.1,0.0,0.0,0.0,0.1
1446038821376848401,34,1446038821373675107,robocape,3.36616962782,6.37638735057,25.7944423268,0.0,10.0,0.0,0.0,0.0,10.0,0.0,0.0,0.0,10.0,-0.0213052887206,-0.00106526443603,-0.165249145639,1.0,0.0,0.0,0.0,1.0,0.0,0.0,0.0,1.0,-0.0922082519531,1.22026245117,10.0506994629,0.1,0.0,0.0,0.0,0.1,0.0,0.0,0.0,0.1
1446038821409849068,35,1446038821406709909,robocape,3.09989324207,6.38709703798,25.4758961625,0.0,10.0,0.0,0.0,0.0,10.0,0.0,0.0,0.0,10.0,-0.11944277489,0.00239684498107,-0.14367754081,1.0,0.0,0.0,0.0,1.0,0.0,0.0,0.0,1.0,0.0263452148438,0.718505859375,9.92017089844,0.1,0.0,0.0,0.0,0.1,0.0,0.0,0.0,0.1
1446038821443114193,36,1446038821440025091,robocape,2.91290915796,6.38828487036,25.2459204624,0.0,10.0,0.0,0.0,0.0,10.0,0.0,0.0,0.0,10.0,-0.0830906260105,0.00106526443603,-0.0953411670248,1.0,0.0,0.0,0.0,1.0,0.0,0.0,0.0,1.0,-0.132923583984,-0.7280859375,10.0471069336,0.1,0.0,0.0,0.0,0.1,0.0,0.0,0.0,0.1
1446038821476835109,37,1446038821473683118,robocape,2.93308670048,6.39961872287,25.0183716369,0.0,10.0,0.0,0.0,0.0,10.0,0.0,0.0,0.0,10.0,0.0253000303558,0.0066579027252,-0.0942759025888,1.0,0.0,0.0,0.0,1.0,0.0,0.0,0.0,1.0,-0.0598754882813,-0.009580078125,10.0530944824,0.1,0.0,0.0,0.0,0.1,0.0,0.0,0.0,0.1
1446038821509922234,38,1446038821506845951,robocape,2.95914281221,6.39732071014,24.9297301686,0.0,10.0,0.0,0.0,0.0,10.0,0.0,0.0,0.0,10.0,0.0205063403936,0.00412789968962,-0.0185089695761,1.0,0.0,0.0,0.0,1.0,0.0,0.0,0.0,1.0,0.0550854492188,0.407153320313,10.0087866211,0.1,0.0,0.0,0.0,0.1,0.0,0.0,0.0,0.1
1446038821543310151,39,1446038821540271043,robocape,2.95980750527,6.39502924315,24.8578136848,0.0,10.0,0.0,0.0,0.0,10.0,0.0,0.0,0.0,10.0,0.00625842856169,0.00466053190764,-0.00958737992429,1.0,0.0,0.0,0.0,1.0,0.0,0.0,0.0,1.0,-0.0802331542969,0.457448730469,10.0387243652,0.1,0.0,0.0,0.0,0.1,0.0,0.0,0.0,0.1
1446038821577170359,40,1446038821574064970,robocape,2.89176661536,6.43345014769,24.7286280232,0.0,10.0,0.0,0.0,0.0,10.0,0.0,0.0,0.0,10.0,-0.0264984528463,0.0241016078652,-0.0419447871687,1.0,0.0,0.0,0.0,1.0,0.0,0.0,0.0,1.0,0.102985839844,0.866997070313,10.1465002441,0.1,0.0,0.0,0.0,0.1,0.0,0.0,0.0,0.1
1446038821611325109,41,1446038821608258962,robocape,2.65699240034,6.4805939646,24.7096224457,0.0,10.0,0.0,0.0,0.0,10.0,0.0,0.0,0.0,10.0,-0.120374881272,0.0323574072445,0.0175768631945,1.0,0.0,0.0,0.0,1.0,0.0,0.0,0.0,1.0,-0.086220703125,0.706530761719,9.93214599609,0.1,0.0,0.0,0.0,0.1,0.0,0.0,0.0,0.1
1446038821643093776,42,1446038821640098094,robocape,2.3806711287,6.53788336336,24.7776187853,0.0,10.0,0.0,0.0,0.0,10.0,0.0,0.0,0.0,10.0,-0.14753912439,0.0403468905147,0.0649811305979,1.0,0.0,0.0,0.0,1.0,0.0,0.0,0.0,1.0,-0.116158447266,-0.462238769531,10.0207617188,0.1,0.0,0.0,0.0,0.1,0.0,0.0,0.0,0.1
1446038821676822193,43,1446038821673729896,robocape,2.36096353299,6.56387799688,24.7317055147,0.0,10.0,0.0,0.0,0.0,10.0,0.0,0.0,0.0,10.0,-0.00652474467069,0.0206394984481,0.00386158358061,1.0,0.0,0.0,0.0,1.0,0.0,0.0,0.0,1.0,0.0395178222656,-0.429906005859,9.96447875977,0.1,0.0,0.0,0.0,0.1,0.0,0.0,0.0,0.1
1446038821709589068,44,1446038821706598997,robocape,2.44527203604,6.57271731209,24.6423357501,0.0,10.0,0.0,0.0,0.0,10.0,0.0,0.0,0.0,10.0,0.0506000607115,0.0103863282513,-0.0195742340121,1.0,0.0,0.0,0.0,1.0,0.0,0.0,0.0,1.0,-0.0131726074219,0.669407958984,10.096204834,0.1,0.0,0.0,0.0,0.1,0.0,0.0,0.0,0.1
1446038821743196609,45,1446038821740181922,robocape,2.38492634886,6.60381377372,24.6784255779,0.0,10.0,0.0,0.0,0.0,10.0,0.0,0.0,0.0,10.0,-0.0326237233535,0.0256995045193,0.0482032157304,1.0,0.0,0.0,0.0,1.0,0.0,0.0,0.0,1.0,-0.0562829589844,0.314945068359,9.92975097656,0.1,0.0,0.0,0.0,0.1,0.0,0.0,0.0,0.1
1446038821776499985,46,1446038821773464918,robocape,2.37066053164,6.64008622558,24.5445183636,0.0,10.0,0.0,0.0,0.0,10.0,0.0,0.0,0.0,10.0,0.00159789665405,0.0235689756472,-0.0444747902043,1.0,0.0,0.0,0.0,1.0,0.0,0.0,0.0,1.0,-0.180823974609,0.477806396484,10.0183666992,0.1,0.0,0.0,0.0,0.1,0.0,0.0,0.0,0.1
1446038821809693318,47,1446038821806680917,robocape,2.32319269543,6.63024562271,24.3350033714,0.0,10.0,0.0,0.0,0.0,10.0,0.0,0.0,0.0,10.0,-0.0113184346328,-0.00279631914458,-0.0852211548825,1.0,0.0,0.0,0.0,1.0,0.0,0.0,0.0,1.0,-0.180823974609,0.717308349609,9.86628295898,0.1,0.0,0.0,0.0,0.1,0.0,0.0,0.0,0.1
1446038821843375735,48,1446038821840210914,robocape,2.26852074686,6.63630268183,24.0727718248,0.0,10.0,0.0,0.0,0.0,10.0,0.0,0.0,0.0,10.0,-0.0119842249054,0.00412789968962,-0.114515926873,1.0,0.0,0.0,0.0,1.0,0.0,0.0,0.0,1.0,-0.0047900390625,0.220341796875,9.84592529297,0.1,0.0,0.0,0.0,0.1,0.0,0.0,0.0,0.1
1446038821877017485,49,1446038821873581886,robocape,2.20107297065,6.68635278392,23.9012942549,0.0,10.0,0.0,0.0,0.0,10.0,0.0,0.0,0.0,10.0,-0.0241016078652,0.0298274042089,-0.0661795530885,1.0,0.0,0.0,0.0,1.0,0.0,0.0,0.0,1.0,-0.282612304688,0.171243896484,10.096204834,0.1,0.0,0.0,0.0,0.1,0.0,0.0,0.0,0.1
1446038821910081110,50,1446038821906826972,robocape,2.13530476259,6.7186957371,23.7354250758,0.0,10.0,0.0,0.0,0.0,10.0,0.0,0.0,0.0,10.0,-0.0235689756472,0.0207726565026,-0.0631169178349,1.0,0.0,0.0,0.0,1.0,0.0,0.0,0.0,1.0,-0.0359252929688,0.393980712891,10.0698596191,0.1,0.0,0.0,0.0,0.1,0.0,0.0,0.0,0.1
1446038821943541360,51,1446038821940177917,robocape,2.07065214854,6.7547551026,23.6139508736,0.0,10.0,0.0,0.0,0.0,10.0,0.0,0.0,0.0,10.0,-0.0256995045193,0.0239684498107,-0.0392816260787,1.0,0.0,0.0,0.0,1.0,0.0,0.0,0.0,1.0,0.0526904296875,-0.149688720703,10.0734521484,0.1,0.0,0.0,0.0,0.1,0.0,0.0,0.0,0.1
1446038821976780568,52,1446038821973361968,robocape,2.10588544737,6.80490567264,23.4825073167,0.0,10.0,0.0,0.0,0.0,10.0,0.0,0.0,0.0,10.0,0.0272974011733,0.0311589847539,-0.0450074224223,1.0,0.0,0.0,0.0,1.0,0.0,0.0,0.0,1.0,-0.189206542969,0.197589111328,10.080637207,0.1,0.0,0.0,0.0,0.1,0.0,0.0,0.0,0.1
1446038822010095985,53,1446038822006674051,robocape,2.17021467334,6.84204175647,23.2932262939,0.0,10.0,0.0,0.0,0.0,10.0,0.0,0.0,0.0,10.0,0.0462058449129,0.0227700273202,-0.0764327232853,1.0,0.0,0.0,0.0,1.0,0.0,0.0,0.0,1.0,-0.0850231933594,0.531694335938,10.254276123,0.1,0.0,0.0,0.0,0.1,0.0,0.0,0.0,0.1
1446038822043252985,54,1446038822040031909,robocape,2.08484485427,6.93538131343,23.0326051172,0.0,10.0,0.0,0.0,0.0,10.0,0.0,0.0,0.0,10.0,-0.0276968753368,0.050466902657,-0.116246981582,1.0,0.0,0.0,0.0,1.0,0.0,0.0,0.0,1.0,0.0658630371094,1.16637451172,10.1081799316,0.1,0.0,0.0,0.0,0.1,0.0,0.0,0.0,0.1
1446038822076514401,55,1446038822073295116,robocape,1.87078551096,6.97867341408,22.7986702822,0.0,10.0,0.0,0.0,0.0,10.0,0.0,0.0,0.0,10.0,-0.0968059056244,0.0251668723012,-0.101466437532,1.0,0.0,0.0,0.0,1.0,0.0,0.0,0.0,1.0,-0.378413085938,0.397573242188,9.80520996094,0.1,0.0,0.0,0.0,0.1,0.0,0.0,0.0,0.1
1446038822109949610,56,1446038822106864929,robocape,1.78563064642,6.73061084855,22.5293423359,0.0,10.0,0.0,0.0,0.0,10.0,0.0,0.0,0.0,10.0,-0.0274305592278,-0.128630680651,-0.117711720182,1.0,0.0,0.0,0.0,1.0,0.0,0.0,0.0,1.0,-0.765208740234,0.275427246094,9.44356201172,0.1,0.0,0.0,0.0,0.1,0.0,0.0,0.0,0.1
1446038822143126568,57,1446038822140073060,robocape,1.42792694175,6.61394333988,22.9099358174,0.0,10.0,0.0,0.0,0.0,10.0,0.0,0.0,0.0,10.0,-0.210389726116,-0.0456732126949,0.232094489,1.0,0.0,0.0,0.0,1.0,0.0,0.0,0.0,1.0,-0.168848876953,-0.993933105469,10.7404650879,0.1,0.0,0.0,0.0,0.1,0.0,0.0,0.0,0.1
1446038822176568026,58,1446038822173542022,robocape,1.13781272282,6.57847790959,23.6303649296,0.0,10.0,0.0,0.0,0.0,10.0,0.0,0.0,0.0,10.0,-0.195742340121,0.00199737081756,0.417184184761,1.0,0.0,0.0,0.0,1.0,0.0,0.0,0.0,1.0,-0.201181640625,-1.53880004883,10.1441052246,0.1,0.0,0.0,0.0,0.1,0.0,0.0,0.0,0.1
1446038822210476568,59,1446038822207330942,robocape,1.37815332183,6.60472613994,24.0170946763,0.0,10.0,0.0,0.0,0.0,10.0,0.0,0.0,0.0,10.0,0.102531701968,0.0284958236638,0.237420811181,1.0,0.0,0.0,0.0,1.0,0.0,0.0,0.0,1.0,0.047900390625,-0.622705078125,10.0902172852,0.1,0.0,0.0,0.0,0.1,0.0,0.0,0.0,0.1
1446038822243408401,60,1446038822240339994,robocape,1.67181218816,6.59376872145,24.3074239607,0.0,10.0,0.0,0.0,0.0,10.0,0.0,0.0,0.0,10.0,0.136620163921,0.00812264132474,0.186154960197,1.0,0.0,0.0,0.0,1.0,0.0,0.0,0.0,1.0,0.373623046875,0.221539306641,10.0997973633,0.1,0.0,0.0,0.0,0.1,0.0,0.0,0.0,0.1
1446038822276530651,61,1446038822273488998,robocape,1.94104633553,6.57522191791,24.5175334158,0.0,10.0,0.0,0.0,0.0,10.0,0.0,0.0,0.0,10.0,0.129030154814,0.0031957933081,0.143278066646,1.0,0.0,0.0,0.0,1.0,0.0,0.0,0.0,1.0,0.379610595703,0.807121582031,9.86149291992,0.1,0.0,0.0,0.0,0.1,0.0,0.0,0.0,0.1
1446038822310995568,62,1446038822307985067,robocape,1.98864859698,6.59304247839,24.8302262922,0.0,10.0,0.0,0.0,0.0,10.0,0.0,0.0,0.0,10.0,0.00692421883421,0.0253000303558,0.199337607592,1.0,0.0,0.0,0.0,1.0,0.0,0.0,0.0,1.0,0.101788330078,0.682580566406,9.85550537109,0.1,0.0,0.0,0.0,0.1,0.0,0.0,0.0,0.1
1446038822345196776,63,1446038822341576099,robocape,2.03697507903,6.63126507865,24.8974740069,0.0,10.0,0.0,0.0,0.0,10.0,0.0,0.0,0.0,10.0,0.0219710789932,0.0300937203179,0.065780078925,1.0,0.0,0.0,0.0,1.0,0.0,0.0,0.0,1.0,0.0754431152344,0.330512695313,10.1213525391,0.1,0.0,0.0,0.0,0.1,0.0,0.0,0.0,0.1
1446038822378411276,64,1446038822375237941,robocape,2.09004163853,6.64259679991,24.8846232985,0.0,10.0,0.0,0.0,0.0,10.0,0.0,0.0,0.0,10.0,0.0292947719909,0.0139815957229,0.0225037112112,1.0,0.0,0.0,0.0,1.0,0.0,0.0,0.0,1.0,-0.269439697266,0.300574951172,10.0147741699,0.1,0.0,0.0,0.0,0.1,0.0,0.0,0.0,0.1
1446038822411663651,65,1446038822408535003,robocape,2.16432378114,6.66993913609,24.8144043277,0.0,10.0,0.0,0.0,0.0,10.0,0.0,0.0,0.0,10.0,0.0439421579863,0.0209058145571,-0.00905474770627,1.0,0.0,0.0,0.0,1.0,0.0,0.0,0.0,1.0,-0.282612304688,0.173638916016,9.97405883789,0.1,0.0,0.0,0.0,0.1,0.0,0.0,0.0,0.1
1446038822445119485,66,1446038822441975116,robocape,2.24538332228,6.726170662,24.6902855254,0.0,10.0,0.0,0.0,0.0,10.0,0.0,0.0,0.0,10.0,0.0508663768205,0.034621094171,-0.0390153099697,1.0,0.0,0.0,0.0,1.0,0.0,0.0,0.0,1.0,-0.136516113281,0.384400634766,9.96926879883,0.1,0.0,0.0,0.0,0.1,0.0,0.0,0.0,0.1
1446038822478264402,67,1446038822475126028,robocape,2.1697295221,6.79608822044,24.7550543773,0.0,10.0,0.0,0.0,0.0,10.0,0.0,0.0,0.0,10.0,-0.0427437354958,0.0470047932399,0.0635163919984,1.0,0.0,0.0,0.0,1.0,0.0,0.0,0.0,1.0,-0.0275427246094,0.514929199219,10.0363293457,0.1,0.0,0.0,0.0,0.1,0.0,0.0,0.0,0.1
1446038822514075860,68,1446038822509788990,robocape,2.02238052463,6.85529504974,25.0225843619,0.0,10.0,0.0,0.0,0.0,10.0,0.0,0.0,0.0,10.0,-0.0930774800983,0.0467384771309,0.174570209455,1.0,0.0,0.0,0.0,1.0,0.0,0.0,0.0,1.0,-0.028740234375,-0.129331054688,10.1500927734,0.1,0.0,0.0,0.0,0.1,0.0,0.0,0.0,0.1
1446038822546576777,69,1446038822541523933,robocape,1.96273623701,6.88197290416,25.2135380459,0.0,10.0,0.0,0.0,0.0,10.0,0.0,0.0,0.0,10.0,-0.0426105774413,0.0275637172823,0.133957002831,1.0,0.0,0.0,0.0,1.0,0.0,0.0,0.0,1.0,-0.0742456054688,-0.135318603516,9.96807128906,0.1,0.0,0.0,0.0,0.1,0.0,0.0,0.0,0.1
1446038822579909527,70,1446038822575082063,robocape,2.23312602038,6.95409542632,25.0441821972,0.0,10.0,0.0,0.0,0.0,10.0,0.0,0.0,0.0,10.0,0.152998604625,0.0422111032778,-0.0629837597804,1.0,0.0,0.0,0.0,1.0,0.0,0.0,0.0,1.0,-0.116158447266,-0.638272705078,9.98842895508,0.1,0.0,0.0,0.0,0.1,0.0,0.0,0.0,0.1
1446038822612649277,71,1446038822609484910,robocape,2.57702313498,7.01087211756,25.0518713751,0.0,10.0,0.0,0.0,0.0,10.0,0.0,0.0,0.0,10.0,0.180828638016,0.0390153099697,0.033555829735,1.0,0.0,0.0,0.0,1.0,0.0,0.0,0.0,1.0,0.0742456054688,0.0874182128906,9.99441650391,0.1,0.0,0.0,0.0,0.1,0.0,0.0,0.0,0.1
1446038822645961818,72,1446038822641859054,robocape,3.04587267924,7.07233100377,24.8976227997,0.0,10.0,0.0,0.0,0.0,10.0,0.0,0.0,0.0,10.0,0.256995045193,0.0363521488796,-0.0548611184556,1.0,0.0,0.0,0.0,1.0,0.0,0.0,0.0,1.0,0.047900390625,0.547261962891,10.1237475586,0.1,0.0,0.0,0.0,0.1,0.0,0.0,0.0,0.1
1446038822680615402,73,1446038822676536083,robocape,3.32445042255,7.10161016444,24.8814990237,0.0,10.0,0.0,0.0,0.0,10.0,0.0,0.0,0.0,10.0,0.14900386299,0.0241016078652,0.0206394984481,1.0,0.0,0.0,0.0,1.0,0.0,0.0,0.0,1.0,-0.0443078613281,0.646655273438,10.0506994629,0.1,0.0,0.0,0.0,0.1,0.0,0.0,0.0,0.1
1446038822713483568,74,1446038822710086107,robocape,3.53301021137,7.13106660595,24.7967272279,0.0,10.0,0.0,0.0,0.0,10.0,0.0,0.0,0.0,10.0,0.116912771854,0.0215716048296,-0.016911072922,1.0,0.0,0.0,0.0,1.0,0.0,0.0,0.0,1.0,-0.028740234375,0.904119873047,10.039921875,0.1,0.0,0.0,0.0,0.1,0.0,0.0,0.0,0.1
1446038822746500443,75,1446038822743119955,robocape,3.61840594431,7.15234313808,24.6958815128,0.0,10.0,0.0,0.0,0.0,10.0,0.0,0.0,0.0,10.0,0.0535295379106,0.0165115987585,-0.0258326625738,1.0,0.0,0.0,0.0,1.0,0.0,0.0,0.0,1.0,-0.102985839844,1.22505249023,10.0363293457,0.1,0.0,0.0,0.0,0.1,0.0,0.0,0.0,0.1
1446038822780629110,76,1446038822777302980,robocape,3.44354448888,7.16360048257,24.722811197,0.0,10.0,0.0,0.0,0.0,10.0,0.0,0.0,0.0,10.0,-0.0910801092807,0.0162452826495,0.0432763677138,1.0,0.0,0.0,0.0,1.0,0.0,0.0,0.0,1.0,0.0562829589844,1.15080688477,10.019564209,0.1,0.0,0.0,0.0,0.1,0.0,0.0,0.0,0.1
1446038822813574110,77,1446038822810313940,robocape,3.08409888295,7.16905030908,24.8574549937,0.0,10.0,0.0,0.0,0.0,10.0,0.0,0.0,0.0,10.0,-0.195076549848,0.0170442309765,0.101865911696,1.0,0.0,0.0,0.0,1.0,0.0,0.0,0.0,1.0,0.0514929199219,0.348475341797,10.0662670898,0.1,0.0,0.0,0.0,0.1,0.0,0.0,0.0,0.1
1446038822846629777,78,1446038822843157052,robocape,2.95838916982,7.1882437878,24.7514125164,0.0,10.0,0.0,0.0,0.0,10.0,0.0,0.0,0.0,10.0,-0.0573911214912,0.015579492377,-0.0287621397729,1.0,0.0,0.0,0.0,1.0,0.0,0.0,0.0,1.0,-0.330512695313,0.262254638672,9.95489868164,0.1,0.0,0.0,0.0,0.1,0.0,0.0,0.0,0.1
1446038822881391318,79,1446038822878030061,robocape,2.82081119167,7.20673709118,24.7121585371,0.0,10.0,0.0,0.0,0.0,10.0,0.0,0.0,0.0,10.0,-0.0680437658515,0.0175768631945,0.00745685105222,1.0,0.0,0.0,0.0,1.0,0.0,0.0,0.0,1.0,-0.0335302734375,-0.238304443359,10.0471069336,0.1,0.0,0.0,0.0,0.1,0.0,0.0,0.0,0.1
1446038822913849318,80,1446038822910392999,robocape,2.91715117675,7.23721169927,24.5159097577,0.0,10.0,0.0,0.0,0.0,10.0,0.0,0.0,0.0,10.0,0.0647148144889,0.0186421276306,-0.0780306199393,1.0,0.0,0.0,0.0,1.0,0.0,0.0,0.0,1.0,0.0490979003906,-0.0155676269531,10.0686621094,0.1,0.0,0.0,0.0,0.1,0.0,0.0,0.0,0.1
1446038822948290652,81,1446038822945231914,robocape,2.98473458322,7.26292755774,24.3808552209,0.0,10.0,0.0,0.0,0.0,10.0,0.0,0.0,0.0,10.0,0.0458063707494,0.0181094954125,-0.0450074224223,1.0,0.0,0.0,0.0,1.0,0.0,0.0,0.0,1.0,-0.09580078125,0.608334960938,10.0099841309,0.1,0.0,0.0,0.0,0.1,0.0,0.0,0.0,0.1
1446038822980069943,82,1446038822976789951,robocape,2.93762496415,7.2829568757,24.3373936738,0.0,10.0,0.0,0.0,0.0,10.0,0.0,0.0,0.0,10.0,-0.0202400242846,0.018242653467,0.00452737385313,1.0,0.0,0.0,0.0,1.0,0.0,0.0,0.0,1.0,-0.0526904296875,0.446671142578,10.0171691895,0.1,0.0,0.0,0.0,0.1,0.0,0.0,0.0,0.1
1446038823013046860,83,1446038823009776115,robocape,2.8743871424,7.29910583221,24.3103587468,0.0,10.0,0.0,0.0,0.0,10.0,0.0,0.0,0.0,10.0,-0.0298274042089,0.0167779148675,0.0134489635049,1.0,0.0,0.0,0.0,1.0,0.0,0.0,0.0,1.0,-0.0215551757813,0.373623046875,10.0435144043,0.1,0.0,0.0,0.0,0.1,0.0,0.0,0.0,0.1
1446038823045835443,84,1446038823042642116,robocape,2.66110113945,7.30616307291,24.4944008185,0.0,10.0,0.0,0.0,0.0,10.0,0.0,0.0,0.0,10.0,-0.122505410144,0.0189084437396,0.128231206487,1.0,0.0,0.0,0.0,1.0,0.0,0.0,0.0,1.0,-0.106578369141,-0.147293701172,10.0530944824,0.1,0.0,0.0,0.0,0.1,0.0,0.0,0.0,0.1
1446038823079662943,85,1446038823076247930,robocape,2.65865674354,7.31904017698,24.5892303955,0.0,10.0,0.0,0.0,0.0,10.0,0.0,0.0,0.0,10.0,-0.00625842856169,0.0190416017941,0.0802943068659,1.0,0.0,0.0,0.0,1.0,0.0,0.0,0.0,1.0,0.0251477050781,-0.645457763672,10.0183666992,0.1,0.0,0.0,0.0,0.1,0.0,0.0,0.0,0.1
1446038823112558735,86,1446038823109515905,robocape,2.88853009229,7.34385685122,24.5516039335,0.0,10.0,0.0,0.0,0.0,10.0,0.0,0.0,0.0,10.0,0.124369622907,0.0211721306661,0.00838895743375,1.0,0.0,0.0,0.0,1.0,0.0,0.0,0.0,1.0,0.0742456054688,0.0299377441406,10.0207617188,0.1,0.0,0.0,0.0,0.1,0.0,0.0,0.0,0.1
1446038823146847194,87,1446038823143773078,robocape,3.18184259192,7.37049713036,24.4898236685,0.0,10.0,0.0,0.0,0.0,10.0,0.0,0.0,0.0,10.0,0.159523349296,0.0213052887206,-0.00479368996214,1.0,0.0,0.0,0.0,1.0,0.0,0.0,0.0,1.0,-0.124541015625,0.183218994141,10.0267492676,0.1,0.0,0.0,0.0,0.1,0.0,0.0,0.0,0.1
1446038823180219985,88,1446038823176388978,robocape,3.45507959198,7.39582832762,24.3985904277,0.0,10.0,0.0,0.0,0.0,10.0,0.0,0.0,0.0,10.0,0.151267549917,0.0194410759576,-0.0209058145571,1.0,0.0,0.0,0.0,1.0,0.0,0.0,0.0,1.0,-0.150886230469,0.543669433594,10.0351318359,0.1,0.0,0.0,0.0,0.1,0.0,0.0,0.0,0.1
1446038823211985277,89,1446038823208949089,robocape,3.63069260954,7.41914555658,24.3208255444,0.0,10.0,0.0,0.0,0.0,10.0,0.0,0.0,0.0,10.0,0.0994690667145,0.0187752856851,-0.0138484376684,1.0,0.0,0.0,0.0,1.0,0.0,0.0,0.0,1.0,-0.067060546875,1.15799194336,9.92376342773,0.1,0.0,0.0,0.0,0.1,0.0,0.0,0.0,0.1
1446038823246256235,90,1446038823243166923,robocape,3.68346296398,7.43493246091,24.3125150916,0.0,10.0,0.0,0.0,0.0,10.0,0.0,0.0,0.0,10.0,0.0306263525359,0.0175768631945,0.0237021337017,1.0,0.0,0.0,0.0,1.0,0.0,0.0,0.0,1.0,0.0311352539063,0.55564453125,10.019564209,0.1,0.0,0.0,0.0,0.1,0.0,0.0,0.0,0.1
1446038823278817027,91,1446038823275315999,robocape,3.73279572711,7.45632673505,24.2616257973,0.0,10.0,0.0,0.0,0.0,10.0,0.0,0.0,0.0,10.0,0.0316916169719,0.0187752856851,0.000399474163512,1.0,0.0,0.0,0.0,1.0,0.0,0.0,0.0,1.0,-0.124541015625,0.783171386719,10.0518969727,0.1,0.0,0.0,0.0,0.1,0.0,0.0,0.0,0.1
1446038823311738485,92,1446038823308706045,robocape,3.73212028734,7.47200733492,24.2193961882,0.0,10.0,0.0,0.0,0.0,10.0,0.0,0.0,0.0,10.0,0.00492684801665,0.016112124595,0.00506000607115,1.0,0.0,0.0,0.0,1.0,0.0,0.0,0.0,1.0,-0.0263452148438,0.734073486328,10.0722546387,0.1,0.0,0.0,0.0,0.1,0.0,0.0,0.0,0.1
1446038823344404194,93,1446038823341075897,robocape,3.63035789277,7.48455534781,24.2565090281,0.0,10.0,0.0,0.0,0.0,10.0,0.0,0.0,0.0,10.0,-0.0533963798561,0.017710021249,0.0479368996214,1.0,0.0,0.0,0.0,1.0,0.0,0.0,0.0,1.0,-0.028740234375,0.596359863281,10.0495019531,0.1,0.0,0.0,0.0,0.1,0.0,0.0,0.0,0.1
1446038823377675694,94,1446038823374587059,robocape,3.623473651,7.50409498033,24.2156980975,0.0,10.0,0.0,0.0,0.0,10.0,0.0,0.0,0.0,10.0,0.00146473859954,0.018242653467,0.00572579634367,1.0,0.0,0.0,0.0,1.0,0.0,0.0,0.0,1.0,-0.0790356445313,-0.00119750976563,10.0830322266,0.1,0.0,0.0,0.0,0.1,0.0,0.0,0.0,0.1
1446038823411783694,95,1446038823408307075,robocape,3.7070591289,7.52990095821,24.1421480851,0.0,10.0,0.0,0.0,0.0,10.0,0.0,0.0,0.0,10.0,0.0511326929295,0.0202400242846,-0.0121173829599,1.0,0.0,0.0,0.0,1.0,0.0,0.0,0.0,1.0,-0.0802331542969,-0.140108642578,10.0542919922,0.1,0.0,0.0,0.0,0.1,0.0,0.0,0.0,0.1
1446038823444209610,96,1446038823441162109,robocape,3.77061505677,7.55002851671,24.0801765848,0.0,10.0,0.0,0.0,0.0,10.0,0.0,0.0,0.0,10.0,0.0399474163512,0.017710021249,-0.00585895439817,1.0,0.0,0.0,0.0,1.0,0.0,0.0,0.0,1.0,-0.0155676269531,0.831071777344,9.87825805664,0.1,0.0,0.0,0.0,0.1,0.0,0.0,0.0,0.1
1446038823477077110,97,1446038823473824024,robocape,3.74536393742,7.5627531603,24.0927565328,0.0,10.0,0.0,0.0,0.0,10.0,0.0,0.0,0.0,10.0,-0.0115847507418,0.016911072922,0.0344879361165,1.0,0.0,0.0,0.0,1.0,0.0,0.0,0.0,1.0,0.0155676269531,0.635877685547,9.98244140625,0.1,0.0,0.0,0.0,0.1,0.0,0.0,0.0,0.1
1446038823509961027,98,1446038823506905078,robocape,3.71374165919,7.57853053318,24.1145372206,0.0,10.0,0.0,0.0,0.0,10.0,0.0,0.0,0.0,10.0,-0.015579492377,0.0189084437396,0.0394147841332,1.0,0.0,0.0,0.0,1.0,0.0,0.0,0.0,1.0,-0.0981958007813,0.40236328125,10.1033898926,0.1,0.0,0.0,0.0,0.1,0.0,0.0,0.0,0.1
1446038823543266735,99,1446038823540194988,robocape,3.73608528216,7.60202787391,24.0698968236,0.0,10.0,0.0,0.0,0.0,10.0,0.0,0.0,0.0,10.0,0.017177389031,0.0202400242846,0.0033289513626,1.0,0.0,0.0,0.0,1.0,0.0,0.0,0.0,1.0,-0.0778381347656,0.336500244141,10.0794396973,0.1,0.0,0.0,0.0,0.1,0.0,0.0,0.0,0.1
1446038823576704735,100,1446038823573589086,robocape,3.77907755636,7.62484538142,24.0363529085,0.0,10.0,0.0,0.0,0.0,10.0,0.0,0.0,0.0,10.0,0.0272974011733,0.0203731823391,0.00932106381528,1.0,0.0,0.0,0.0,1.0,0.0,0.0,0.0,1.0,-0.0275427246094,0.416733398438,9.97884887695,0.1,0.0,0.0,0.0,0.1,0.0,0.0,0.0,0.1
1446038823610131944,101,1446038823607099056,robocape,3.84361486282,7.64401607929,24.0034004183,0.0,10.0,0.0,0.0,0.0,10.0,0.0,0.0,0.0,10.0,0.0386158358061,0.0185089695761,0.00972053797879,1.0,0.0,0.0,0.0,1.0,0.0,0.0,0.0,1.0,-0.0419128417969,0.405955810547,9.99561401367,0.1,0.0,0.0,0.0,0.1,0.0,0.0,0.0,0.1
1446038823643591027,102,1446038823640557050,robocape,3.89209923922,7.66121727098,24.0004954396,0.0,10.0,0.0,0.0,0.0,10.0,0.0,0.0,0.0,10.0,0.0282295075548,0.0187752856851,0.0259658206283,1.0,0.0,0.0,0.0,1.0,0.0,0.0,0.0,1.0,-0.0610729980469,0.398770751953,10.0303417969,0.1,0.0,0.0,0.0,0.1,0.0,0.0,0.0,0.1
1446038823676815027,103,1446038823673602104,robocape,3.96967511483,7.67959316794,23.9761832395,0.0,10.0,0.0,0.0,0.0,10.0,0.0,0.0,0.0,10.0,0.0450074224223,0.0185089695761,0.0143810698864,1.0,0.0,0.0,0.0,1.0,0.0,0.0,0.0,1.0,-0.0455053710938,0.403560791016,10.039921875,0.1,0.0,0.0,0.0,0.1,0.0,0.0,0.0,0.1
1446038823709983777,104,1446038823706954002,robocape,4.04605747803,7.70087056798,23.9381222485,0.0,10.0,0.0,0.0,0.0,10.0,0.0,0.0,0.0,10.0,0.0454068965859,0.0194410759576,0.0067910607797,1.0,0.0,0.0,0.0,1.0,0.0,0.0,0.0,1.0,-0.0455053710938,0.620310058594,10.019564209,0.1,0.0,0.0,0.0,0.1,0.0,0.0,0.0,0.1
1446038823743517027,105,1446038823740289926,robocape,4.08773070631,7.72009009831,23.8977696613,0.0,10.0,0.0,0.0,0.0,10.0,0.0,0.0,0.0,10.0,0.0274305592278,0.018242653467,0.00545948023466,1.0,0.0,0.0,0.0,1.0,0.0,0.0,0.0,1.0,-0.0455053710938,0.627495117188,10.0315393066,0.1,0.0,0.0,0.0,0.1,0.0,0.0,0.0,0.1
1446038823776922444,106,1446038823773653030,robocape,4.07406749415,7.74017255214,23.8598078795,0.0,10.0,0.0,0.0,0.0,10.0,0.0,0.0,0.0,10.0,-0.00173105470855,0.0187752856851,0.00652474467069,1.0,0.0,0.0,0.0,1.0,0.0,0.0,0.0,1.0,-0.047900390625,0.586779785156,10.0147741699,0.1,0.0,0.0,0.0,0.1,0.0,0.0,0.0,0.1
1446038823809786694,107,1446038823806761980,robocape,4.02139891652,7.76016855711,23.8201565863,0.0,10.0,0.0,0.0,0.0,10.0,0.0,0.0,0.0,10.0,-0.0221042370477,0.0186421276306,0.00545948023466,1.0,0.0,0.0,0.0,1.0,0.0,0.0,0.0,1.0,-0.0610729980469,0.547261962891,10.0626745605,0.1,0.0,0.0,0.0,0.1,0.0,0.0,0.0,0.1
1446038823843996402,108,1446038823840178966,robocape,3.95633224937,7.77818425386,23.7857216143,0.0,10.0,0.0,0.0,0.0,10.0,0.0,0.0,0.0,10.0,-0.0290284558819,0.0178431793035,0.00825579937925,1.0,0.0,0.0,0.0,1.0,0.0,0.0,0.0,1.0,-0.0419128417969,0.486188964844,9.9980090332,0.1,0.0,0.0,0.0,0.1,0.0,0.0,0.0,0.1
1446038823876784986,109,1446038823873507976,robocape,3.92604861249,7.7951376968,23.7388820935,0.0,10.0,0.0,0.0,0.0,10.0,0.0,0.0,0.0,10.0,-0.0099868540878,0.0167779148675,0.00159789665405,1.0,0.0,0.0,0.0,1.0,0.0,0.0,0.0,1.0,-0.0467028808594,0.244291992188,10.0099841309,0.1,0.0,0.0,0.0,0.1,0.0,0.0,0.0,0.1
1446038823910293527,110,1446038823907144069,robocape,3.94407297907,7.81494959067,23.6963395835,0.0,10.0,0.0,0.0,0.0,10.0,0.0,0.0,0.0,10.0,0.0150468601589,0.0185089695761,0.00386158358061,1.0,0.0,0.0,0.0,1.0,0.0,0.0,0.0,1.0,-0.0407153320313,0.352067871094,10.0016015625,0.1,0.0,0.0,0.0,0.1,0.0,0.0,0.0,0.1
1446038823943550069,111,1446038823940363883,robocape,4.00896467098,7.83502539464,23.6498374462,0.0,10.0,0.0,0.0,0.0,10.0,0.0,0.0,0.0,10.0,0.0399474163512,0.0185089695761,0.00173105470855,1.0,0.0,0.0,0.0,1.0,0.0,0.0,0.0,1.0,-0.0694555664063,0.384400634766,10.0279467773,0.1,0.0,0.0,0.0,0.1,0.0,0.0,0.0,0.1
1446038823977987444,112,1446038823974864959,robocape,4.1263478668,7.85880773448,23.5505688508,0.0,10.0,0.0,0.0,0.0,10.0,0.0,0.0,0.0,10.0,0.0712395591596,0.0181094954125,-0.0268979270098,1.0,0.0,0.0,0.0,1.0,0.0,0.0,0.0,1.0,-0.0658630371094,0.439486083984,10.060279541,0.1,0.0,0.0,0.0,0.1,0.0,0.0,0.0,0.1
1446038824010224152,113,1446038824007210969,robocape,4.15191101889,7.88295737837,23.4611401247,0.0,10.0,0.0,0.0,0.0,10.0,0.0,0.0,0.0,10.0,0.0225037112112,0.0186421276306,-0.0219710789932,1.0,0.0,0.0,0.0,1.0,0.0,0.0,0.0,1.0,-0.0538879394531,1.03345092773,10.0123791504,0.1,0.0,0.0,0.0,0.1,0.0,0.0,0.0,0.1
1446038824043434902,114,1446038824040380954,robocape,4.02565433767,7.90041790738,23.4247409478,0.0,10.0,0.0,0.0,0.0,10.0,0.0,0.0,0.0,10.0,-0.0608532309083,0.01744370514,0.00639158661619,1.0,0.0,0.0,0.0,1.0,0.0,0.0,0.0,1.0,-0.0263452148438,0.781973876953,10.0159716797,0.1,0.0,0.0,0.0,0.1,0.0,0.0,0.0,0.1
1446038824076981944,115,1446038824073987007,robocape,3.91988263595,7.96489013322,23.4906758564,0.0,10.0,0.0,0.0,0.0,10.0,0.0,0.0,0.0,10.0,-0.0573911214912,0.0467384771309,0.0603205986903,1.0,0.0,0.0,0.0,1.0,0.0,0.0,0.0,1.0,-0.152083740234,-0.683778076172,9.76928466797,0.1,0.0,0.0,0.0,0.1,0.0,0.0,0.0,0.1
1446038824110083527,116,1446038824107043027,robocape,4.11827404038,8.07538930299,23.4421971169,0.0,10.0,0.0,0.0,0.0,10.0,0.0,0.0,0.0,10.0,0.110254869129,0.0661795530885,-0.00213052887206,1.0,0.0,0.0,0.0,1.0,0.0,0.0,0.0,1.0,-0.313747558594,0.0323327636719,10.438692627,0.1,0.0,0.0,0.0,0.1,0.0,0.0,0.0,0.1
1446038824143282527,117,1446038824140248060,robocape,4.43514829582,8.14023983082,23.3261408111,0.0,10.0,0.0,0.0,0.0,10.0,0.0,0.0,0.0,10.0,0.177499686654,0.0391484680242,-0.0371510972066,1.0,0.0,0.0,0.0,1.0,0.0,0.0,0.0,1.0,-0.135318603516,1.07536376953,10.2027832031,0.1,0.0,0.0,0.0,0.1,0.0,0.0,0.0,0.1
1446038824179418027,118,1446038824175652027,robocape,4.49592340063,8.16819490876,23.2806331135,0.0,10.0,0.0,0.0,0.0,10.0,0.0,0.0,0.0,10.0,0.0383495196971,0.0229031853747,0.00133158054504,1.0,0.0,0.0,0.0,1.0,0.0,0.0,0.0,1.0,0.314945068359,1.4980847168,9.99681152344,0.1,0.0,0.0,0.0,0.1,0.0,0.0,0.0,0.1
1446038824211825402,119,1446038824208420991,robocape,4.36113382234,8.16733445306,23.2430280057,0.0,10.0,0.0,0.0,0.0,10.0,0.0,0.0,0.0,10.0,-0.0648479725434,0.00798948327024,0.00599211245268,1.0,0.0,0.0,0.0,1.0,0.0,0.0,0.0,1.0,0.504151611328,1.08614135742,9.93693603516,0.1,0.0,0.0,0.0,0.1,0.0,0.0,0.0,0.1
1446038824243354027,120,1446038824240092992,robocape,4.27161572475,8.17067118549,23.239392645,0.0,10.0,0.0,0.0,0.0,10.0,0.0,0.0,0.0,10.0,-0.0436758418773,0.0118510668509,0.0242347659197,1.0,0.0,0.0,0.0,1.0,0.0,0.0,0.0,1.0,-0.467028808594,-0.484991455078,10.1644628906,0.1,0.0,0.0,0.0,0.1,0.0,0.0,0.0,0.1
1446038824277049236,121,1446038824273638010,robocape,4.48481056917,8.20836793945,23.1785239224,0.0,10.0,0.0,0.0,0.0,10.0,0.0,0.0,0.0,10.0,0.119309616836,0.0274305592278,-0.00705737688871,1.0,0.0,0.0,0.0,1.0,0.0,0.0,0.0,1.0,-0.179626464844,-0.373623046875,10.1201550293,0.1,0.0,0.0,0.0,0.1,0.0,0.0,0.0,0.1
1446038824310420861,122,1446038824306993007,robocape,4.82083693321,8.23237416157,23.1401363451,0.0,10.0,0.0,0.0,0.0,10.0,0.0,0.0,0.0,10.0,0.18242653467,0.0214384467751,0.00572579634367,1.0,0.0,0.0,0.0,1.0,0.0,0.0,0.0,1.0,0.298179931641,0.578397216797,10.0590820312,0.1,0.0,0.0,0.0,0.1,0.0,0.0,0.0,0.1
1446038824343691527,123,1446038824340466022,robocape,5.0536174568,8.24358465913,23.1068521875,0.0,10.0,0.0,0.0,0.0,10.0,0.0,0.0,0.0,10.0,0.128231206487,0.0149137021044,0.00865527354276,1.0,0.0,0.0,0.0,1.0,0.0,0.0,0.0,1.0,-0.342487792969,1.39030883789,9.94292358398,0.1,0.0,0.0,0.0,0.1,0.0,0.0,0.0,0.1
1446038824376834652,124,1446038824373522996,robocape,5.09739715145,8.26150567463,23.0563843928,0.0,10.0,0.0,0.0,0.0,10.0,0.0,0.0,0.0,10.0,0.0304931944814,0.0173105470855,-0.00146473859954,1.0,0.0,0.0,0.0,1.0,0.0,0.0,0.0,1.0,0.111368408203,1.39390136719,9.98244140625,0.1,0.0,0.0,0.0,0.1,0.0,0.0,0.0,0.1
1446038824410435944,125,1446038824407211065,robocape,4.79273069271,8.2670265219,23.1199489427,0.0,10.0,0.0,0.0,0.0,10.0,0.0,0.0,0.0,10.0,-0.160721771786,0.0165115987585,0.0592553342543,1.0,0.0,0.0,0.0,1.0,0.0,0.0,0.0,1.0,-0.0467028808594,1.609453125,9.81958007812,0.1,0.0,0.0,0.0,0.1,0.0,0.0,0.0,0.1
1446038824443290194,126,1446038824440169095,robocape,4.57237887655,8.29707236119,23.0337477375,0.0,10.0,0.0,0.0,0.0,10.0,0.0,0.0,0.0,10.0,-0.105860653331,0.0217047628841,-0.0218379209386,1.0,0.0,0.0,0.0,1.0,0.0,0.0,0.0,1.0,-0.259859619141,0.899329833984,10.1069824219,0.1,0.0,0.0,0.0,0.1,0.0,0.0,0.0,0.1
1446038824476791486,127,1446038824473735094,robocape,4.31342625186,8.32957137097,23.0169452245,0.0,10.0,0.0,0.0,0.0,10.0,0.0,0.0,0.0,10.0,-0.131426999795,0.0264984528463,0.015313176268,1.0,0.0,0.0,0.0,1.0,0.0,0.0,0.0,1.0,0.0886157226563,0.17244140625,10.1309326172,0.1,0.0,0.0,0.0,0.1,0.0,0.0,0.0,0.1
1446038824510095277,128,1446038824507026910,robocape,4.19346794211,8.36680138654,22.9494629514,0.0,10.0,0.0,0.0,0.0,10.0,0.0,0.0,0.0,10.0,-0.0549942765101,0.0267647689553,-0.0117179087963,1.0,0.0,0.0,0.0,1.0,0.0,0.0,0.0,1.0,-0.310155029297,-0.294587402344,9.99920654297,0.1,0.0,0.0,0.0,0.1,0.0,0.0,0.0,0.1
1446038824543373028,129,1446038824540298938,robocape,4.24794256109,8.36534389236,22.9404276119,0.0,10.0,0.0,0.0,0.0,10.0,0.0,0.0,0.0,10.0,0.0320910911355,0.00932106381528,0.0213052887206,1.0,0.0,0.0,0.0,1.0,0.0,0.0,0.0,1.0,0.0658630371094,0.24908203125,10.193203125,0.1,0.0,0.0,0.0,0.1,0.0,0.0,0.0,0.1
1446038824577814694,130,1446038824574682950,robocape,4.37705691592,8.37740751414,22.945506614,0.0,10.0,0.0,0.0,0.0,10.0,0.0,0.0,0.0,10.0,0.0703074527781,0.017177389031,0.0286289817184,1.0,0.0,0.0,0.0,1.0,0.0,0.0,0.0,1.0,-0.0490979003906,-0.123343505859,10.2482885742,0.1,0.0,0.0,0.0,0.1,0.0,0.0,0.0,0.1
1446038824611166653,131,1446038824608037948,robocape,4.70225437137,8.40457287894,22.8792035755,0.0,10.0,0.0,0.0,0.0,10.0,0.0,0.0,0.0,10.0,0.178698109144,0.0218379209386,-0.00985369603329,1.0,0.0,0.0,0.0,1.0,0.0,0.0,0.0,1.0,-0.349672851562,0.170046386719,9.98244140625,0.1,0.0,0.0,0.0,0.1,0.0,0.0,0.0,0.1
1446038824644663278,132,1446038824641554117,robocape,4.98756449603,8.4212580297,22.8842804799,0.0,10.0,0.0,0.0,0.0,10.0,0.0,0.0,0.0,10.0,0.152865446571,0.0199737081756,0.0287621397729,1.0,0.0,0.0,0.0,1.0,0.0,0.0,0.0,1.0,0.154478759766,0.534089355469,9.93933105469,0.1,0.0,0.0,0.0,0.1,0.0,0.0,0.0,0.1
1446038824678287194,133,1446038824675247907,robocape,5.28176070305,8.44028921137,22.8255224741,0.0,10.0,0.0,0.0,0.0,10.0,0.0,0.0,0.0,10.0,0.162585984549,0.0178431793035,-0.00559263828917,1.0,0.0,0.0,0.0,1.0,0.0,0.0,0.0,1.0,-0.275427246094,1.25139770508,10.0123791504,0.1,0.0,0.0,0.0,0.1,0.0,0.0,0.0,0.1
1446038824710204361,134,1446038824707146883,robocape,5.33285713499,8.45200726612,22.856427962,0.0,10.0,0.0,0.0,0.0,10.0,0.0,0.0,0.0,10.0,0.0286289817184,0.0187752856851,0.0420779452233,1.0,0.0,0.0,0.0,1.0,0.0,0.0,0.0,1.0,0.199984130859,1.85015258789,9.91059082031,0.1,0.0,0.0,0.0,0.1,0.0,0.0,0.0,0.1
1446038824744974153,135,1446038824741903066,robocape,5.19070115375,8.48503616325,22.8464266438,0.0,10.0,0.0,0.0,0.0,10.0,0.0,0.0,0.0,10.0,-0.0697748205601,0.0274305592278,0.0186421276306,1.0,0.0,0.0,0.0,1.0,0.0,0.0,0.0,1.0,-0.264649658203,1.59747802734,10.172845459,0.1,0.0,0.0,0.0,0.1,0.0,0.0,0.0,0.1
1446038824778418736,136,1446038824775352954,robocape,4.955063868,8.5171461178,22.8348115448,0.0,10.0,0.0,0.0,0.0,10.0,0.0,0.0,0.0,10.0,-0.118910142672,0.0267647689553,0.0175768631945,1.0,0.0,0.0,0.0,1.0,0.0,0.0,0.0,1.0,0.0395178222656,0.359252929688,10.0051940918,0.1,0.0,0.0,0.0,0.1,0.0,0.0,0.0,0.1
1446038824815026778,137,1446038824811321973,robocape,4.82095490664,8.55640389324,22.8098593658,0.0,10.0,0.0,0.0,0.0,10.0,0.0,0.0,0.0,10.0,-0.0648479725434,0.0299605622634,0.0105194863058,1.0,0.0,0.0,0.0,1.0,0.0,0.0,0.0,1.0,-0.0586779785156,0.55564453125,10.0087866211,0.1,0.0,0.0,0.0,0.1,0.0,0.0,0.0,0.1
1446038824843965694,138,1446038824840831041,robocape,4.65111303605,8.60342780821,22.7726813374,0.0,10.0,0.0,0.0,0.0,10.0,0.0,0.0,0.0,10.0,-0.0828243099015,0.0334226716805,0.00359526747161,1.0,0.0,0.0,0.0,1.0,0.0,0.0,0.0,1.0,-0.118553466797,0.767603759766,10.0375268555,0.1,0.0,0.0,0.0,0.1,0.0,0.0,0.0,0.1
1446038824878100236,139,1446038824875037908,robocape,4.5108112258,8.6474224353,22.7811576925,0.0,10.0,0.0,0.0,0.0,10.0,0.0,0.0,0.0,10.0,-0.0709732430506,0.0342216200075,0.0283626656093,1.0,0.0,0.0,0.0,1.0,0.0,0.0,0.0,1.0,0.108973388672,0.245489501953,9.9249609375,0.1,0.0,0.0,0.0,0.1,0.0,0.0,0.0,0.1
1446038824912037278,140,1446038824908948898,robocape,4.42558896139,8.75395516378,22.7416344524,0.0,10.0,0.0,0.0,0.0,10.0,0.0,0.0,0.0,10.0,-0.0384826777516,0.0648479725434,0.00066579027252,1.0,0.0,0.0,0.0,1.0,0.0,0.0,0.0,1.0,0.144898681641,0.405955810547,9.81,0.1,0.0,0.0,0.0,0.1,0.0,0.0,0.0,0.1
1446038824946774403,141,1446038824943593978,robocape,4.46344847065,8.94548997289,22.6295645484,0.0,10.0,0.0,0.0,0.0,10.0,0.0,0.0,0.0,10.0,0.0318247750264,0.106260127494,-0.0408795227327,1.0,0.0,0.0,0.0,1.0,0.0,0.0,0.0,1.0,-0.293389892578,0.225131835938,10.0327368164,0.1,0.0,0.0,0.0,0.1,0.0,0.0,0.0,0.1
1446038824981532944,142,1446038824976988077,robocape,4.5020886437,9.12330101889,22.5682606249,0.0,10.0,0.0,0.0,0.0,10.0,0.0,0.0,0.0,10.0,0.0283626656093,0.101732753641,-0.0133158054504,1.0,0.0,0.0,0.0,1.0,0.0,0.0,0.0,1.0,-0.310155029297,0.907712402344,10.1632653809,0.1,0.0,0.0,0.0,0.1,0.0,0.0,0.0,0.1
1446038825012852528,143,1446038825009759902,robocape,4.42486139006,9.29040668247,22.4839679947,0.0,10.0,0.0,0.0,0.0,10.0,0.0,0.0,0.0,10.0,-0.0304931944814,0.0950748509158,-0.0255663464648,1.0,0.0,0.0,0.0,1.0,0.0,0.0,0.0,1.0,-0.238304443359,0.680185546875,9.88424560547,0.1,0.0,0.0,0.0,0.1,0.0,0.0,0.0,0.1
1446038825048652694,144,1446038825045180082,robocape,4.32378373377,9.49397535669,22.3779975498,0.0,10.0,0.0,0.0,0.0,10.0,0.0,0.0,0.0,10.0,-0.0411458388417,0.113450662437,-0.0383495196971,1.0,0.0,0.0,0.0,1.0,0.0,0.0,0.0,1.0,-0.0119750976563,0.625100097656,10.0411193848,0.1,0.0,0.0,0.0,0.1,0.0,0.0,0.0,0.1
1446038825081279694,145,1446038825077940940,robocape,4.17473480008,9.66240143478,22.3188210676,0.0,10.0,0.0,0.0,0.0,10.0,0.0,0.0,0.0,10.0,-0.0703074527781,0.0974716958969,-0.0121173829599,1.0,0.0,0.0,0.0,1.0,0.0,0.0,0.0,1.0,-0.317340087891,0.634680175781,10.1476977539,0.1,0.0,0.0,0.0,0.1,0.0,0.0,0.0,0.1
1446038825114355486,146,1446038825110775947,robocape,4.01552017479,9.79243331376,22.2394695029,0.0,10.0,0.0,0.0,0.0,10.0,0.0,0.0,0.0,10.0,-0.0740358783042,0.0765658813398,-0.0215716048296,1.0,0.0,0.0,0.0,1.0,0.0,0.0,0.0,1.0,-0.0622705078125,0.443078613281,10.0327368164,0.1,0.0,0.0,0.0,0.1,0.0,0.0,0.0,0.1
1446038825147581736,147,1446038825144222974,robocape,3.8855268579,9.90417188993,22.143905828,0.0,10.0,0.0,0.0,0.0,10.0,0.0,0.0,0.0,10.0,-0.0573911214912,0.0664458691975,-0.0295610880999,1.0,0.0,0.0,0.0,1.0,0.0,0.0,0.0,1.0,-0.366437988281,0.205971679688,10.1488952637,0.1,0.0,0.0,0.0,0.1,0.0,0.0,0.0,0.1
1446038825183419153,148,1446038825180243015,robocape,3.84787981277,9.95814142363,22.0963861101,0.0,10.0,0.0,0.0,0.0,10.0,0.0,0.0,0.0,10.0,-0.0133158054504,0.0383495196971,-0.00213052887206,1.0,0.0,0.0,0.0,1.0,0.0,0.0,0.0,1.0,-0.669407958984,0.320932617188,10.0878222656,0.1,0.0,0.0,0.0,0.1,0.0,0.0,0.0,0.1
1446038825214455153,149,1446038825210968017,robocape,3.86411545396,9.95985122859,22.0859769134,0.0,10.0,0.0,0.0,0.0,10.0,0.0,0.0,0.0,10.0,0.0115847507418,0.0125168571234,0.0191747598486,1.0,0.0,0.0,0.0,1.0,0.0,0.0,0.0,1.0,-0.384400634766,0.263452148438,10.1453027344,0.1,0.0,0.0,0.0,0.1,0.0,0.0,0.0,0.1
1446038825246828945,150,1446038825243360996,robocape,3.89371425368,9.96118655368,22.0827603874,0.0,10.0,0.0,0.0,0.0,10.0,0.0,0.0,0.0,10.0,0.017976337358,0.0126500151779,0.0230363434292,1.0,0.0,0.0,0.0,1.0,0.0,0.0,0.0,1.0,-0.0922082519531,0.434696044922,10.0255517578,0.1,0.0,0.0,0.0,0.1,0.0,0.0,0.0,0.1
1446038825280513820,151,1446038825277101039,robocape,3.93666967227,9.96415674435,22.0390225275,0.0,10.0,0.0,0.0,0.0,10.0,0.0,0.0,0.0,10.0,0.0286289817184,0.0117179087963,0.00133158054504,1.0,0.0,0.0,0.0,1.0,0.0,0.0,0.0,1.0,-0.451461181641,0.469423828125,10.0219592285,0.1,0.0,0.0,0.0,0.1,0.0,0.0,0.0,0.1
1446038825313932070,152,1446038825310722112,robocape,3.97273116048,9.93066132293,22.0206727598,0.0,10.0,0.0,0.0,0.0,10.0,0.0,0.0,0.0,10.0,0.0227700273202,-0.00639158661619,0.015845808486,1.0,0.0,0.0,0.0,1.0,0.0,0.0,0.0,1.0,-0.501756591797,0.822689208984,10.1141674805,0.1,0.0,0.0,0.0,0.1,0.0,0.0,0.0,0.1
1446038825346689153,153,1446038825343570947,robocape,3.91487137586,9.81205653529,22.0288797782,0.0,10.0,0.0,0.0,0.0,10.0,0.0,0.0,0.0,10.0,-0.0288952978274,-0.050200586548,0.03222424919,1.0,0.0,0.0,0.0,1.0,0.0,0.0,0.0,1.0,-0.506546630859,0.506546630859,10.213560791,0.1,0.0,0.0,0.0,0.1,0.0,0.0,0.0,0.1
1446038825379394153,154,1446038825376149892,robocape,3.9103549944,9.66299125433,21.9664543538,0.0,10.0,0.0,0.0,0.0,10.0,0.0,0.0,0.0,10.0,0.00519316412565,-0.0695085044511,-0.00466053190764,1.0,0.0,0.0,0.0,1.0,0.0,0.0,0.0,1.0,-0.154478759766,0.123343505859,10.249486084,0.1,0.0,0.0,0.0,0.1,0.0,0.0,0.0,0.1
1446038825413861236,155,1446038825410763025,robocape,3.91033696332,9.55063942469,21.8800604664,0.0,10.0,0.0,0.0,0.0,10.0,0.0,0.0,0.0,10.0,0.00958737992429,-0.0513990090385,-0.0186421276306,1.0,0.0,0.0,0.0,1.0,0.0,0.0,0.0,1.0,-0.0898132324219,0.455053710938,9.74533447266,0.1,0.0,0.0,0.0,0.1,0.0,0.0,0.0,0.1
1446038825446128528,156,1446038825443092107,robocape,3.92019165596,9.54594347165,21.8207468015,0.0,10.0,0.0,0.0,0.0,10.0,0.0,0.0,0.0,10.0,0.0125168571234,0.00639158661619,-0.00732369299772,1.0,0.0,0.0,0.0,1.0,0.0,0.0,0.0,1.0,-0.239501953125,0.128133544922,10.0459094238,0.1,0.0,0.0,0.0,0.1,0.0,0.0,0.0,0.1
1446038825478879903,157,1446038825475645065,robocape,3.9678610319,9.54665835816,21.7304197889,0.0,10.0,0.0,0.0,0.0,10.0,0.0,0.0,0.0,10.0,0.0350205683345,0.00785632521573,-0.0241016078652,1.0,0.0,0.0,0.0,1.0,0.0,0.0,0.0,1.0,-0.282612304688,0.686173095703,9.93334350586,0.1,0.0,0.0,0.0,0.1,0.0,0.0,0.0,0.1
1446038825512517903,158,1446038825509455919,robocape,4.03850894608,9.58317493639,21.7482836434,0.0,10.0,0.0,0.0,0.0,10.0,0.0,0.0,0.0,10.0,0.0379500455336,0.0315584589174,0.0326237233535,1.0,0.0,0.0,0.0,1.0,0.0,0.0,0.0,1.0,0.138911132813,-0.275427246094,10.1165625,0.1,0.0,0.0,0.0,0.1,0.0,0.0,0.0,0.1
1446038825546322278,159,1446038825543205022,robocape,4.18063571211,9.59942434465,21.7259064694,0.0,10.0,0.0,0.0,0.0,10.0,0.0,0.0,0.0,10.0,0.0789627263208,0.0191747598486,0.0118510668509,1.0,0.0,0.0,0.0,1.0,0.0,0.0,0.0,1.0,-0.531694335938,0.827479248047,9.99681152344,0.1,0.0,0.0,0.0,0.1,0.0,0.0,0.0,0.1
1446038825578728195,160,1446038825575555086,robocape,4.22852946539,9.60554161725,21.69365057,0.0,10.0,0.0,0.0,0.0,10.0,0.0,0.0,0.0,10.0,0.0304931944814,0.0133158054504,0.0066579027252,1.0,0.0,0.0,0.0,1.0,0.0,0.0,0.0,1.0,-0.0682580566406,0.783171386719,10.1237475586,0.1,0.0,0.0,0.0,0.1,0.0,0.0,0.0,0.1
1446038825611246070,161,1446038825608151912,robocape,4.29945645262,9.58180955003,21.7034990675,0.0,10.0,0.0,0.0,0.0,10.0,0.0,0.0,0.0,10.0,0.0390153099697,-0.000399474163512,0.0300937203179,1.0,0.0,0.0,0.0,1.0,0.0,0.0,0.0,1.0,-0.00718505859375,0.380808105469,10.1141674805,0.1,0.0,0.0,0.0,0.1,0.0,0.0,0.0,0.1
1446038825644373361,162,1446038825641263961,robocape,4.41745193352,9.55106621337,21.730851339,0.0,10.0,0.0,0.0,0.0,10.0,0.0,0.0,0.0,10.0,0.0623179695079,-0.0031957933081,0.0398142582967,1.0,0.0,0.0,0.0,1.0,0.0,0.0,0.0,1.0,-0.422720947266,0.3065625,10.0207617188,0.1,0.0,0.0,0.0,0.1,0.0,0.0,0.0,0.1
1446038825677881861,163,1446038825674653053,robocape,4.52681936917,9.54250080716,21.7664396732,0.0,10.0,0.0,0.0,0.0,10.0,0.0,0.0,0.0,10.0,0.0572579634367,0.00892158965177,0.0435426838228,1.0,0.0,0.0,0.0,1.0,0.0,0.0,0.0,1.0,-0.101788330078,0.896934814453,9.99561401367,0.1,0.0,0.0,0.0,0.1,0.0,0.0,0.0,0.1
1446038825711324611,164,1446038825708241939,robocape,4.52328532432,9.56288177437,21.7140347648,0.0,10.0,0.0,0.0,0.0,10.0,0.0,0.0,0.0,10.0,0.00559263828917,0.0197073920666,-0.00466053190764,1.0,0.0,0.0,0.0,1.0,0.0,0.0,0.0,1.0,-0.140108642578,0.9580078125,10.0339343262,0.1,0.0,0.0,0.0,0.1,0.0,0.0,0.0,0.1
1446038825743743695,165,1446038825740617990,robocape,4.39568782079,9.58542960364,21.6756438825,0.0,10.0,0.0,0.0,0.0,10.0,0.0,0.0,0.0,10.0,-0.0607200728538,0.0214384467751,0.00239684498107,1.0,0.0,0.0,0.0,1.0,0.0,0.0,0.0,1.0,-0.265847167969,1.05500610352,9.97884887695,0.1,0.0,0.0,0.0,0.1,0.0,0.0,0.0,0.1
1446038825776863861,166,1446038825773638963,robocape,4.17276744272,9.61797403288,21.6003790705,0.0,10.0,0.0,0.0,0.0,10.0,0.0,0.0,0.0,10.0,-0.107724866094,0.0249005561922,-0.0178431793035,1.0,0.0,0.0,0.0,1.0,0.0,0.0,0.0,1.0,-0.289797363281,0.591569824219,10.1057849121,0.1,0.0,0.0,0.0,0.1,0.0,0.0,0.0,0.1
1446038825810772195,167,1446038825807008981,robocape,3.98764973188,9.65631308992,21.5537325155,0.0,10.0,0.0,0.0,0.0,10.0,0.0,0.0,0.0,10.0,-0.0905474770627,0.0294279300454,-0.00266316109008,1.0,0.0,0.0,0.0,1.0,0.0,0.0,0.0,1.0,-0.150886230469,0.379610595703,9.90580078125,0.1,0.0,0.0,0.0,0.1,0.0,0.0,0.0,0.1
1446038825843650570,168,1446038825840437889,robocape,3.74662272846,9.74068373106,21.5325174472,0.0,10.0,0.0,0.0,0.0,10.0,0.0,0.0,0.0,10.0,-0.122239094035,0.0548611184556,0.00958737992429,1.0,0.0,0.0,0.0,1.0,0.0,0.0,0.0,1.0,0.107775878906,0.774788818359,9.86867797852,0.1,0.0,0.0,0.0,0.1,0.0,0.0,0.0,0.1
1446038825876603445,169,1446038825873492002,robocape,3.47697255596,9.82155406436,21.4858381368,0.0,10.0,0.0,0.0,0.0,10.0,0.0,0.0,0.0,10.0,-0.135288583376,0.052064799311,-0.00372842552611,1.0,0.0,0.0,0.0,1.0,0.0,0.0,0.0,1.0,-0.119750976563,0.32572265625,10.132130127,0.1,0.0,0.0,0.0,0.1,0.0,0.0,0.0,0.1
1446038825910605361,170,1446038825907491922,robocape,3.30357132424,9.88913087852,21.4290150396,0.0,10.0,0.0,0.0,0.0,10.0,0.0,0.0,0.0,10.0,-0.0841558904465,0.0448742643678,-0.00852211548825,1.0,0.0,0.0,0.0,1.0,0.0,0.0,0.0,1.0,-0.583187255859,-0.3065625,10.0315393066,0.1,0.0,0.0,0.0,0.1,0.0,0.0,0.0,0.1
1446038825943589403,171,1446038825940340995,robocape,3.26153632284,9.96617521299,21.3864386721,0.0,10.0,0.0,0.0,0.0,10.0,0.0,0.0,0.0,10.0,-0.016644756813,0.0506000607115,-0.000932106381528,1.0,0.0,0.0,0.0,1.0,0.0,0.0,0.0,1.0,-0.379610595703,0.228724365234,10.0950073242,0.1,0.0,0.0,0.0,0.1,0.0,0.0,0.0,0.1
1446038825976830612,172,1446038825973788976,robocape,3.25351808389,10.0303128096,21.2931826527,0.0,10.0,0.0,0.0,0.0,10.0,0.0,0.0,0.0,10.0,0.00572579634367,0.0419447871687,-0.0276968753368,1.0,0.0,0.0,0.0,1.0,0.0,0.0,0.0,1.0,-0.217946777344,0.546064453125,10.0614770508,0.1,0.0,0.0,0.0,0.1,0.0,0.0,0.0,0.1
1446038826009969528,173,1446038826006912946,robocape,3.26474582897,10.1190543951,21.2415375009,0.0,10.0,0.0,0.0,0.0,10.0,0.0,0.0,0.0,10.0,0.0121173829599,0.0565921731642,-0.00612527050718,1.0,0.0,0.0,0.0,1.0,0.0,0.0,0.0,1.0,-0.215551757813,-0.01916015625,10.003996582,0.1,0.0,0.0,0.0,0.1,0.0,0.0,0.0,0.1
1446038826043463028,174,1446038826040363073,robocape,3.26989213095,10.2288208691,21.2138377366,0.0,10.0,0.0,0.0,0.0,10.0,0.0,0.0,0.0,10.0,0.0067910607797,0.068709556124,0.00612527050718,1.0,0.0,0.0,0.0,1.0,0.0,0.0,0.0,1.0,-0.190404052734,0.581989746094,10.0506994629,0.1,0.0,0.0,0.0,0.1,0.0,0.0,0.0,0.1
1446038826077018403,175,1446038826073998928,robocape,3.16231576883,10.3129830724,21.1857704916,0.0,10.0,0.0,0.0,0.0,10.0,0.0,0.0,0.0,10.0,-0.0523311154201,0.0552605926191,0.00639158661619,1.0,0.0,0.0,0.0,1.0,0.0,0.0,0.0,1.0,-0.390388183594,0.675395507813,10.100994873,0.1,0.0,0.0,0.0,0.1,0.0,0.0,0.0,0.1
1446038826110929070,176,1446038826107844114,robocape,3.01845003343,10.3564908455,21.206254528,0.0,10.0,0.0,0.0,0.0,10.0,0.0,0.0,0.0,10.0,-0.0760332491218,0.0356863586071,0.0331563555715,1.0,0.0,0.0,0.0,1.0,0.0,0.0,0.0,1.0,-0.124541015625,0.160466308594,10.1213525391,0.1,0.0,0.0,0.0,0.1,0.0,0.0,0.0,0.1
1446038826143269612,177,1446038826140261888,robocape,2.90707521521,10.4076011613,21.1325721171,0.0,10.0,0.0,0.0,0.0,10.0,0.0,0.0,0.0,10.0,-0.0503337446025,0.0363521488796,-0.0170442309765,1.0,0.0,0.0,0.0,1.0,0.0,0.0,0.0,1.0,-0.799936523438,0.0610729980469,10.1153649902,0.1,0.0,0.0,0.0,0.1,0.0,0.0,0.0,0.1
1446038826177127737,178,1446038826173928976,robocape,2.77589329003,10.4657982528,21.0861830892,0.0,10.0,0.0,0.0,0.0,10.0,0.0,0.0,0.0,10.0,-0.0633832339439,0.0411458388417,-0.00266316109008,1.0,0.0,0.0,0.0,1.0,0.0,0.0,0.0,1.0,-0.125738525391,0.504151611328,10.1033898926,0.1,0.0,0.0,0.0,0.1,0.0,0.0,0.0,0.1
1446038826211042737,179,1446038826207914113,robocape,2.72903062319,10.5553518483,20.980177195,0.0,10.0,0.0,0.0,0.0,10.0,0.0,0.0,0.0,10.0,-0.0135821215594,0.0557932248372,-0.03488741028,1.0,0.0,0.0,0.0,1.0,0.0,0.0,0.0,1.0,-0.366437988281,-0.0311352539063,10.0363293457,0.1,0.0,0.0,0.0,0.1,0.0,0.0,0.0,0.1
1446038826243261278,180,1446038826240080118,robocape,2.70021299428,10.6497460691,20.9329653231,0.0,10.0,0.0,0.0,0.0,10.0,0.0,0.0,0.0,10.0,-0.00972053797879,0.0604537567448,-0.00372842552611,1.0,0.0,0.0,0.0,1.0,0.0,0.0,0.0,1.0,-0.15328125,-0.159268798828,10.1165625,0.1,0.0,0.0,0.0,0.1,0.0,0.0,0.0,0.1
1446038826276758570,181,1446038826273524045,robocape,2.70548274029,10.7256056004,20.9122090666,0.0,10.0,0.0,0.0,0.0,10.0,0.0,0.0,0.0,10.0,0.00559263828917,0.0516653251475,0.0106526443603,1.0,0.0,0.0,0.0,1.0,0.0,0.0,0.0,1.0,-0.637075195313,0.17244140625,10.0351318359,0.1,0.0,0.0,0.0,0.1,0.0,0.0,0.0,0.1
1446038826310127987,182,1446038826307039022,robocape,2.69464177665,10.7765364326,20.8729660797,0.0,10.0,0.0,0.0,0.0,10.0,0.0,0.0,0.0,10.0,-0.00106526443603,0.0379500455336,0.00119842249054,1.0,0.0,0.0,0.0,1.0,0.0,0.0,0.0,1.0,-0.263452148438,0.464633789063,10.1979931641,0.1,0.0,0.0,0.0,0.1,0.0,0.0,0.0,0.1
1446038826343004112,183,1446038826339968919,robocape,2.65963253746,10.8135950365,20.8524179252,0.0,10.0,0.0,0.0,0.0,10.0,0.0,0.0,0.0,10.0,-0.015579492377,0.0312921428084,0.0113184346328,1.0,0.0,0.0,0.0,1.0,0.0,0.0,0.0,1.0,-0.382005615234,0.261057128906,9.90101074219,0.1,0.0,0.0,0.0,0.1,0.0,0.0,0.0,0.1
1446038826376620403,184,1446038826373397111,robocape,2.65379763125,10.9204764169,20.8411790996,0.0,10.0,0.0,0.0,0.0,10.0,0.0,0.0,0.0,10.0,-0.00119842249054,0.0685763980695,0.0151800182135,1.0,0.0,0.0,0.0,1.0,0.0,0.0,0.0,1.0,-0.0934057617188,-0.130528564453,10.100994873,0.1,0.0,0.0,0.0,0.1,0.0,0.0,0.0,0.1
1446038826410317695,185,1446038826407099008,robocape,2.74079235427,10.9857420096,20.8146118041,0.0,10.0,0.0,0.0,0.0,10.0,0.0,0.0,0.0,10.0,0.0490021640575,0.0462058449129,0.00772316716123,1.0,0.0,0.0,0.0,1.0,0.0,0.0,0.0,1.0,-1.46814697266,0.167651367188,10.0530944824,0.1,0.0,0.0,0.0,0.1,0.0,0.0,0.0,0.1
1446038826444189403,186,1446038826441073894,robocape,2.78459768828,11.0507883327,20.7353507572,0.0,10.0,0.0,0.0,0.0,10.0,0.0,0.0,0.0,10.0,0.0316916169719,0.0443416321498,-0.0203731823391,1.0,0.0,0.0,0.0,1.0,0.0,0.0,0.0,1.0,-0.474213867188,0.3448828125,10.0818347168,0.1,0.0,0.0,0.0,0.1,0.0,0.0,0.0,0.1
1446038826476605028,187,1446038826473557949,robocape,2.82413489023,11.1083654436,20.6691221387,0.0,10.0,0.0,0.0,0.0,10.0,0.0,0.0,0.0,10.0,0.0282295075548,0.0408795227327,-0.0134489635049,1.0,0.0,0.0,0.0,1.0,0.0,0.0,0.0,1.0,-0.546064453125,0.213156738281,10.0794396973,0.1,0.0,0.0,0.0,0.1,0.0,0.0,0.0,0.1
1446038826509760820,188,1446038826506690025,robocape,2.8509686661,11.1486443757,20.6576958164,0.0,10.0,0.0,0.0,0.0,10.0,0.0,0.0,0.0,10.0,0.016112124595,0.0336889877895,0.015845808486,1.0,0.0,0.0,0.0,1.0,0.0,0.0,0.0,1.0,-0.299377441406,0.275427246094,10.0734521484,0.1,0.0,0.0,0.0,0.1,0.0,0.0,0.0,0.1
1446038826543139487,189,1446038826539988040,robocape,2.86911833771,11.2121331215,20.6252569758,0.0,10.0,0.0,0.0,0.0,10.0,0.0,0.0,0.0,10.0,0.0137152796139,0.0452737385313,0.00426105774413,1.0,0.0,0.0,0.0,1.0,0.0,0.0,0.0,1.0,-0.372425537109,0.274229736328,9.96567626953,0.1,0.0,0.0,0.0,0.1,0.0,0.0,0.0,0.1
1446038826576801695,190,1446038826573323011,robocape,2.80968138583,11.2839945522,20.5751624045,0.0,10.0,0.0,0.0,0.0,10.0,0.0,0.0,0.0,10.0,-0.0251668723012,0.049135322112,-0.00532632218016,1.0,0.0,0.0,0.0,1.0,0.0,0.0,0.0,1.0,-0.223934326172,0.662222900391,10.0087866211,0.1,0.0,0.0,0.0,0.1,0.0,0.0,0.0,0.1
1446038826610068570,191,1446038826606694936,robocape,2.69758468581,11.3787409979,20.4994600011,0.0,10.0,0.0,0.0,0.0,10.0,0.0,0.0,0.0,10.0,-0.050200586548,0.0604537567448,-0.0193079179031,1.0,0.0,0.0,0.0,1.0,0.0,0.0,0.0,1.0,-0.665815429688,0.379610595703,10.0950073242,0.1,0.0,0.0,0.0,0.1,0.0,0.0,0.0,0.1
1446038826643356654,192,1446038826640017032,robocape,2.59081812856,11.4356605734,20.4203353596,0.0,10.0,0.0,0.0,0.0,10.0,0.0,0.0,0.0,10.0,-0.0471379512944,0.0404800485692,-0.0205063403936,1.0,0.0,0.0,0.0,1.0,0.0,0.0,0.0,1.0,-0.417930908203,0.305364990234,10.0770446777,0.1,0.0,0.0,0.0,0.1,0.0,0.0,0.0,0.1
1446038826676875404,193,1446038826673404932,robocape,2.51593696383,11.4978910895,20.3823322127,0.0,10.0,0.0,0.0,0.0,10.0,0.0,0.0,0.0,10.0,-0.0347542522255,0.0447411063133,0.00119842249054,1.0,0.0,0.0,0.0,1.0,0.0,0.0,0.0,1.0,-0.635877685547,0.111368408203,10.0051940918,0.1,0.0,0.0,0.0,0.1,0.0,0.0,0.0,0.1
1446038826709793112,194,1446038826706614017,robocape,2.41352256467,11.555113941,20.3162907826,0.0,10.0,0.0,0.0,0.0,10.0,0.0,0.0,0.0,10.0,-0.0463390029674,0.0412789968962,-0.0135821215594,1.0,0.0,0.0,0.0,1.0,0.0,0.0,0.0,1.0,-0.403560791016,0.3448828125,10.1560803223,0.1,0.0,0.0,0.0,0.1,0.0,0.0,0.0,0.1
1446038826743814820,195,1446038826740353107,robocape,2.36664370317,11.578604691,20.2821170785,0.0,10.0,0.0,0.0,0.0,10.0,0.0,0.0,0.0,10.0,-0.0206394984481,0.0245010820287,0.00372842552611,1.0,0.0,0.0,0.0,1.0,0.0,0.0,0.0,1.0,-0.562829589844,-0.312550048828,10.1429077148,0.1,0.0,0.0,0.0,0.1,0.0,0.0,0.0,0.1
1446038826776749737,196,1446038826773466110,robocape,2.4314685138,11.5888571918,20.2755460925,0.0,10.0,0.0,0.0,0.0,10.0,0.0,0.0,0.0,10.0,0.0350205683345,0.0183758115215,0.0185089695761,1.0,0.0,0.0,0.0,1.0,0.0,0.0,0.0,1.0,-0.361647949219,-0.176033935547,10.1656604004,0.1,0.0,0.0,0.0,0.1,0.0,0.0,0.0,0.1
1446038826809958779,197,1446038826806799888,robocape,2.60804475989,11.6225657906,20.2625426999,0.0,10.0,0.0,0.0,0.0,10.0,0.0,0.0,0.0,10.0,0.0944090606433,0.0306263525359,0.0147805440499,1.0,0.0,0.0,0.0,1.0,0.0,0.0,0.0,1.0,-0.550854492188,-0.0490979003906,9.99681152344,0.1,0.0,0.0,0.0,0.1,0.0,0.0,0.0,0.1
1446038826843407612,198,1446038826840298891,robocape,2.80105487494,11.6712834621,20.2448078257,0.0,10.0,0.0,0.0,0.0,10.0,0.0,0.0,0.0,10.0,0.103730124459,0.0384826777516,0.0119842249054,1.0,0.0,0.0,0.0,1.0,0.0,0.0,0.0,1.0,-0.409548339844,0.156873779297,10.0471069336,0.1,0.0,0.0,0.0,0.1,0.0,0.0,0.0,0.1
1446038826877061945,199,1446038826873780965,robocape,2.94318658663,11.7372726333,20.2562577944,0.0,10.0,0.0,0.0,0.0,10.0,0.0,0.0,0.0,10.0,0.0741690363587,0.0487358479485,0.0270310850643,1.0,0.0,0.0,0.0,1.0,0.0,0.0,0.0,1.0,-0.444276123047,0.425115966797,10.0255517578,0.1,0.0,0.0,0.0,0.1,0.0,0.0,0.0,0.1
1446038826910449029,200,1446038826907264947,robocape,3.02422300373,11.7848021085,20.2115937068,0.0,10.0,0.0,0.0,0.0,10.0,0.0,0.0,0.0,10.0,0.0482032157304,0.0370179391521,-0.00239684498107,1.0,0.0,0.0,0.0,1.0,0.0,0.0,0.0,1.0,-0.671802978516,0.656235351563,10.1141674805,0.1,0.0,0.0,0.0,0.1,0.0,0.0,0.0,0.1
1446038826945046654,201,1446038826941808938,robocape,2.99088652505,11.8181614515,20.1644518708,0.0,10.0,0.0,0.0,0.0,10.0,0.0,0.0,0.0,10.0,-0.0114515926873,0.0294279300454,-0.00359526747161,1.0,0.0,0.0,0.0,1.0,0.0,0.0,0.0,1.0,-0.483793945313,0.717308349609,10.0135766602,0.1,0.0,0.0,0.0,0.1,0.0,0.0,0.0,0.1
1446038826977752279,202,1446038826974726915,robocape,2.84408487731,11.8837038877,20.1022266461,0.0,10.0,0.0,0.0,0.0,10.0,0.0,0.0,0.0,10.0,-0.0693753463966,0.0459395288039,-0.0122505410144,1.0,0.0,0.0,0.0,1.0,0.0,0.0,0.0,1.0,-0.3448828125,0.439486083984,10.0734521484,0.1,0.0,0.0,0.0,0.1,0.0,0.0,0.0,0.1
1446038827011181654,203,1446038827008043050,robocape,2.72843087083,11.896348137,20.0072840981,0.0,10.0,0.0,0.0,0.0,10.0,0.0,0.0,0.0,10.0,-0.04966795433,0.016911072922,-0.0286289817184,1.0,0.0,0.0,0.0,1.0,0.0,0.0,0.0,1.0,-0.707728271484,0.0538879394531,10.233918457,0.1,0.0,0.0,0.0,0.1,0.0,0.0,0.0,0.1
1446038827044642404,204,1446038827041523933,robocape,2.59816218126,11.9092472426,19.9181116087,0.0,10.0,0.0,0.0,0.0,10.0,0.0,0.0,0.0,10.0,-0.0580569117637,0.0173105470855,-0.0256995045193,1.0,0.0,0.0,0.0,1.0,0.0,0.0,0.0,1.0,-0.337697753906,0.455053710938,10.1033898926,0.1,0.0,0.0,0.0,0.1,0.0,0.0,0.0,0.1
1446038827078551695,205,1446038827075333118,robocape,2.44347870725,11.9358704988,19.8486451664,0.0,10.0,0.0,0.0,0.0,10.0,0.0,0.0,0.0,10.0,-0.0731037719227,0.0253000303558,-0.015579492377,1.0,0.0,0.0,0.0,1.0,0.0,0.0,0.0,1.0,-0.416733398438,-0.0993933105469,10.0578845215,0.1,0.0,0.0,0.0,0.1,0.0,0.0,0.0,0.1
1446038827112144029,206,1446038827108800888,robocape,2.30953616503,11.9777765818,19.8156256464,0.0,10.0,0.0,0.0,0.0,10.0,0.0,0.0,0.0,10.0,-0.066312711143,0.034621094171,0.0034621094171,1.0,0.0,0.0,0.0,1.0,0.0,0.0,0.0,1.0,1.85254760742,0.560434570312,9.74054443359,0.1,0.0,0.0,0.0,0.1,0.0,0.0,0.0,0.1
1446038827144966987,207,1446038827141953945,robocape,2.08559461979,12.1893829751,19.5613779621,0.0,10.0,0.0,0.0,0.0,10.0,0.0,0.0,0.0,10.0,-0.0893490545722,0.118111194345,-0.115181717146,1.0,0.0,0.0,0.0,1.0,0.0,0.0,0.0,1.0,1.01908081055,0.361647949219,9.89382568359,0.1,0.0,0.0,0.0,0.1,0.0,0.0,0.0,0.1
1446038827182022362,208,1446038827178258895,robocape,1.91598952959,12.4293335205,19.5986399541,0.0,10.0,0.0,0.0,0.0,10.0,0.0,0.0,0.0,10.0,-0.0932106381528,0.141946486101,0.0386158358061,1.0,0.0,0.0,0.0,1.0,0.0,0.0,0.0,1.0,1.05021606445,0.180823974609,9.80041992188,0.1,0.0,0.0,0.0,0.1,0.0,0.0,0.0,0.1
1446038827212044195,209,1446038827208982944,robocape,1.64363970976,12.5597982142,19.5538115073,0.0,10.0,0.0,0.0,0.0,10.0,0.0,0.0,0.0,10.0,-0.138084902521,0.0820253615744,-0.0031957933081,1.0,0.0,0.0,0.0,1.0,0.0,0.0,0.0,1.0,-2.31478637695,0.0850231933594,10.9620043945,0.1,0.0,0.0,0.0,0.1,0.0,0.0,0.0,0.1
1446038827247535862,210,1446038827243405103,robocape,1.38469060676,12.5698355242,19.6956525683,0.0,10.0,0.0,0.0,0.0,10.0,0.0,0.0,0.0,10.0,-0.152732288516,0.0227700273202,0.0961401153519,1.0,0.0,0.0,0.0,1.0,0.0,0.0,0.0,1.0,-3.75060058594,-0.797541503906,10.8206982422,0.1,0.0,0.0,0.0,0.1,0.0,0.0,0.0,0.1
1446038827281741904,211,1446038827277439117,robocape,1.38874784083,12.1788573973,19.8741304473,0.0,10.0,0.0,0.0,0.0,10.0,0.0,0.0,0.0,10.0,-0.0187752856851,-0.189483911559,0.116912771854,1.0,0.0,0.0,0.0,1.0,0.0,0.0,0.0,1.0,-4.04039794922,-1.52203491211,11.0122998047,0.1,0.0,0.0,0.0,0.1,0.0,0.0,0.0,0.1
1446038827314812862,212,1446038827310872077,robocape,1.63866947229,11.6881374885,20.061897108,0.0,10.0,0.0,0.0,0.0,10.0,0.0,0.0,0.0,10.0,0.10998855302,-0.242347659197,0.123038042362,1.0,0.0,0.0,0.0,1.0,0.0,0.0,0.0,1.0,-0.393980712891,0.583187255859,9.63037353516,0.1,0.0,0.0,0.0,0.1,0.0,0.0,0.0,0.1
1446038827346098654,213,1446038827342600107,robocape,1.61872223551,11.4507164362,20.0318932362,0.0,10.0,0.0,0.0,0.0,10.0,0.0,0.0,0.0,10.0,-0.00772316716123,-0.113450662437,0.00732369299772,1.0,0.0,0.0,0.0,1.0,0.0,0.0,0.0,1.0,0.0598754882813,0.965192871094,9.58846069336,0.1,0.0,0.0,0.0,0.1,0.0,0.0,0.0,0.1
1446038827380572904,214,1446038827377418041,robocape,1.39405675004,11.1881154876,20.052431646,0.0,10.0,0.0,0.0,0.0,10.0,0.0,0.0,0.0,10.0,-0.120374881272,-0.125834361506,0.0339553038985,1.0,0.0,0.0,0.0,1.0,0.0,0.0,0.0,1.0,-0.156873779297,0.250279541016,10.3572619629,0.1,0.0,0.0,0.0,0.1,0.0,0.0,0.0,0.1
1446038827414991279,215,1446038827410514116,robocape,1.132216058,10.8869370009,20.0594116633,0.0,10.0,0.0,0.0,0.0,10.0,0.0,0.0,0.0,10.0,-0.138617534739,-0.146873334118,0.0263652947918,1.0,0.0,0.0,0.0,1.0,0.0,0.0,0.0,1.0,-0.324525146484,-0.116158447266,10.2937939453,0.1,0.0,0.0,0.0,0.1,0.0,0.0,0.0,0.1
1446038827448172196,216,1446038827444474935,robocape,0.873459980254,10.4305733703,20.0682259352,0.0,10.0,0.0,0.0,0.0,10.0,0.0,0.0,0.0,10.0,-0.137285954194,-0.229298169856,0.0267647689553,1.0,0.0,0.0,0.0,1.0,0.0,0.0,0.0,1.0,-1.11727661133,-0.425115966797,10.0483044434,0.1,0.0,0.0,0.0,0.1,0.0,0.0,0.0,0.1
1446038827480054821,217,1446038827476332902,robocape,0.638863629756,10.0820648861,20.1232835682,0.0,10.0,0.0,0.0,0.0,10.0,0.0,0.0,0.0,10.0,-0.129163312869,-0.172040206419,0.0506000607115,1.0,0.0,0.0,0.0,1.0,0.0,0.0,0.0,1.0,0.282612304688,-0.528101806641,9.70940917969,0.1,0.0,0.0,0.0,0.1,0.0,0.0,0.0,0.1
1446038827514492779,218,1446038827511101961,robocape,0.480583933857,9.91415088644,20.1560787546,0.0,10.0,0.0,0.0,0.0,10.0,0.0,0.0,0.0,10.0,-0.0872185257001,-0.0773648296668,0.0387489938607,1.0,0.0,0.0,0.0,1.0,0.0,0.0,0.0,1.0,0.135318603516,-0.567619628906,9.54654785156,0.1,0.0,0.0,0.0,0.1,0.0,0.0,0.0,0.1
1446038827546324321,219,1446038827542917013,robocape,0.459931010025,9.91191841466,20.1623958434,0.0,10.0,0.0,0.0,0.0,10.0,0.0,0.0,0.0,10.0,-0.0127831732324,0.00958737992429,0.0250337142467,1.0,0.0,0.0,0.0,1.0,0.0,0.0,0.0,1.0,-0.140108642578,-0.859812011719,10.0985998535,0.1,0.0,0.0,0.0,0.1,0.0,0.0,0.0,0.1
1446038827581478571,220,1446038827578149080,robocape,0.681567113677,9.93740527494,20.1577884473,0.0,10.0,0.0,0.0,0.0,10.0,0.0,0.0,0.0,10.0,0.1153148752,0.0239684498107,0.0190416017941,1.0,0.0,0.0,0.0,1.0,0.0,0.0,0.0,1.0,-0.140108642578,-0.723295898438,10.0291442871,0.1,0.0,0.0,0.0,0.1,0.0,0.0,0.0,0.1
1446038827614419196,221,1446038827611304044,robocape,1.00895852553,9.96855876838,20.130480219,0.0,10.0,0.0,0.0,0.0,10.0,0.0,0.0,0.0,10.0,0.173105470855,0.0266316109008,0.0067910607797,1.0,0.0,0.0,0.0,1.0,0.0,0.0,0.0,1.0,-0.197589111328,-0.294587402344,10.1345251465,0.1,0.0,0.0,0.0,0.1,0.0,0.0,0.0,0.1
1446038827646674571,222,1446038827643393039,robocape,1.35087537953,9.99969258579,20.024133616,0.0,10.0,0.0,0.0,0.0,10.0,0.0,0.0,0.0,10.0,0.188285489069,0.0251668723012,-0.0354200424981,1.0,0.0,0.0,0.0,1.0,0.0,0.0,0.0,1.0,-0.164058837891,0.0371228027344,10.0351318359,0.1,0.0,0.0,0.0,0.1,0.0,0.0,0.0,0.1
1446038827680054862,223,1446038827676719903,robocape,1.63588383487,10.0267628621,19.9390214261,0.0,10.0,0.0,0.0,0.0,10.0,0.0,0.0,0.0,10.0,0.156860188206,0.0233026595382,-0.0242347659197,1.0,0.0,0.0,0.0,1.0,0.0,0.0,0.0,1.0,-0.158071289063,0.332907714844,10.0291442871,0.1,0.0,0.0,0.0,0.1,0.0,0.0,0.0,0.1
1446038827712393529,224,1446038827709073066,robocape,1.80150285196,10.0474016906,19.904815373,0.0,10.0,0.0,0.0,0.0,10.0,0.0,0.0,0.0,10.0,0.0898816867902,0.0210389726116,0.00279631914458,1.0,0.0,0.0,0.0,1.0,0.0,0.0,0.0,1.0,-0.203576660156,0.216749267578,10.0231567383,0.1,0.0,0.0,0.0,0.1,0.0,0.0,0.0,0.1
1446038827746504529,225,1446038827743392944,robocape,1.88874321775,10.0651809413,19.8771903906,0.0,10.0,0.0,0.0,0.0,10.0,0.0,0.0,0.0,10.0,0.0483363737849,0.0197073920666,0.00625842856169,1.0,0.0,0.0,0.0,1.0,0.0,0.0,0.0,1.0,-0.184416503906,0.226329345703,10.0542919922,0.1,0.0,0.0,0.0,0.1,0.0,0.0,0.0,0.1
1446038827779585071,226,1446038827776308059,robocape,1.87596715487,10.071259478,19.9565538109,0.0,10.0,0.0,0.0,0.0,10.0,0.0,0.0,0.0,10.0,-0.0138484376684,0.0162452826495,0.0632500758894,1.0,0.0,0.0,0.0,1.0,0.0,0.0,0.0,1.0,-0.131726074219,-0.028740234375,10.0363293457,0.1,0.0,0.0,0.0,0.1,0.0,0.0,0.0,0.1
1446038827813635071,227,1446038827810596942,robocape,1.91589956363,10.0849801726,19.9277111508,0.0,10.0,0.0,0.0,0.0,10.0,0.0,0.0,0.0,10.0,0.0237021337017,0.0175768631945,0.00572579634367,1.0,0.0,0.0,0.0,1.0,0.0,0.0,0.0,1.0,-0.165256347656,0.234711914063,10.0614770508,0.1,0.0,0.0,0.0,0.1,0.0,0.0,0.0,0.1
1446038827846142237,228,1446038827843106985,robocape,1.92429269364,10.0953389469,19.9366855515,0.0,10.0,0.0,0.0,0.0,10.0,0.0,0.0,0.0,10.0,0.00372842552611,0.0167779148675,0.0258326625738,1.0,0.0,0.0,0.0,1.0,0.0,0.0,0.0,1.0,-0.13412109375,-0.265847167969,10.0495019531,0.1,0.0,0.0,0.0,0.1,0.0,0.0,0.0,0.1
1446038827879309404,229,1446038827876061916,robocape,1.92640514873,10.103729368,19.9388387438,0.0,10.0,0.0,0.0,0.0,10.0,0.0,0.0,0.0,10.0,0.00106526443603,0.015579492377,0.0222373951022,1.0,0.0,0.0,0.0,1.0,0.0,0.0,0.0,1.0,-0.166453857422,0.147293701172,10.0375268555,0.1,0.0,0.0,0.0,0.1,0.0,0.0,0.0,0.1
1446038827913186862,230,1446038827909953117,robocape,1.92636917063,10.1151633307,19.9142635433,0.0,10.0,0.0,0.0,0.0,10.0,0.0,0.0,0.0,10.0,0.00239684498107,0.0165115987585,0.00798948327024,1.0,0.0,0.0,0.0,1.0,0.0,0.0,0.0,1.0,-0.164058837891,0.245489501953,10.0219592285,0.1,0.0,0.0,0.0,0.1,0.0,0.0,0.0,0.1
1446038827945497029,231,1446038827942224979,robocape,1.87257309653,10.1266618843,19.8827561754,0.0,10.0,0.0,0.0,0.0,10.0,0.0,0.0,0.0,10.0,-0.0251668723012,0.016378440704,0.00426105774413,1.0,0.0,0.0,0.0,1.0,0.0,0.0,0.0,1.0,-0.149688720703,-0.00598754882813,10.0231567383,0.1,0.0,0.0,0.0,0.1,0.0,0.0,0.0,0.1
1446038827980124696,232,1446038827977045059,robocape,1.78697882352,10.1360179436,19.874805587,0.0,10.0,0.0,0.0,0.0,10.0,0.0,0.0,0.0,10.0,-0.0440753160408,0.015845808486,0.0167779148675,1.0,0.0,0.0,0.0,1.0,0.0,0.0,0.0,1.0,-0.166453857422,0.0886157226563,10.0471069336,0.1,0.0,0.0,0.0,0.1,0.0,0.0,0.0,0.1
1446038828010975737,233,1446038828007781028,robocape,1.74371600315,10.1508302162,19.7863244551,0.0,10.0,0.0,0.0,0.0,10.0,0.0,0.0,0.0,10.0,-0.0145142279409,0.0167779148675,-0.0260989786828,1.0,0.0,0.0,0.0,1.0,0.0,0.0,0.0,1.0,-0.152083740234,-0.0443078613281,10.0518969727,0.1,0.0,0.0,0.0,0.1,0.0,0.0,0.0,0.1
1446038828044358863,234,1446038828041167974,robocape,1.6016435575,10.1558206599,19.7805311617,0.0,10.0,0.0,0.0,0.0,10.0,0.0,0.0,0.0,10.0,-0.0740358783042,0.0135821215594,0.0178431793035,1.0,0.0,0.0,0.0,1.0,0.0,0.0,0.0,1.0,-0.177231445313,0.150886230469,10.0506994629,0.1,0.0,0.0,0.0,0.1,0.0,0.0,0.0,0.1
1446038828077978571,235,1446038828074841976,robocape,1.40173370374,10.1561151853,19.8091574403,0.0,10.0,0.0,0.0,0.0,10.0,0.0,0.0,0.0,10.0,-0.107724866094,0.0118510668509,0.0362189908251,1.0,0.0,0.0,0.0,1.0,0.0,0.0,0.0,1.0,-0.136516113281,-0.0874182128906,10.0435144043,0.1,0.0,0.0,0.0,0.1,0.0,0.0,0.0,0.1
1446038828110395613,236,1446038828107292890,robocape,1.18379507265,10.1579665568,19.7995514652,0.0,10.0,0.0,0.0,0.0,10.0,0.0,0.0,0.0,10.0,-0.113850136601,0.0118510668509,0.0159789665405,1.0,0.0,0.0,0.0,1.0,0.0,0.0,0.0,1.0,-0.15328125,0.135318603516,10.0614770508,0.1,0.0,0.0,0.0,0.1,0.0,0.0,0.0,0.1
1446038828143961529,237,1446038828140732049,robocape,0.967661084808,10.159707788,19.7190282421,0.0,10.0,0.0,0.0,0.0,10.0,0.0,0.0,0.0,10.0,-0.106526443603,0.0105194863058,-0.0217047628841,1.0,0.0,0.0,0.0,1.0,0.0,0.0,0.0,1.0,-0.155676269531,-0.610729980469,10.075847168,0.1,0.0,0.0,0.0,0.1,0.0,0.0,0.0,0.1
1446038828177157154,238,1446038828174026012,robocape,0.864624450517,10.1622575201,19.6828122162,0.0,10.0,0.0,0.0,0.0,10.0,0.0,0.0,0.0,10.0,-0.051532167093,0.0117179087963,0.00173105470855,1.0,0.0,0.0,0.0,1.0,0.0,0.0,0.0,1.0,-0.122145996094,-0.108973388672,10.0818347168,0.1,0.0,0.0,0.0,0.1,0.0,0.0,0.0,0.1
1446038828213548988,239,1446038828210345983,robocape,0.814808883524,10.1687583135,19.7178120363,0.0,10.0,0.0,0.0,0.0,10.0,0.0,0.0,0.0,10.0,-0.0303600364269,0.0149137021044,0.0395479421877,1.0,0.0,0.0,0.0,1.0,0.0,0.0,0.0,1.0,-0.15328125,-0.814306640625,10.019564209,0.1,0.0,0.0,0.0,0.1,0.0,0.0,0.0,0.1
1446038828244634196,240,1446038828240653991,robocape,1.01349556892,10.1950635743,19.7110188931,0.0,10.0,0.0,0.0,0.0,10.0,0.0,0.0,0.0,10.0,0.103863282513,0.0246342400832,0.017177389031,1.0,0.0,0.0,0.0,1.0,0.0,0.0,0.0,1.0,-0.076640625,-0.734073486328,10.0099841309,0.1,0.0,0.0,0.0,0.1,0.0,0.0,0.0,0.1
1446038828276918988,241,1446038828273812055,robocape,1.26743852164,10.2206128249,19.7088875292,0.0,10.0,0.0,0.0,0.0,10.0,0.0,0.0,0.0,10.0,0.132625422286,0.0243679239742,0.0195742340121,1.0,0.0,0.0,0.0,1.0,0.0,0.0,0.0,1.0,-0.165256347656,0.009580078125,10.0842297363,0.1,0.0,0.0,0.0,0.1,0.0,0.0,0.0,0.1
1446038828310195071,242,1446038828307038068,robocape,1.47985097367,10.2444888478,19.6929955383,0.0,10.0,0.0,0.0,0.0,10.0,0.0,0.0,0.0,10.0,0.112385398001,0.0233026595382,0.0122505410144,1.0,0.0,0.0,0.0,1.0,0.0,0.0,0.0,1.0,-0.162861328125,-0.0586779785156,10.055489502,0.1,0.0,0.0,0.0,0.1,0.0,0.0,0.0,0.1
1446038828343536571,243,1446038828340447902,robocape,1.66128774815,10.2649998757,19.6708785671,0.0,10.0,0.0,0.0,0.0,10.0,0.0,0.0,0.0,10.0,0.0969390636789,0.0214384467751,0.00892158965177,1.0,0.0,0.0,0.0,1.0,0.0,0.0,0.0,1.0,-0.173638916016,0.207169189453,10.0339343262,0.1,0.0,0.0,0.0,0.1,0.0,0.0,0.0,0.1
1446038828376718321,244,1446038828373631954,robocape,1.79623816001,10.286083359,19.6235527433,0.0,10.0,0.0,0.0,0.0,10.0,0.0,0.0,0.0,10.0,0.0751011427402,0.0211721306661,-0.00452737385313,1.0,0.0,0.0,0.0,1.0,0.0,0.0,0.0,1.0,-0.17244140625,0.0622705078125,10.0590820312,0.1,0.0,0.0,0.0,0.1,0.0,0.0,0.0,0.1
1446038828410418821,245,1446038828406821966,robocape,1.88345666631,10.3028927673,19.5976165889,0.0,10.0,0.0,0.0,0.0,10.0,0.0,0.0,0.0,10.0,0.0482032157304,0.0194410759576,0.0067910607797,1.0,0.0,0.0,0.0,1.0,0.0,0.0,0.0,1.0,-0.158071289063,0.0826281738281,10.0459094238,0.1,0.0,0.0,0.0,0.1,0.0,0.0,0.0,0.1
1446038828443305363,246,1446038828440054893,robocape,1.94664037115,10.3199529554,19.5660158667,0.0,10.0,0.0,0.0,0.0,10.0,0.0,0.0,0.0,10.0,0.0362189908251,0.0194410759576,0.00372842552611,1.0,0.0,0.0,0.0,1.0,0.0,0.0,0.0,1.0,-0.160466308594,0.0203576660156,10.0495019531,0.1,0.0,0.0,0.0,0.1,0.0,0.0,0.0,0.1
1446038828477032738,247,1446038828474037885,robocape,1.98983009622,10.3339656743,19.5397293364,0.0,10.0,0.0,0.0,0.0,10.0,0.0,0.0,0.0,10.0,0.0253000303558,0.017976337358,0.00652474467069,1.0,0.0,0.0,0.0,1.0,0.0,0.0,0.0,1.0,-0.15328125,0.107775878906,10.0734521484,0.1,0.0,0.0,0.0,0.1,0.0,0.0,0.0,0.1
1446038828510314779,248,1446038828506958961,robocape,1.94661711984,10.3429578974,19.5841490095,0.0,10.0,0.0,0.0,0.0,10.0,0.0,0.0,0.0,10.0,-0.0266316109008,0.017177389031,0.0440753160408,1.0,0.0,0.0,0.0,1.0,0.0,0.0,0.0,1.0,-0.186811523438,0.307760009766,10.0327368164,0.1,0.0,0.0,0.0,0.1,0.0,0.0,0.0,0.1
1446038828543224363,249,1446038828540142059,robocape,1.855497371,10.3432735788,19.7357676989,0.0,10.0,0.0,0.0,0.0,10.0,0.0,0.0,0.0,10.0,-0.0619184953443,0.015313176268,0.101200121423,1.0,0.0,0.0,0.0,1.0,0.0,0.0,0.0,1.0,-0.150886230469,-0.149688720703,10.0542919922,0.1,0.0,0.0,0.0,0.1,0.0,0.0,0.0,0.1
1446038828576747529,250,1446038828573506116,robocape,1.84859569794,10.3569658947,19.7021583099,0.0,10.0,0.0,0.0,0.0,10.0,0.0,0.0,0.0,10.0,-0.000399474163512,0.017710021249,0.00292947719909,1.0,0.0,0.0,0.0,1.0,0.0,0.0,0.0,1.0,-0.149688720703,-0.122145996094,10.0471069336,0.1,0.0,0.0,0.0,0.1,0.0,0.0,0.0,0.1
1446038828610275613,251,1446038828607218027,robocape,1.90661156646,10.373250898,19.6145484404,0.0,10.0,0.0,0.0,0.0,10.0,0.0,0.0,0.0,10.0,0.0387489938607,0.017710021249,-0.0258326625738,1.0,0.0,0.0,0.0,1.0,0.0,0.0,0.0,1.0,-0.171243896484,-0.216749267578,10.0662670898,0.1,0.0,0.0,0.0,0.1,0.0,0.0,0.0,0.1
1446038828643306988,252,1446038828640280008,robocape,2.00796449228,10.3964205255,19.4455616087,0.0,10.0,0.0,0.0,0.0,10.0,0.0,0.0,0.0,10.0,0.0692421883421,0.0191747598486,-0.0692421883421,1.0,0.0,0.0,0.0,1.0,0.0,0.0,0.0,1.0,-0.161663818359,0.204774169922,10.0471069336,0.1,0.0,0.0,0.0,0.1,0.0,0.0,0.0,0.1
1446038828676801446,253,1446038828673497915,robocape,2.00850034537,10.4128582876,19.3637163515,0.0,10.0,0.0,0.0,0.0,10.0,0.0,0.0,0.0,10.0,0.00825579937925,0.0178431793035,-0.0231695014837,1.0,0.0,0.0,0.0,1.0,0.0,0.0,0.0,1.0,-0.176033935547,0.324525146484,10.0483044434,0.1,0.0,0.0,0.0,0.1,0.0,0.0,0.0,0.1
1446038828709991738,254,1446038828706937074,robocape,1.92438058833,10.4215668502,19.3459504572,0.0,10.0,0.0,0.0,0.0,10.0,0.0,0.0,0.0,10.0,-0.0422111032778,0.0154463343225,0.0107858024148,1.0,0.0,0.0,0.0,1.0,0.0,0.0,0.0,1.0,-0.165256347656,0.113763427734,10.0387243652,0.1,0.0,0.0,0.0,0.1,0.0,0.0,0.0,0.1
1446038828743113530,255,1446038828740089893,robocape,1.79698698042,10.428226702,19.3392071652,0.0,10.0,0.0,0.0,0.0,10.0,0.0,0.0,0.0,10.0,-0.066046395034,0.0146473859954,0.016644756813,1.0,0.0,0.0,0.0,1.0,0.0,0.0,0.0,1.0,-0.162861328125,0.140108642578,10.0351318359,0.1,0.0,0.0,0.0,0.1,0.0,0.0,0.0,0.1
1446038828776751946,256,1446038828773402929,robocape,1.62828669361,10.4320387599,19.328612552,0.0,10.0,0.0,0.0,0.0,10.0,0.0,0.0,0.0,10.0,-0.0874848418091,0.0130494893414,0.0146473859954,1.0,0.0,0.0,0.0,1.0,0.0,0.0,0.0,1.0,-0.173638916016,0.128133544922,10.0435144043,0.1,0.0,0.0,0.0,0.1,0.0,0.0,0.0,0.1
1446038828810319238,257,1446038828807163953,robocape,1.31677766822,10.4249548187,19.4116321272,0.0,10.0,0.0,0.0,0.0,10.0,0.0,0.0,0.0,10.0,-0.171507574201,0.00932106381528,0.0644484983799,1.0,0.0,0.0,0.0,1.0,0.0,0.0,0.0,1.0,-0.233514404297,0.47900390625,10.024354248,0.1,0.0,0.0,0.0,0.1,0.0,0.0,0.0,0.1
1446038828843025446,258,1446038828840006113,robocape,1.19087871406,10.4376407422,19.3379700355,0.0,10.0,0.0,0.0,0.0,10.0,0.0,0.0,0.0,10.0,-0.0595216503633,0.0165115987585,-0.0186421276306,1.0,0.0,0.0,0.0,1.0,0.0,0.0,0.0,1.0,-0.155676269531,-0.734073486328,9.98363891602,0.1,0.0,0.0,0.0,0.1,0.0,0.0,0.0,0.1
1446038828876955530,259,1446038828873389005,robocape,1.17636902141,10.4488829971,19.3116944343,0.0,10.0,0.0,0.0,0.0,10.0,0.0,0.0,0.0,10.0,-0.00572579634367,0.016644756813,0.00639158661619,1.0,0.0,0.0,0.0,1.0,0.0,0.0,0.0,1.0,-0.116158447266,-0.955612792969,9.99082397461,0.1,0.0,0.0,0.0,0.1,0.0,0.0,0.0,0.1
1446038828910839321,260,1446038828906991958,robocape,1.28183727023,10.4672994505,19.3252798189,0.0,10.0,0.0,0.0,0.0,10.0,0.0,0.0,0.0,10.0,0.0533963798561,0.0211721306661,0.0274305592278,1.0,0.0,0.0,0.0,1.0,0.0,0.0,0.0,1.0,-0.086220703125,-0.690963134766,10.0818347168,0.1,0.0,0.0,0.0,0.1,0.0,0.0,0.0,0.1
1446038828943362946,261,1446038828939944982,robocape,1.50314707526,10.4938244365,19.3099339792,0.0,10.0,0.0,0.0,0.0,10.0,0.0,0.0,0.0,10.0,0.117045929909,0.0249005561922,0.0119842249054,1.0,0.0,0.0,0.0,1.0,0.0,0.0,0.0,1.0,-0.209564208984,-0.0993933105469,10.1081799316,0.1,0.0,0.0,0.0,0.1,0.0,0.0,0.0,0.1
1446038828977460113,262,1446038828973716974,robocape,1.71674077686,10.520253725,19.2477567243,0.0,10.0,0.0,0.0,0.0,10.0,0.0,0.0,0.0,10.0,0.117711720182,0.0238352917562,-0.0129163312869,1.0,0.0,0.0,0.0,1.0,0.0,0.0,0.0,1.0,-0.140108642578,-0.117355957031,10.0518969727,0.1,0.0,0.0,0.0,0.1,0.0,0.0,0.0,0.1
1446038829010142530,263,1446038829006906986,robocape,1.93004062722,10.5469807704,19.1544170117,0.0,10.0,0.0,0.0,0.0,10.0,0.0,0.0,0.0,10.0,0.120774355435,0.0231695014837,-0.0295610880999,1.0,0.0,0.0,0.0,1.0,0.0,0.0,0.0,1.0,-0.173638916016,0.100590820313,10.039921875,0.1,0.0,0.0,0.0,0.1,0.0,0.0,0.0,0.1
1446038829045175655,264,1446038829040040016,robocape,2.04818509424,10.5652998883,19.1219986329,0.0,10.0,0.0,0.0,0.0,10.0,0.0,0.0,0.0,10.0,0.0652474467069,0.0202400242846,0.00266316109008,1.0,0.0,0.0,0.0,1.0,0.0,0.0,0.0,1.0,-0.184416503906,0.302969970703,10.0339343262,0.1,0.0,0.0,0.0,0.1,0.0,0.0,0.0,0.1
1446038829076806863,265,1446038829073411941,robocape,2.11903718441,10.5821949811,19.0876688967,0.0,10.0,0.0,0.0,0.0,10.0,0.0,0.0,0.0,10.0,0.0407463646782,0.0194410759576,0.00159789665405,1.0,0.0,0.0,0.0,1.0,0.0,0.0,0.0,1.0,-0.165256347656,0.188009033203,10.0662670898,0.1,0.0,0.0,0.0,0.1,0.0,0.0,0.0,0.1
1446038829109970196,266,1446038829106888055,robocape,2.10871668715,10.5933880004,19.1000978779,0.0,10.0,0.0,0.0,0.0,10.0,0.0,0.0,0.0,10.0,-0.00625842856169,0.017710021249,0.0263652947918,1.0,0.0,0.0,0.0,1.0,0.0,0.0,0.0,1.0,-0.1916015625,0.245489501953,10.0926123047,0.1,0.0,0.0,0.0,0.1,0.0,0.0,0.0,0.1
1446038829143207821,267,1446038829140194892,robocape,2.13262128147,10.6075802715,19.1024818209,0.0,10.0,0.0,0.0,0.0,10.0,0.0,0.0,0.0,10.0,0.0126500151779,0.0190416017941,0.0210389726116,1.0,0.0,0.0,0.0,1.0,0.0,0.0,0.0,1.0,-0.152083740234,-0.105380859375,10.0698596191,0.1,0.0,0.0,0.0,0.1,0.0,0.0,0.0,0.1
1446038829176743821,268,1446038829173492908,robocape,2.1137016961,10.620378095,19.0875056498,0.0,10.0,0.0,0.0,0.0,10.0,0.0,0.0,0.0,10.0,-0.00812264132474,0.0178431793035,0.0118510668509,1.0,0.0,0.0,0.0,1.0,0.0,0.0,0.0,1.0,-0.152083740234,-0.0946032714844,10.0435144043,0.1,0.0,0.0,0.0,0.1,0.0,0.0,0.0,0.1
1446038829210910446,269,1446038829207740068,robocape,2.06328204013,10.629140053,19.10666397,0.0,10.0,0.0,0.0,0.0,10.0,0.0,0.0,0.0,10.0,-0.0279631914458,0.016644756813,0.0299605622634,1.0,0.0,0.0,0.0,1.0,0.0,0.0,0.0,1.0,-0.158071289063,0.307760009766,10.0351318359,0.1,0.0,0.0,0.0,0.1,0.0,0.0,0.0,0.1
1446038829243349155,270,1446038829240318059,robocape,1.95413364969,10.6323351004,19.207305265,0.0,10.0,0.0,0.0,0.0,10.0,0.0,0.0,0.0,10.0,-0.0667121853065,0.015845808486,0.0732369299772,1.0,0.0,0.0,0.0,1.0,0.0,0.0,0.0,1.0,-0.166453857422,-0.116158447266,10.0471069336,0.1,0.0,0.0,0.0,0.1,0.0,0.0,0.0,0.1
1446038829277962238,271,1446038829274616003,robocape,1.92748083614,10.6418087384,19.232314857,0.0,10.0,0.0,0.0,0.0,10.0,0.0,0.0,0.0,10.0,-0.0162452826495,0.017177389031,0.033289513626,1.0,0.0,0.0,0.0,1.0,0.0,0.0,0.0,1.0,-0.141306152344,-0.324525146484,10.0638720703,0.1,0.0,0.0,0.0,0.1,0.0,0.0,0.0,0.1
1446038829311216113,272,1446038829308109045,robocape,1.95695937814,10.6548722598,19.2090650745,0.0,10.0,0.0,0.0,0.0,10.0,0.0,0.0,0.0,10.0,0.0178431793035,0.0178431793035,0.00772316716123,1.0,0.0,0.0,0.0,1.0,0.0,0.0,0.0,1.0,-0.144898681641,-0.102985839844,10.0447119141,0.1,0.0,0.0,0.0,0.1,0.0,0.0,0.0,0.1
1446038829344308071,273,1446038829341286897,robocape,2.06695542713,10.6782034643,19.0614379142,0.0,10.0,0.0,0.0,0.0,10.0,0.0,0.0,0.0,10.0,0.0721716655411,0.0199737081756,-0.0583232278727,1.0,0.0,0.0,0.0,1.0,0.0,0.0,0.0,1.0,-0.135318603516,-0.304167480469,10.0578845215,0.1,0.0,0.0,0.0,0.1,0.0,0.0,0.0,0.1
1446038829378582071,274,1446038829375076055,robocape,2.23541799403,10.7026079377,18.9184852677,0.0,10.0,0.0,0.0,0.0,10.0,0.0,0.0,0.0,10.0,0.102531701968,0.0205063403936,-0.0560595409462,1.0,0.0,0.0,0.0,1.0,0.0,0.0,0.0,1.0,-0.177231445313,0.269439697266,10.0303417969,0.1,0.0,0.0,0.0,0.1,0.0,0.0,0.0,0.1
1446038829410741488,275,1446038829407246112,robocape,2.26490074716,10.7164454074,18.9098247431,0.0,10.0,0.0,0.0,0.0,10.0,0.0,0.0,0.0,10.0,0.0167779148675,0.0186421276306,0.0149137021044,1.0,0.0,0.0,0.0,1.0,0.0,0.0,0.0,1.0,-0.158071289063,-0.0383203125,10.055489502,0.1,0.0,0.0,0.0,0.1,0.0,0.0,0.0,0.1
1446038829445153363,276,1446038829441999912,robocape,2.29511554186,10.7309897803,18.8876245448,0.0,10.0,0.0,0.0,0.0,10.0,0.0,0.0,0.0,10.0,0.0185089695761,0.0186421276306,0.00772316716123,1.0,0.0,0.0,0.0,1.0,0.0,0.0,0.0,1.0,-0.161663818359,0.0359252929688,10.0495019531,0.1,0.0,0.0,0.0,0.1,0.0,0.0,0.0,0.1
1446038829478308363,277,1446038829474936962,robocape,2.28212547436,10.7421177335,18.9092120438,0.0,10.0,0.0,0.0,0.0,10.0,0.0,0.0,0.0,10.0,-0.00838895743375,0.0181094954125,0.0308926686449,1.0,0.0,0.0,0.0,1.0,0.0,0.0,0.0,1.0,-0.173638916016,0.131726074219,10.0650695801,0.1,0.0,0.0,0.0,0.1,0.0,0.0,0.0,0.1
1446038829519383655,278,1446038829515882015,robocape,2.22808887578,10.7460018676,18.9992475876,0.0,10.0,0.0,0.0,0.0,10.0,0.0,0.0,0.0,10.0,-0.0366184649886,0.0162452826495,0.0672448175245,1.0,0.0,0.0,0.0,1.0,0.0,0.0,0.0,1.0,-0.300574951172,-0.116158447266,10.0375268555,0.1,0.0,0.0,0.0,0.1,0.0,0.0,0.0,0.1
1446038829547295905,279,1446038829543592929,robocape,2.22675752772,10.7578118016,19.0116707732,0.0,10.0,0.0,0.0,0.0,10.0,0.0,0.0,0.0,10.0,-0.00146473859954,0.018242653467,0.0262321367373,1.0,0.0,0.0,0.0,1.0,0.0,0.0,0.0,1.0,-0.125738525391,-0.290994873047,10.0794396973,0.1,0.0,0.0,0.0,0.1,0.0,0.0,0.0,0.1
1446038829580589030,280,1446038829577558040,robocape,2.30197412397,10.7747334713,18.9798670354,0.0,10.0,0.0,0.0,0.0,10.0,0.0,0.0,0.0,10.0,0.0430100516048,0.0197073920666,0.00279631914458,1.0,0.0,0.0,0.0,1.0,0.0,0.0,0.0,1.0,-0.149688720703,-0.0502954101563,10.0626745605,0.1,0.0,0.0,0.0,0.1,0.0,0.0,0.0,0.1
1446038829613894572,281,1446038829610496997,robocape,2.38629788011,10.7923384782,18.9446595479,0.0,10.0,0.0,0.0,0.0,10.0,0.0,0.0,0.0,10.0,0.0482032157304,0.0199737081756,0.000932106381528,1.0,0.0,0.0,0.0,1.0,0.0,0.0,0.0,1.0,-0.165256347656,-0.0215551757813,10.0483044434,0.1,0.0,0.0,0.0,0.1,0.0,0.0,0.0,0.1
1446038829647036697,282,1446038829643352985,robocape,2.47338040482,10.8085159566,18.9211053831,0.0,10.0,0.0,0.0,0.0,10.0,0.0,0.0,0.0,10.0,0.0486026898939,0.0195742340121,0.00705737688871,1.0,0.0,0.0,0.0,1.0,0.0,0.0,0.0,1.0,-0.149688720703,0.129331054688,10.0506994629,0.1,0.0,0.0,0.0,0.1,0.0,0.0,0.0,0.1
1446038829679496113,283,1446038829675573110,robocape,2.56975368732,10.8276060928,18.8775749959,0.0,10.0,0.0,0.0,0.0,10.0,0.0,0.0,0.0,10.0,0.0555269087282,0.0205063403936,-0.00359526747161,1.0,0.0,0.0,0.0,1.0,0.0,0.0,0.0,1.0,-0.173638916016,0.0562829589844,10.0650695801,0.1,0.0,0.0,0.0,0.1,0.0,0.0,0.0,0.1
1446038829713622197,284,1446038829709814071,robocape,2.66317955091,10.8449421812,18.842444791,0.0,10.0,0.0,0.0,0.0,10.0,0.0,0.0,0.0,10.0,0.0532632218016,0.0198405501211,0.000798948327024,1.0,0.0,0.0,0.0,1.0,0.0,0.0,0.0,1.0,-0.154478759766,-0.00838256835938,10.0542919922,0.1,0.0,0.0,0.0,0.1,0.0,0.0,0.0,0.1
1446038829747540863,285,1446038829744143009,robocape,2.7718453998,10.864977428,18.7921383541,0.0,10.0,0.0,0.0,0.0,10.0,0.0,0.0,0.0,10.0,0.0628506017259,0.0207726565026,-0.00732369299772,1.0,0.0,0.0,0.0,1.0,0.0,0.0,0.0,1.0,-0.161663818359,-0.0514929199219,10.0638720703,0.1,0.0,0.0,0.0,0.1,0.0,0.0,0.0,0.1
1446038829779056488,286,1446038829775652885,robocape,2.96164291417,10.8951288226,18.6517810221,0.0,10.0,0.0,0.0,0.0,10.0,0.0,0.0,0.0,10.0,0.114382768819,0.0230363434292,-0.0551274345646,1.0,0.0,0.0,0.0,1.0,0.0,0.0,0.0,1.0,-0.165256347656,0.144898681641,10.0303417969,0.1,0.0,0.0,0.0,0.1,0.0,0.0,0.0,0.1
1446038829814530822,287,1446038829811067104,robocape,3.06796733652,10.9109959792,18.6465341746,0.0,10.0,0.0,0.0,0.0,10.0,0.0,0.0,0.0,10.0,0.0575242795457,0.0201068662301,0.0162452826495,1.0,0.0,0.0,0.0,1.0,0.0,0.0,0.0,1.0,-0.159268798828,0.0443078613281,10.0578845215,0.1,0.0,0.0,0.0,0.1,0.0,0.0,0.0,0.1
1446038829848223363,288,1446038829844650983,robocape,3.18478422268,10.9299258993,18.6104100408,0.0,10.0,0.0,0.0,0.0,10.0,0.0,0.0,0.0,10.0,0.0661795530885,0.0206394984481,-0.000133158054504,1.0,0.0,0.0,0.0,1.0,0.0,0.0,0.0,1.0,-0.180823974609,0.420325927734,10.019564209,0.1,0.0,0.0,0.0,0.1,0.0,0.0,0.0,0.1
1446038829881105697,289,1446038829877417087,robocape,3.29418423584,10.9473987332,18.5806659338,0.0,10.0,0.0,0.0,0.0,10.0,0.0,0.0,0.0,10.0,0.0617853372898,0.0201068662301,0.0031957933081,1.0,0.0,0.0,0.0,1.0,0.0,0.0,0.0,1.0,-0.180823974609,0.356857910156,10.0387243652,0.1,0.0,0.0,0.0,0.1,0.0,0.0,0.0,0.1
1446038829913958072,290,1446038829910087108,robocape,3.33059981543,10.9620934135,18.5553351668,0.0,10.0,0.0,0.0,0.0,10.0,0.0,0.0,0.0,10.0,0.0231695014837,0.0187752856851,0.00545948023466,1.0,0.0,0.0,0.0,1.0,0.0,0.0,0.0,1.0,-0.186811523438,0.446671142578,10.0710571289,0.1,0.0,0.0,0.0,0.1,0.0,0.0,0.0,0.1
1446038829947225488,291,1446038829943963050,robocape,3.22265442458,10.9676960656,18.5885252639,0.0,10.0,0.0,0.0,0.0,10.0,0.0,0.0,0.0,10.0,-0.0583232278727,0.016112124595,0.0363521488796,1.0,0.0,0.0,0.0,1.0,0.0,0.0,0.0,1.0,-0.177231445313,0.508941650391,10.0411193848,0.1,0.0,0.0,0.0,0.1,0.0,0.0,0.0,0.1
1446038829979694238,292,1446038829976248025,robocape,3.08701958784,10.9794716184,18.559810731,0.0,10.0,0.0,0.0,0.0,10.0,0.0,0.0,0.0,10.0,-0.066845343361,0.0170442309765,0.00359526747161,1.0,0.0,0.0,0.0,1.0,0.0,0.0,0.0,1.0,-0.160466308594,-0.00239501953125,10.019564209,0.1,0.0,0.0,0.0,0.1,0.0,0.0,0.0,0.1
1446038830013544613,293,1446038830010385990,robocape,3.00456359734,10.9866287443,18.5532907958,0.0,10.0,0.0,0.0,0.0,10.0,0.0,0.0,0.0,10.0,-0.0412789968962,0.0154463343225,0.0154463343225,1.0,0.0,0.0,0.0,1.0,0.0,0.0,0.0,1.0,-0.195194091797,0.138911132813,10.0710571289,0.1,0.0,0.0,0.0,0.1,0.0,0.0,0.0,0.1
1446038830046736447,294,1446038830043632030,robocape,2.92064736784,10.9951743854,18.5220870809,0.0,10.0,0.0,0.0,0.0,10.0,0.0,0.0,0.0,10.0,-0.0396811002422,0.015313176268,0.00239684498107,1.0,0.0,0.0,0.0,1.0,0.0,0.0,0.0,1.0,-0.201181640625,0.453856201172,9.99561401367,0.1,0.0,0.0,0.0,0.1,0.0,0.0,0.0,0.1
1446038830079619613,295,1446038830076257944,robocape,2.80005741343,11.0030950308,18.5161954528,0.0,10.0,0.0,0.0,0.0,10.0,0.0,0.0,0.0,10.0,-0.0615190211808,0.015845808486,0.0157126504315,1.0,0.0,0.0,0.0,1.0,0.0,0.0,0.0,1.0,-0.170046386719,0.203576660156,10.0578845215,0.1,0.0,0.0,0.0,0.1,0.0,0.0,0.0,0.1
1446038830113029030,296,1446038830109904050,robocape,2.66619885958,11.0118777625,18.4886160163,0.0,10.0,0.0,0.0,0.0,10.0,0.0,0.0,0.0,10.0,-0.0664458691975,0.015579492377,0.00426105774413,1.0,0.0,0.0,0.0,1.0,0.0,0.0,0.0,1.0,-0.155676269531,-0.00359252929688,10.0674645996,0.1,0.0,0.0,0.0,0.1,0.0,0.0,0.0,0.1
1446038830146509739,297,1446038830143210887,robocape,2.54607173604,11.0195200033,18.462511246,0.0,10.0,0.0,0.0,0.0,10.0,0.0,0.0,0.0,10.0,-0.0595216503633,0.0150468601589,0.00506000607115,1.0,0.0,0.0,0.0,1.0,0.0,0.0,0.0,1.0,-0.147293701172,0.0203576660156,10.039921875,0.1,0.0,0.0,0.0,0.1,0.0,0.0,0.0,0.1
1446038830179634114,298,1446038830176402091,robocape,2.47243372715,11.0327906397,18.3394143798,0.0,10.0,0.0,0.0,0.0,10.0,0.0,0.0,0.0,10.0,-0.0255663464648,0.0150468601589,-0.0462058449129,1.0,0.0,0.0,0.0,1.0,0.0,0.0,0.0,1.0,-0.168848876953,0.288599853516,10.0506994629,0.1,0.0,0.0,0.0,0.1,0.0,0.0,0.0,0.1
1446038830212006405,299,1446038830208729028,robocape,2.28057718993,11.0361752892,18.3133346602,0.0,10.0,0.0,0.0,0.0,10.0,0.0,0.0,0.0,10.0,-0.0973385378424,0.0127831732324,0.00492684801665,1.0,0.0,0.0,0.0,1.0,0.0,0.0,0.0,1.0,-0.183218994141,0.361647949219,10.060279541,0.1,0.0,0.0,0.0,0.1,0.0,0.0,0.0,0.1
1446038830245645739,300,1446038830242082118,robocape,2.01616745424,11.0354174858,18.3081317046,0.0,10.0,0.0,0.0,0.0,10.0,0.0,0.0,0.0,10.0,-0.137685428357,0.0111852765783,0.0159789665405,1.0,0.0,0.0,0.0,1.0,0.0,0.0,0.0,1.0,-0.168848876953,0.244291992188,10.0411193848,0.1,0.0,0.0,0.0,0.1,0.0,0.0,0.0,0.1
1446038830277945655,301,1446038830274912118,robocape,1.64493978155,11.0292978188,18.3481459878,0.0,10.0,0.0,0.0,0.0,10.0,0.0,0.0,0.0,10.0,-0.198538659265,0.00945422186978,0.0399474163512,1.0,0.0,0.0,0.0,1.0,0.0,0.0,0.0,1.0,-0.178428955078,0.542471923828,10.0411193848,0.1,0.0,0.0,0.0,0.1,0.0,0.0,0.0,0.1
1446038830311625239,302,1446038830308521032,robocape,1.30729278183,11.0183617582,18.3701165236,0.0,10.0,0.0,0.0,0.0,10.0,0.0,0.0,0.0,10.0,-0.179497057471,0.00639158661619,0.0306263525359,1.0,0.0,0.0,0.0,1.0,0.0,0.0,0.0,1.0,-0.086220703125,-1.20349731445,10.0051940918,0.1,0.0,0.0,0.0,0.1,0.0,0.0,0.0,0.1
1446038830344855947,303,1446038830341460943,robocape,1.17308329599,11.0206254626,18.3734094468,0.0,10.0,0.0,0.0,0.0,10.0,0.0,0.0,0.0,10.0,-0.0712395591596,0.0129163312869,0.0207726565026,1.0,0.0,0.0,0.0,1.0,0.0,0.0,0.0,1.0,-0.0898132324219,-1.12685668945,10.0818347168,0.1,0.0,0.0,0.0,0.1,0.0,0.0,0.0,0.1
1446038830377802655,304,1446038830374759912,robocape,1.3163091116,11.0406003757,18.3714448603,0.0,10.0,0.0,0.0,0.0,10.0,0.0,0.0,0.0,10.0,0.0747016685767,0.0221042370477,0.0178431793035,1.0,0.0,0.0,0.0,1.0,0.0,0.0,0.0,1.0,-0.142503662109,-0.744851074219,10.075847168,0.1,0.0,0.0,0.0,0.1,0.0,0.0,0.0,0.1
1446038830410939405,305,1446038830407845973,robocape,1.56101633651,11.0696998953,18.3601257419,0.0,10.0,0.0,0.0,0.0,10.0,0.0,0.0,0.0,10.0,0.129030154814,0.0267647689553,0.0127831732324,1.0,0.0,0.0,0.0,1.0,0.0,0.0,0.0,1.0,-0.159268798828,-0.255069580078,10.0926123047,0.1,0.0,0.0,0.0,0.1,0.0,0.0,0.0,0.1
1446038830444021614,306,1446038830440835952,robocape,1.76156456751,11.0919810987,18.3288763908,0.0,10.0,0.0,0.0,0.0,10.0,0.0,0.0,0.0,10.0,0.108124340257,0.0227700273202,0.00226368692657,1.0,0.0,0.0,0.0,1.0,0.0,0.0,0.0,1.0,-0.165256347656,0.0981958007813,10.0566870117,0.1,0.0,0.0,0.0,0.1,0.0,0.0,0.0,0.1
1446038830477140864,307,1446038830473727941,robocape,1.87963183553,11.1091526814,18.3037086177,0.0,10.0,0.0,0.0,0.0,10.0,0.0,0.0,0.0,10.0,0.0644484983799,0.0202400242846,0.00545948023466,1.0,0.0,0.0,0.0,1.0,0.0,0.0,0.0,1.0,-0.17244140625,0.142503662109,10.0411193848,0.1,0.0,0.0,0.0,0.1,0.0,0.0,0.0,0.1
1446038830510232947,308,1446038830507211923,robocape,1.94518990264,11.1244168974,18.2548870032,0.0,10.0,0.0,0.0,0.0,10.0,0.0,0.0,0.0,10.0,0.0394147841332,0.0186421276306,-0.00705737688871,1.0,0.0,0.0,0.0,1.0,0.0,0.0,0.0,1.0,-0.159268798828,0.0730480957031,10.0423168945,0.1,0.0,0.0,0.0,0.1,0.0,0.0,0.0,0.1
1446038830543555655,309,1446038830540422916,robocape,1.93494505941,11.1378859578,18.180946713,0.0,10.0,0.0,0.0,0.0,10.0,0.0,0.0,0.0,10.0,0.00226368692657,0.0170442309765,-0.0203731823391,1.0,0.0,0.0,0.0,1.0,0.0,0.0,0.0,1.0,-0.202379150391,0.520916748047,10.0590820312,0.1,0.0,0.0,0.0,0.1,0.0,0.0,0.0,0.1
1446038830577140322,310,1446038830573820114,robocape,1.81401849355,11.1447125588,18.1608478397,0.0,10.0,0.0,0.0,0.0,10.0,0.0,0.0,0.0,10.0,-0.0612527050718,0.0149137021044,0.00798948327024,1.0,0.0,0.0,0.0,1.0,0.0,0.0,0.0,1.0,-0.155676269531,0.217946777344,10.0902172852,0.1,0.0,0.0,0.0,0.1,0.0,0.0,0.0,0.1
1446038830609906572,311,1446038830606848955,robocape,1.60301781724,11.1481697778,18.1252990287,0.0,10.0,0.0,0.0,0.0,10.0,0.0,0.0,0.0,10.0,-0.107059075821,0.0127831732324,-0.000133158054504,1.0,0.0,0.0,0.0,1.0,0.0,0.0,0.0,1.0,-0.160466308594,-0.221539306641,10.075847168,0.1,0.0,0.0,0.0,0.1,0.0,0.0,0.0,0.1
1446038830643362864,312,1446038830640253067,robocape,1.44040602843,11.1517767509,18.0662793322,0.0,10.0,0.0,0.0,0.0,10.0,0.0,0.0,0.0,10.0,-0.0794953585389,0.0123836990689,-0.0125168571234,1.0,0.0,0.0,0.0,1.0,0.0,0.0,0.0,1.0,-0.0886157226563,-0.393980712891,10.0722546387,0.1,0.0,0.0,0.0,0.1,0.0,0.0,0.0,0.1
1446038830676558739,313,1446038830673496007,robocape,1.46509328388,11.1741252474,17.9048733588,0.0,10.0,0.0,0.0,0.0,10.0,0.0,0.0,0.0,10.0,0.0290284558819,0.0201068662301,-0.0667121853065,1.0,0.0,0.0,0.0,1.0,0.0,0.0,0.0,1.0,-0.17244140625,-0.136516113281,10.0459094238,0.1,0.0,0.0,0.0,0.1,0.0,0.0,0.0,0.1
1446038830710139864,314,1446038830707019090,robocape,1.42035208615,11.184740379,17.8348728828,0.0,10.0,0.0,0.0,0.0,10.0,0.0,0.0,0.0,10.0,-0.016644756813,0.015845808486,-0.0186421276306,1.0,0.0,0.0,0.0,1.0,0.0,0.0,0.0,1.0,-0.170046386719,-0.0682580566406,10.0506994629,0.1,0.0,0.0,0.0,0.1,0.0,0.0,0.0,0.1
1446038830743598530,315,1446038830740325927,robocape,1.37305565356,11.1930021798,17.804919644,0.0,10.0,0.0,0.0,0.0,10.0,0.0,0.0,0.0,10.0,-0.0221042370477,0.0154463343225,0.00239684498107,1.0,0.0,0.0,0.0,1.0,0.0,0.0,0.0,1.0,-0.126936035156,-0.324525146484,10.0375268555,0.1,0.0,0.0,0.0,0.1,0.0,0.0,0.0,0.1
1446038830776877614,316,1446038830773785114,robocape,1.38490619608,11.206477819,17.7836957313,0.0,10.0,0.0,0.0,0.0,10.0,0.0,0.0,0.0,10.0,0.00798948327024,0.0183758115215,0.00692421883421,1.0,0.0,0.0,0.0,1.0,0.0,0.0,0.0,1.0,-0.113763427734,-0.487386474609,10.055489502,0.1,0.0,0.0,0.0,0.1,0.0,0.0,0.0,0.1
1446038830810034197,317,1446038830806835889,robocape,1.36948773266,11.2134862434,17.8766259106,0.0,10.0,0.0,0.0,0.0,10.0,0.0,0.0,0.0,10.0,-0.017976337358,0.0173105470855,0.06711165947,1.0,0.0,0.0,0.0,1.0,0.0,0.0,0.0,1.0,-0.0981958007813,-0.372425537109,10.0423168945,0.1,0.0,0.0,0.0,0.1,0.0,0.0,0.0,0.1
1446038830843633947,318,1446038830840379953,robocape,1.49719290473,11.2312583852,17.9300648732,0.0,10.0,0.0,0.0,0.0,10.0,0.0,0.0,0.0,10.0,0.0611195470173,0.0222373951022,0.0463390029674,1.0,0.0,0.0,0.0,1.0,0.0,0.0,0.0,1.0,-0.161663818359,-0.455053710938,10.0530944824,0.1,0.0,0.0,0.0,0.1,0.0,0.0,0.0,0.1
1446038830876755489,319,1446038830873671054,robocape,1.6604113757,11.2505458488,17.9715583234,0.0,10.0,0.0,0.0,0.0,10.0,0.0,0.0,0.0,10.0,0.0810932551929,0.0229031853747,0.0400805744057,1.0,0.0,0.0,0.0,1.0,0.0,0.0,0.0,1.0,-0.146096191406,-0.0323327636719,10.0387243652,0.1,0.0,0.0,0.0,0.1,0.0,0.0,0.0,0.1
1446038830911521822,320,1446038830908309936,robocape,1.79642848483,11.2659282871,17.9545681,0.0,10.0,0.0,0.0,0.0,10.0,0.0,0.0,0.0,10.0,0.0729706138682,0.0195742340121,0.00932106381528,1.0,0.0,0.0,0.0,1.0,0.0,0.0,0.0,1.0,-0.132923583984,0.107775878906,10.0303417969,0.1,0.0,0.0,0.0,0.1,0.0,0.0,0.0,0.1
1446038830943331156,321,1446038830940247058,robocape,1.8724415287,11.2800238783,17.937119735,0.0,10.0,0.0,0.0,0.0,10.0,0.0,0.0,0.0,10.0,0.0416784710597,0.0189084437396,0.00905474770627,1.0,0.0,0.0,0.0,1.0,0.0,0.0,0.0,1.0,-0.104183349609,0.223934326172,10.0506994629,0.1,0.0,0.0,0.0,0.1,0.0,0.0,0.0,0.1
1446038830976665614,322,1446038830973603010,robocape,1.8752791771,11.2948737543,17.9083790321,0.0,10.0,0.0,0.0,0.0,10.0,0.0,0.0,0.0,10.0,0.00452737385313,0.0190416017941,0.00306263525359,1.0,0.0,0.0,0.0,1.0,0.0,0.0,0.0,1.0,-0.329315185547,0.138911132813,10.0111816406,0.1,0.0,0.0,0.0,0.1,0.0,0.0,0.0,0.1
1446038831009941947,323,1446038831006711006,robocape,1.80939881886,11.30960548,17.8761694635,0.0,10.0,0.0,0.0,0.0,10.0,0.0,0.0,0.0,10.0,-0.0311589847539,0.0189084437396,0.00119842249054,1.0,0.0,0.0,0.0,1.0,0.0,0.0,0.0,1.0,-0.0538879394531,0.156873779297,10.1297351074,0.1,0.0,0.0,0.0,0.1,0.0,0.0,0.0,0.1
1446038831043306156,324,1446038831040214061,robocape,1.73762236537,11.3255204191,17.7512540199,0.0,10.0,0.0,0.0,0.0,10.0,0.0,0.0,0.0,10.0,-0.0247673981377,0.0173105470855,-0.0476705835124,1.0,0.0,0.0,0.0,1.0,0.0,0.0,0.0,1.0,-0.111368408203,0.129331054688,10.0650695801,0.1,0.0,0.0,0.0,0.1,0.0,0.0,0.0,0.1
1446038831076802614,325,1446038831073813915,robocape,1.53570347771,11.3242489297,17.7269840721,0.0,10.0,0.0,0.0,0.0,10.0,0.0,0.0,0.0,10.0,-0.10346380835,0.0106526443603,0.00532632218016,1.0,0.0,0.0,0.0,1.0,0.0,0.0,0.0,1.0,-0.17244140625,-0.622705078125,10.0506994629,0.1,0.0,0.0,0.0,0.1,0.0,0.0,0.0,0.1
1446038831110133906,326,1446038831106889009,robocape,1.42817222649,11.3292301643,17.7096160239,0.0,10.0,0.0,0.0,0.0,10.0,0.0,0.0,0.0,10.0,-0.0548611184556,0.0141147537774,0.00892158965177,1.0,0.0,0.0,0.0,1.0,0.0,0.0,0.0,1.0,-0.0682580566406,-0.749641113281,10.0854272461,0.1,0.0,0.0,0.0,0.1,0.0,0.0,0.0,0.1
1446038831143153822,327,1446038831140141010,robocape,1.48615823756,11.345668125,17.6964937254,0.0,10.0,0.0,0.0,0.0,10.0,0.0,0.0,0.0,10.0,0.0314253008629,0.0202400242846,0.0110521185238,1.0,0.0,0.0,0.0,1.0,0.0,0.0,0.0,1.0,-0.107775878906,-0.570014648438,10.0375268555,0.1,0.0,0.0,0.0,0.1,0.0,0.0,0.0,0.1
1446038831176467114,328,1446038831173449039,robocape,1.64665972029,11.3710605687,17.6438893236,0.0,10.0,0.0,0.0,0.0,10.0,0.0,0.0,0.0,10.0,0.0893490545722,0.0241016078652,-0.00985369603329,1.0,0.0,0.0,0.0,1.0,0.0,0.0,0.0,1.0,-0.182021484375,-0.352067871094,10.0267492676,0.1,0.0,0.0,0.0,0.1,0.0,0.0,0.0,0.1
1446038831211312989,329,1446038831207643985,robocape,1.76197737376,11.3901599689,17.5749196133,0.0,10.0,0.0,0.0,0.0,10.0,0.0,0.0,0.0,10.0,0.0675111336335,0.0203731823391,-0.0185089695761,1.0,0.0,0.0,0.0,1.0,0.0,0.0,0.0,1.0,-0.119750976563,0.323327636719,10.0291442871,0.1,0.0,0.0,0.0,0.1,0.0,0.0,0.0,0.1
1446038831243818489,330,1446038831240298986,robocape,1.71619317721,11.3979663495,17.5666789941,0.0,10.0,0.0,0.0,0.0,10.0,0.0,0.0,0.0,10.0,-0.0231695014837,0.015845808486,0.0134489635049,1.0,0.0,0.0,0.0,1.0,0.0,0.0,0.0,1.0,-0.179626464844,0.583187255859,10.0638720703,0.1,0.0,0.0,0.0,0.1,0.0,0.0,0.0,0.1
1446038831276761781,331,1446038831273386001,robocape,1.54299889647,11.4029954838,17.546493352,0.0,10.0,0.0,0.0,0.0,10.0,0.0,0.0,0.0,10.0,-0.0888164223541,0.0141147537774,0.00719053494321,1.0,0.0,0.0,0.0,1.0,0.0,0.0,0.0,1.0,-0.223934326172,0.374820556641,10.075847168,0.1,0.0,0.0,0.0,0.1,0.0,0.0,0.0,0.1
1446038831310436447,332,1446038831306721925,robocape,1.37009487958,11.4018382607,17.5542894474,0.0,10.0,0.0,0.0,0.0,10.0,0.0,0.0,0.0,10.0,-0.0917458995532,0.0114515926873,0.0219710789932,1.0,0.0,0.0,0.0,1.0,0.0,0.0,0.0,1.0,-0.136516113281,-0.872984619141,10.0303417969,0.1,0.0,0.0,0.0,0.1,0.0,0.0,0.0,0.1
1446038831343594114,333,1446038831340147018,robocape,1.36441426869,11.4126982511,17.539670129,0.0,10.0,0.0,0.0,0.0,10.0,0.0,0.0,0.0,10.0,-0.00186421276306,0.0173105470855,0.0101200121423,1.0,0.0,0.0,0.0,1.0,0.0,0.0,0.0,1.0,-0.0886157226563,-0.802331542969,10.0818347168,0.1,0.0,0.0,0.0,0.1,0.0,0.0,0.0,0.1
1446038831376614239,334,1446038831373369932,robocape,1.49502164355,11.4341172237,17.5326098753,0.0,10.0,0.0,0.0,0.0,10.0,0.0,0.0,0.0,10.0,0.0688427141785,0.0230363434292,0.0139815957229,1.0,0.0,0.0,0.0,1.0,0.0,0.0,0.0,1.0,-0.142503662109,-0.451461181641,10.0566870117,0.1,0.0,0.0,0.0,0.1,0.0,0.0,0.0,0.1
1446038831409957781,335,1446038831406641006,robocape,1.59709455026,11.4490656358,17.5761202161,0.0,10.0,0.0,0.0,0.0,10.0,0.0,0.0,0.0,10.0,0.0487358479485,0.0207726565026,0.0406132066237,1.0,0.0,0.0,0.0,1.0,0.0,0.0,0.0,1.0,-0.189206542969,0.119750976563,10.0351318359,0.1,0.0,0.0,0.0,0.1,0.0,0.0,0.0,0.1
1446038831443650197,336,1446038831440210103,robocape,1.68066149281,11.4662988674,17.5861643961,0.0,10.0,0.0,0.0,0.0,10.0,0.0,0.0,0.0,10.0,0.0426105774413,0.0213052887206,0.0230363434292,1.0,0.0,0.0,0.0,1.0,0.0,0.0,0.0,1.0,-0.168848876953,-0.147293701172,10.0315393066,0.1,0.0,0.0,0.0,0.1,0.0,0.0,0.0,0.1
1446038831476648572,337,1446038831473541021,robocape,1.70948303383,11.4801083256,17.5693180292,0.0,10.0,0.0,0.0,0.0,10.0,0.0,0.0,0.0,10.0,0.0167779148675,0.0189084437396,0.00892158965177,1.0,0.0,0.0,0.0,1.0,0.0,0.0,0.0,1.0,-0.168848876953,0.199984130859,10.0231567383,0.1,0.0,0.0,0.0,0.1,0.0,0.0,0.0,0.1
1446038831510308197,338,1446038831507077932,robocape,1.6685622731,11.4895580437,17.5364996244,0.0,10.0,0.0,0.0,0.0,10.0,0.0,0.0,0.0,10.0,-0.0181094954125,0.0162452826495,0.000532632218016,1.0,0.0,0.0,0.0,1.0,0.0,0.0,0.0,1.0,-0.170046386719,-0.00718505859375,10.0734521484,0.1,0.0,0.0,0.0,0.1,0.0,0.0,0.0,0.1
1446038831543370906,339,1446038831540251970,robocape,1.65265521972,11.5056161601,17.4213202393,0.0,10.0,0.0,0.0,0.0,10.0,0.0,0.0,0.0,10.0,0.00359526747161,0.0178431793035,-0.0428768935503,1.0,0.0,0.0,0.0,1.0,0.0,0.0,0.0,1.0,-0.189206542969,0.102985839844,10.0387243652,0.1,0.0,0.0,0.0,0.1,0.0,0.0,0.0,0.1
1446038831576836114,340,1446038831573494911,robocape,1.49875136785,11.5087101217,17.3892645756,0.0,10.0,0.0,0.0,0.0,10.0,0.0,0.0,0.0,10.0,-0.0774979877213,0.0129163312869,0.000798948327024,1.0,0.0,0.0,0.0,1.0,0.0,0.0,0.0,1.0,-0.129331054688,-0.439486083984,10.0710571289,0.1,0.0,0.0,0.0,0.1,0.0,0.0,0.0,0.1
1446038831611047781,341,1446038831607172012,robocape,1.4281868038,11.5133804343,17.3803140241,0.0,10.0,0.0,0.0,0.0,10.0,0.0,0.0,0.0,10.0,-0.0363521488796,0.0142479118319,0.0129163312869,1.0,0.0,0.0,0.0,1.0,0.0,0.0,0.0,1.0,-0.123343505859,-0.446671142578,10.0650695801,0.1,0.0,0.0,0.0,0.1,0.0,0.0,0.0,0.1
1446038831645084823,342,1446038831641593933,robocape,1.48114915069,11.5280446529,17.3677244955,0.0,10.0,0.0,0.0,0.0,10.0,0.0,0.0,0.0,10.0,0.0287621397729,0.0194410759576,0.0109189604693,1.0,0.0,0.0,0.0,1.0,0.0,0.0,0.0,1.0,-0.152083740234,-0.730480957031,10.0471069336,0.1,0.0,0.0,0.0,0.1,0.0,0.0,0.0,0.1
1446038831677884573,343,1446038831674766063,robocape,1.61907013353,11.5488263604,17.3590973764,0.0,10.0,0.0,0.0,0.0,10.0,0.0,0.0,0.0,10.0,0.0729706138682,0.0227700273202,0.0129163312869,1.0,0.0,0.0,0.0,1.0,0.0,0.0,0.0,1.0,-0.167651367188,-0.330512695313,10.0626745605,0.1,0.0,0.0,0.0,0.1,0.0,0.0,0.0,0.1
1446038831711713948,344,1446038831708465099,robocape,1.77922919011,11.5698060239,17.350041574,0.0,10.0,0.0,0.0,0.0,10.0,0.0,0.0,0.0,10.0,0.084821680719,0.0229031853747,0.0126500151779,1.0,0.0,0.0,0.0,1.0,0.0,0.0,0.0,1.0,-0.162861328125,-0.0263452148438,10.0566870117,0.1,0.0,0.0,0.0,0.1,0.0,0.0,0.0,0.1
1446038831745683906,345,1446038831742152929,robocape,1.898916093,11.5831422879,17.3735966613,0.0,10.0,0.0,0.0,0.0,10.0,0.0,0.0,0.0,10.0,0.0603205986903,0.0197073920666,0.0298274042089,1.0,0.0,0.0,0.0,1.0,0.0,0.0,0.0,1.0,-0.156873779297,0.158071289063,10.0471069336,0.1,0.0,0.0,0.0,0.1,0.0,0.0,0.0,0.1
1446038831777228698,346,1446038831774163007,robocape,1.89499610864,11.5956887122,17.3325032962,0.0,10.0,0.0,0.0,0.0,10.0,0.0,0.0,0.0,10.0,0.00239684498107,0.017710021249,-0.00412789968962,1.0,0.0,0.0,0.0,1.0,0.0,0.0,0.0,1.0,-0.183218994141,0.245489501953,10.055489502,0.1,0.0,0.0,0.0,0.1,0.0,0.0,0.0,0.1
1446038831809981239,347,1446038831806885004,robocape,1.77047066819,11.6009541393,17.3228127351,0.0,10.0,0.0,0.0,0.0,10.0,0.0,0.0,0.0,10.0,-0.0641821822709,0.0146473859954,0.0123836990689,1.0,0.0,0.0,0.0,1.0,0.0,0.0,0.0,1.0,-0.164058837891,0.251477050781,10.0866247559,0.1,0.0,0.0,0.0,0.1,0.0,0.0,0.0,0.1
1446038831843518156,348,1446038831840342044,robocape,1.60398614323,11.5992189484,17.3292019954,0.0,10.0,0.0,0.0,0.0,10.0,0.0,0.0,0.0,10.0,-0.0880174740271,0.0113184346328,0.0209058145571,1.0,0.0,0.0,0.0,1.0,0.0,0.0,0.0,1.0,-0.1916015625,-0.518521728516,10.0674645996,0.1,0.0,0.0,0.0,0.1,0.0,0.0,0.0,0.1
1446038831876874073,349,1446038831873661994,robocape,1.57052112704,11.6101247515,17.3113765759,0.0,10.0,0.0,0.0,0.0,10.0,0.0,0.0,0.0,10.0,-0.015845808486,0.01744370514,0.00812264132474,1.0,0.0,0.0,0.0,1.0,0.0,0.0,0.0,1.0,-0.219144287109,-0.513731689453,10.0123791504,0.1,0.0,0.0,0.0,0.1,0.0,0.0,0.0,0.1
1446038831909797739,350,1446038831906711101,robocape,1.64100987751,11.6605614466,17.3040108214,0.0,10.0,0.0,0.0,0.0,10.0,0.0,0.0,0.0,10.0,0.0375505713701,0.0386158358061,0.0133158054504,1.0,0.0,0.0,0.0,1.0,0.0,0.0,0.0,1.0,-1.40228393555,-0.299377441406,10.305769043,0.1,0.0,0.0,0.0,0.1,0.0,0.0,0.0,0.1
1446038831973533323,351,1446038831940229892,robocape,1.72954580303,11.7291526405,17.2924177286,0.0,10.0,0.0,0.0,0.0,10.0,0.0,0.0,0.0,10.0,0.0475374254579,0.0482032157304,0.0109189604693,1.0,0.0,0.0,0.0,1.0,0.0,0.0,0.0,1.0,-2.21180053711,-0.21076171875,9.93693603516,0.1,0.0,0.0,0.0,0.1,0.0,0.0,0.0,0.1
1446038831996022156,352,1446038831992852926,robocape,1.75715746877,11.730047804,17.2790925191,0.0,10.0,0.0,0.0,0.0,10.0,0.0,0.0,0.0,10.0,0.015845808486,0.0123836990689,0.0105194863058,1.0,0.0,0.0,0.0,1.0,0.0,0.0,0.0,1.0,-0.0718505859375,0.0263452148438,10.0650695801,0.1,0.0,0.0,0.0,0.1,0.0,0.0,0.0,0.1
1446038832017969906,353,1446038832014810085,robocape,1.74664895122,11.7406315141,17.2570827445,0.0,10.0,0.0,0.0,0.0,10.0,0.0,0.0,0.0,10.0,-0.0031957933081,0.0173105470855,0.00585895439817,1.0,0.0,0.0,0.0,1.0,0.0,0.0,0.0,1.0,-0.178428955078,0.00119750976563,10.0159716797,0.1,0.0,0.0,0.0,0.1,0.0,0.0,0.0,0.1
1446038832043481448,354,1446038832040463924,robocape,1.7269833661,11.7510146292,17.2224406857,0.0,10.0,0.0,0.0,0.0,10.0,0.0,0.0,0.0,10.0,-0.0066579027252,0.016911072922,-0.000798948327024,1.0,0.0,0.0,0.0,1.0,0.0,0.0,0.0,1.0,-0.179626464844,-0.255069580078,10.0291442871,0.1,0.0,0.0,0.0,0.1,0.0,0.0,0.0,0.1
1446038832078569448,355,1446038832075148105,robocape,1.68343162395,11.7573183944,17.1999849842,0.0,10.0,0.0,0.0,0.0,10.0,0.0,0.0,0.0,10.0,-0.0205063403936,0.0150468601589,0.00559263828917,1.0,0.0,0.0,0.0,1.0,0.0,0.0,0.0,1.0,-0.0838256835938,0.0047900390625,10.0387243652,0.1,0.0,0.0,0.0,0.1,0.0,0.0,0.0,0.1
1446038832110179656,356,1446038832107177019,robocape,1.65756818579,11.7681971889,17.1705377689,0.0,10.0,0.0,0.0,0.0,10.0,0.0,0.0,0.0,10.0,-0.0105194863058,0.0173105470855,0.00186421276306,1.0,0.0,0.0,0.0,1.0,0.0,0.0,0.0,1.0,-0.178428955078,-0.0730480957031,10.0267492676,0.1,0.0,0.0,0.0,0.1,0.0,0.0,0.0,0.1
1446038832143313114,357,1446038832140124082,robocape,1.63326280119,11.7767614915,17.1882901494,0.0,10.0,0.0,0.0,0.0,10.0,0.0,0.0,0.0,10.0,-0.0147805440499,0.017177389031,0.0266316109008,1.0,0.0,0.0,0.0,1.0,0.0,0.0,0.0,1.0,0.00838256835938,-0.577199707031,10.0279467773,0.1,0.0,0.0,0.0,0.1,0.0,0.0,0.0,0.1
1446038832176347364,358,1446038832173342943,robocape,1.69112573081,11.7757457145,17.171888239,0.0,10.0,0.0,0.0,0.0,10.0,0.0,0.0,0.0,10.0,0.031957933081,0.0113184346328,0.00878843159726,1.0,0.0,0.0,0.0,1.0,0.0,0.0,0.0,1.0,0.214354248047,-0.0395178222656,9.84113525391,0.1,0.0,0.0,0.0,0.1,0.0,0.0,0.0,0.1
1446038832211387614,359,1446038832208182096,robocape,1.72030979509,11.7961679602,17.1424062977,0.0,10.0,0.0,0.0,0.0,10.0,0.0,0.0,0.0,10.0,0.0183758115215,0.0223705531567,0.00173105470855,1.0,0.0,0.0,0.0,1.0,0.0,0.0,0.0,1.0,0.0359252929688,0.0311352539063,10.0483044434,0.1,0.0,0.0,0.0,0.1,0.0,0.0,0.0,0.1
1446038832243240281,360,1446038832240199089,robocape,1.71279827404,11.8063844399,17.1212154902,0.0,10.0,0.0,0.0,0.0,10.0,0.0,0.0,0.0,10.0,-0.00173105470855,0.017177389031,0.00612527050718,1.0,0.0,0.0,0.0,1.0,0.0,0.0,0.0,1.0,-0.217946777344,-0.0790356445313,10.0662670898,0.1,0.0,0.0,0.0,0.1,0.0,0.0,0.0,0.1
1446038832276372448,361,1446038832273333072,robocape,1.69243811882,11.815781356,17.0954923343,0.0,10.0,0.0,0.0,0.0,10.0,0.0,0.0,0.0,10.0,-0.00798948327024,0.016644756813,0.00372842552611,1.0,0.0,0.0,0.0,1.0,0.0,0.0,0.0,1.0,-0.147293701172,-0.199984130859,10.0686621094,0.1,0.0,0.0,0.0,0.1,0.0,0.0,0.0,0.1
1446038832309811198,362,1446038832306668996,robocape,1.70031875402,11.8309325996,17.0191677664,0.0,10.0,0.0,0.0,0.0,10.0,0.0,0.0,0.0,10.0,0.0122505410144,0.0185089695761,-0.0229031853747,1.0,0.0,0.0,0.0,1.0,0.0,0.0,0.0,1.0,-0.162861328125,0.155676269531,10.0662670898,0.1,0.0,0.0,0.0,0.1,0.0,0.0,0.0,0.1
1446038832343026406,363,1446038832340023994,robocape,1.63793583267,11.8398609679,16.9865785612,0.0,10.0,0.0,0.0,0.0,10.0,0.0,0.0,0.0,10.0,-0.0292947719909,0.0162452826495,0.0,1.0,0.0,0.0,0.0,1.0,0.0,0.0,0.0,1.0,-0.124541015625,-0.349672851562,10.0159716797,0.1,0.0,0.0,0.0,0.1,0.0,0.0,0.0,0.1
1446038832377107031,364,1446038832373843908,robocape,1.59956990308,11.8461850065,17.0085788407,0.0,10.0,0.0,0.0,0.0,10.0,0.0,0.0,0.0,10.0,-0.0226368692657,0.016112124595,0.0286289817184,1.0,0.0,0.0,0.0,1.0,0.0,0.0,0.0,1.0,-0.112565917969,-0.413140869141,10.0471069336,0.1,0.0,0.0,0.0,0.1,0.0,0.0,0.0,0.1
1446038832409964448,365,1446038832406583070,robocape,1.68704972281,11.8630015642,17.0027656408,0.0,10.0,0.0,0.0,0.0,10.0,0.0,0.0,0.0,10.0,0.0463390029674,0.0210389726116,0.0139815957229,1.0,0.0,0.0,0.0,1.0,0.0,0.0,0.0,1.0,-0.117355957031,-0.495769042969,10.0447119141,0.1,0.0,0.0,0.0,0.1,0.0,0.0,0.0,0.1
1446038832444048990,366,1446038832440686941,robocape,1.80448172547,11.8821825961,16.9879010134,0.0,10.0,0.0,0.0,0.0,10.0,0.0,0.0,0.0,10.0,0.0631169178349,0.0221042370477,0.00918790576077,1.0,0.0,0.0,0.0,1.0,0.0,0.0,0.0,1.0,-0.167651367188,-0.0383203125,10.0387243652,0.1,0.0,0.0,0.0,0.1,0.0,0.0,0.0,0.1
1446038832476959156,367,1446038832473448991,robocape,1.86458008556,11.8964745561,16.974289177,0.0,10.0,0.0,0.0,0.0,10.0,0.0,0.0,0.0,10.0,0.033023197517,0.0195742340121,0.00985369603329,1.0,0.0,0.0,0.0,1.0,0.0,0.0,0.0,1.0,-0.135318603516,0.138911132813,10.060279541,0.1,0.0,0.0,0.0,0.1,0.0,0.0,0.0,0.1
1446038832511870240,368,1446038832508800029,robocape,1.8448858936,11.9068794542,16.9571048751,0.0,10.0,0.0,0.0,0.0,10.0,0.0,0.0,0.0,10.0,-0.00838895743375,0.01744370514,0.00798948327024,1.0,0.0,0.0,0.0,1.0,0.0,0.0,0.0,1.0,-0.148491210938,0.166453857422,10.0303417969,0.1,0.0,0.0,0.0,0.1,0.0,0.0,0.0,0.1
1446038832543361490,369,1446038832540168046,robocape,1.77025004755,11.9131482939,16.9256649995,0.0,10.0,0.0,0.0,0.0,10.0,0.0,0.0,0.0,10.0,-0.0356863586071,0.0149137021044,0.000532632218016,1.0,0.0,0.0,0.0,1.0,0.0,0.0,0.0,1.0,-0.159268798828,-0.128133544922,10.0291442871,0.1,0.0,0.0,0.0,0.1,0.0,0.0,0.0,0.1
1446038832577160115,370,1446038832574131965,robocape,1.64405527779,11.9199523021,16.8983433477,0.0,10.0,0.0,0.0,0.0,10.0,0.0,0.0,0.0,10.0,-0.0632500758894,0.015313176268,0.00266316109008,1.0,0.0,0.0,0.0,1.0,0.0,0.0,0.0,1.0,-0.143701171875,-0.362845458984,10.0303417969,0.1,0.0,0.0,0.0,0.1,0.0,0.0,0.0,0.1
1446038832609855281,371,1446038832606789112,robocape,1.65418575311,11.9318580266,16.881035437,0.0,10.0,0.0,0.0,0.0,10.0,0.0,0.0,0.0,10.0,0.00705737688871,0.018242653467,0.00785632521573,1.0,0.0,0.0,0.0,1.0,0.0,0.0,0.0,1.0,-0.113763427734,-0.44068359375,10.055489502,0.1,0.0,0.0,0.0,0.1,0.0,0.0,0.0,0.1
1446038832643167115,372,1446038832640187025,robocape,1.72840336031,11.9473915586,16.8668879186,0.0,10.0,0.0,0.0,0.0,10.0,0.0,0.0,0.0,10.0,0.0403468905147,0.0202400242846,0.00945422186978,1.0,0.0,0.0,0.0,1.0,0.0,0.0,0.0,1.0,-0.141306152344,-0.285007324219,10.0542919922,0.1,0.0,0.0,0.0,0.1,0.0,0.0,0.0,0.1
1446038832676603948,373,1446038832673564910,robocape,1.80138939073,11.9623784236,16.8695521267,0.0,10.0,0.0,0.0,0.0,10.0,0.0,0.0,0.0,10.0,0.0379500455336,0.0203731823391,0.018242653467,1.0,0.0,0.0,0.0,1.0,0.0,0.0,0.0,1.0,-0.150886230469,-0.120948486328,10.0411193848,0.1,0.0,0.0,0.0,0.1,0.0,0.0,0.0,0.1
1446038832712785240,374,1446038832709667921,robocape,1.8599759596,11.9768065414,16.8450389453,0.0,10.0,0.0,0.0,0.0,10.0,0.0,0.0,0.0,10.0,0.0334226716805,0.0194410759576,0.00399474163512,1.0,0.0,0.0,0.0,1.0,0.0,0.0,0.0,1.0,-0.186811523438,0.0993933105469,10.0530944824,0.1,0.0,0.0,0.0,0.1,0.0,0.0,0.0,0.1
1446038832743375740,375,1446038832740186929,robocape,1.85638009445,11.9891163786,16.8223438688,0.0,10.0,0.0,0.0,0.0,10.0,0.0,0.0,0.0,10.0,0.00066579027252,0.0183758115215,0.00492684801665,1.0,0.0,0.0,0.0,1.0,0.0,0.0,0.0,1.0,-0.156873779297,-0.0131726074219,10.0674645996,0.1,0.0,0.0,0.0,0.1,0.0,0.0,0.0,0.1
1446038832777861698,376,1446038832774812936,robocape,1.82056281008,11.9986163565,16.7948245731,0.0,10.0,0.0,0.0,0.0,10.0,0.0,0.0,0.0,10.0,-0.0157126504315,0.0167779148675,0.00239684498107,1.0,0.0,0.0,0.0,1.0,0.0,0.0,0.0,1.0,-0.149688720703,-0.0886157226563,10.0842297363,0.1,0.0,0.0,0.0,0.1,0.0,0.0,0.0,0.1
1446038832811230198,377,1446038832808193922,robocape,1.78548375971,12.0085370291,16.7742260345,0.0,10.0,0.0,0.0,0.0,10.0,0.0,0.0,0.0,10.0,-0.016112124595,0.017177389031,0.00599211245268,1.0,0.0,0.0,0.0,1.0,0.0,0.0,0.0,1.0,-0.144898681641,-0.228724365234,10.0495019531,0.1,0.0,0.0,0.0,0.1,0.0,0.0,0.0,0.1
1446038832845229948,378,1446038832841962099,robocape,1.77947862,12.0199091622,16.7491135287,0.0,10.0,0.0,0.0,0.0,10.0,0.0,0.0,0.0,10.0,-0.000399474163512,0.0178431793035,0.00359526747161,1.0,0.0,0.0,0.0,1.0,0.0,0.0,0.0,1.0,-0.113763427734,-0.231119384766,10.0506994629,0.1,0.0,0.0,0.0,0.1,0.0,0.0,0.0,0.1
1446038832878289948,379,1446038832875127077,robocape,1.79504660317,12.031079914,16.7337147493,0.0,10.0,0.0,0.0,0.0,10.0,0.0,0.0,0.0,10.0,0.00985369603329,0.017976337358,0.00865527354276,1.0,0.0,0.0,0.0,1.0,0.0,0.0,0.0,1.0,-0.147293701172,-0.228724365234,10.0518969727,0.1,0.0,0.0,0.0,0.1,0.0,0.0,0.0,0.1
1446038832911334656,380,1446038832908268928,robocape,1.82516088898,12.0453094924,16.7115458446,0.0,10.0,0.0,0.0,0.0,10.0,0.0,0.0,0.0,10.0,0.018242653467,0.0194410759576,0.00506000607115,1.0,0.0,0.0,0.0,1.0,0.0,0.0,0.0,1.0,-0.154478759766,-0.111368408203,10.0411193848,0.1,0.0,0.0,0.0,0.1,0.0,0.0,0.0,0.1
1446038832945210282,381,1446038832941850900,robocape,1.84328963441,12.0567231638,16.6954917098,0.0,10.0,0.0,0.0,0.0,10.0,0.0,0.0,0.0,10.0,0.0113184346328,0.0181094954125,0.00825579937925,1.0,0.0,0.0,0.0,1.0,0.0,0.0,0.0,1.0,-0.142503662109,-0.076640625,10.0578845215,0.1,0.0,0.0,0.0,0.1,0.0,0.0,0.0,0.1
1446038832978780448,382,1446038832975359916,robocape,1.84787746865,12.0679104722,16.6731207897,0.0,10.0,0.0,0.0,0.0,10.0,0.0,0.0,0.0,10.0,0.00492684801665,0.0178431793035,0.00492684801665,1.0,0.0,0.0,0.0,1.0,0.0,0.0,0.0,1.0,-0.143701171875,-0.0981958007813,10.0566870117,0.1,0.0,0.0,0.0,0.1,0.0,0.0,0.0,0.1
1446038833013919032,383,1446038833008550882,robocape,1.85190793827,12.0790600757,16.65665151,0.0,10.0,0.0,0.0,0.0,10.0,0.0,0.0,0.0,10.0,0.00399474163512,0.017976337358,0.00798948327024,1.0,0.0,0.0,0.0,1.0,0.0,0.0,0.0,1.0,-0.147293701172,-0.213156738281,10.0459094238,0.1,0.0,0.0,0.0,0.1,0.0,0.0,0.0,0.1
1446038833047266448,384,1446038833042196989,robocape,1.94623596235,12.0968834487,16.6739067413,0.0,10.0,0.0,0.0,0.0,10.0,0.0,0.0,0.0,10.0,0.0476705835124,0.0223705531567,0.0255663464648,1.0,0.0,0.0,0.0,1.0,0.0,0.0,0.0,1.0,-2.82732055664,-0.0047900390625,9.78245727539,0.1,0.0,0.0,0.0,0.1,0.0,0.0,0.0,0.1
1446038833080710198,385,1446038833076483011,robocape,2.1095688099,11.7913948702,16.5711230607,0.0,10.0,0.0,0.0,0.0,10.0,0.0,0.0,0.0,10.0,0.0969390636789,-0.152066498244,-0.033822145844,1.0,0.0,0.0,0.0,1.0,0.0,0.0,0.0,1.0,1.72561157227,-0.889749755859,9.79443237305,0.1,0.0,0.0,0.0,0.1,0.0,0.0,0.0,0.1
1446038833113052365,386,1446038833109920024,robocape,2.49108196241,11.3543414853,16.3940814263,0.0,10.0,0.0,0.0,0.0,10.0,0.0,0.0,0.0,10.0,0.218911841605,-0.224238163785,-0.0703074527781,1.0,0.0,0.0,0.0,1.0,0.0,0.0,0.0,1.0,-10.0087866211,-0.237106933594,11.209888916,0.1,0.0,0.0,0.0,0.1,0.0,0.0,0.0,0.1
1446038833146332490,387,1446038833143074035,robocape,2.79669351593,11.2331576762,16.0334476408,0.0,10.0,0.0,0.0,0.0,10.0,0.0,0.0,0.0,10.0,0.197872868993,-0.0636495500529,-0.170708625874,1.0,0.0,0.0,0.0,1.0,0.0,0.0,0.0,1.0,-8.35622314453,-0.805924072266,10.1057849121,0.1,0.0,0.0,0.0,0.1,0.0,0.0,0.0,0.1
1446038833179853157,388,1446038833175652980,robocape,3.41300877421,11.3110378615,15.9097074832,0.0,10.0,0.0,0.0,0.0,10.0,0.0,0.0,0.0,10.0,0.337156194004,0.0486026898939,-0.050466902657,1.0,0.0,0.0,0.0,1.0,0.0,0.0,0.0,1.0,-11.3667626953,-1.21547241211,11.8685192871,0.1,0.0,0.0,0.0,0.1,0.0,0.0,0.0,0.1
1446038833214341073,389,1446038833211210012,robocape,4.02507208945,11.3679421696,15.8218940295,0.0,10.0,0.0,0.0,0.0,10.0,0.0,0.0,0.0,10.0,0.331963029878,0.0386158358061,-0.0314253008629,1.0,0.0,0.0,0.0,1.0,0.0,0.0,0.0,1.0,-6.23902587891,0.244291992188,10.5117407227,0.1,0.0,0.0,0.0,0.1,0.0,0.0,0.0,0.1
1446038833247540532,390,1446038833243678092,robocape,4.97981483916,11.3190252482,15.4583650347,0.0,10.0,0.0,0.0,0.0,10.0,0.0,0.0,0.0,10.0,0.540222227123,-0.0303600364269,-0.171507574201,1.0,0.0,0.0,0.0,1.0,0.0,0.0,0.0,1.0,-10.0626745605,-1.32324829102,10.0710571289,0.1,0.0,0.0,0.0,0.1,0.0,0.0,0.0,0.1
1446038833280995198,391,1446038833277673959,robocape,6.38882486076,11.3009077911,15.3212776286,0.0,10.0,0.0,0.0,0.0,10.0,0.0,0.0,0.0,10.0,0.75713669791,-0.0034621094171,-0.0529969056926,1.0,0.0,0.0,0.0,1.0,0.0,0.0,0.0,1.0,-8.36580322266,-0.571212158203,10.2890039063,0.1,0.0,0.0,0.0,0.1,0.0,0.0,0.0,0.1
