%time,field.header.seq,field.header.stamp,field.header.frame_id,field.orientation.x,field.orientation.y,field.orientation.z,field.orientation.w,field.orientation_covariance0,field.orientation_covariance1,field.orientation_covariance2,field.orientation_covariance3,field.orientation_covariance4,field.orientation_covariance5,field.orientation_covariance6,field.orientation_covariance7,field.orientation_covariance8,field.angular_velocity.x,field.angular_velocity.y,field.angular_velocity.z,field.angular_velocity_covariance0,field.angular_velocity_covariance1,field.angular_velocity_covariance2,field.angular_velocity_covariance3,field.angular_velocity_covariance4,field.angular_velocity_covariance5,field.angular_velocity_covariance6,field.angular_velocity_covariance7,field.angular_velocity_covariance8,field.linear_acceleration.x,field.linear_acceleration.y,field.linear_acceleration.z,field.linear_acceleration_covariance0,field.linear_acceleration_covariance1,field.linear_acceleration_covariance2,field.linear_acceleration_covariance3,field.linear_acceleration_covariance4,field.linear_acceleration_covariance5,field.linear_acceleration_covariance6,field.linear_acceleration_covariance7,field.linear_acceleration_covariance8
1446037190511103415,1,1446037190506789922,robocape,3.05878133522,13.92725127,26.8790671876,0.0,10.0,0.0,0.0,0.0,10.0,0.0,0.0,0.0,10.0,-0.0101200121423,0.0191747598486,0.0237021337017,1.0,0.0,0.0,0.0,1.0,0.0,0.0,0.0,1.0,0.100590820313,0.629890136719,10.0027990723,0.1,0.0,0.0,0.0,0.1,0.0,0.0,0.0,0.1
1446037190540849248,2,1446037190537506103,robocape,2.96908066157,13.9339134793,26.8333543818,0.0,10.0,0.0,0.0,0.0,10.0,0.0,0.0,0.0,10.0,-0.0416784710597,0.0214384467751,0.0117179087963,1.0,0.0,0.0,0.0,1.0,0.0,0.0,0.0,1.0,0.076640625,0.0562829589844,10.0411193848,0.1,0.0,0.0,0.0,0.1,0.0,0.0,0.0,0.1
1446037190573920332,3,1446037190570833921,robocape,2.90676254517,13.9437220689,26.7321556392,0.0,10.0,0.0,0.0,0.0,10.0,0.0,0.0,0.0,10.0,-0.0203731823391,0.0207726565026,-0.018242653467,1.0,0.0,0.0,0.0,1.0,0.0,0.0,0.0,1.0,0.112565917969,1.33522338867,9.89622070313,0.1,0.0,0.0,0.0,0.1,0.0,0.0,0.0,0.1
1446037190609812332,4,1446037190605945110,robocape,2.69798983744,13.9633031564,26.6281777155,0.0,10.0,0.0,0.0,0.0,10.0,0.0,0.0,0.0,10.0,-0.0969390636789,0.0259658206283,-0.0199737081756,1.0,0.0,0.0,0.0,1.0,0.0,0.0,0.0,1.0,0.0203576660156,-0.171243896484,10.3404968262,0.1,0.0,0.0,0.0,0.1,0.0,0.0,0.0,0.1
1446037190644247040,5,1446037190640685081,robocape,2.71949975126,13.9872823571,26.2825383251,0.0,10.0,0.0,0.0,0.0,10.0,0.0,0.0,0.0,10.0,0.0544616442921,0.0186421276306,-0.150069127426,1.0,0.0,0.0,0.0,1.0,0.0,0.0,0.0,1.0,-0.0467028808594,0.0598754882813,10.1632653809,0.1,0.0,0.0,0.0,0.1,0.0,0.0,0.0,0.1
1446037190676764873,6,1446037190673778057,robocape,2.53401285269,13.997998418,26.1502346266,0.0,10.0,0.0,0.0,0.0,10.0,0.0,0.0,0.0,10.0,-0.0812264132474,0.0201068662301,-0.0359526747161,1.0,0.0,0.0,0.0,1.0,0.0,0.0,0.0,1.0,0.207169189453,0.936452636719,9.83275268555,0.1,0.0,0.0,0.0,0.1,0.0,0.0,0.0,0.1
1446037190710488457,7,1446037190707251071,robocape,2.21805811073,14.0094027319,26.0806783504,0.0,10.0,0.0,0.0,0.0,10.0,0.0,0.0,0.0,10.0,-0.157925452642,0.0230363434292,-0.00239684498107,1.0,0.0,0.0,0.0,1.0,0.0,0.0,0.0,1.0,-0.215551757813,-0.870589599609,10.2446960449,0.1,0.0,0.0,0.0,0.1,0.0,0.0,0.0,0.1
1446037190743691915,8,1446037190740588903,robocape,2.2916452366,14.0213872567,25.8350417502,0.0,10.0,0.0,0.0,0.0,10.0,0.0,0.0,0.0,10.0,0.068709556124,0.016911072922,-0.0972053797879,1.0,0.0,0.0,0.0,1.0,0.0,0.0,0.0,1.0,0.00119750976563,-0.676593017578,10.1021923828,0.1,0.0,0.0,0.0,0.1,0.0,0.0,0.0,0.1
1446037190777093457,9,1446037190773955106,robocape,2.42336701432,14.0345690342,25.5510319584,0.0,10.0,0.0,0.0,0.0,10.0,0.0,0.0,0.0,10.0,0.104262756677,0.015845808486,-0.1182443524,1.0,0.0,0.0,0.0,1.0,0.0,0.0,0.0,1.0,0.0251477050781,-0.136516113281,10.0087866211,0.1,0.0,0.0,0.0,0.1,0.0,0.0,0.0,0.1
1446037190810326415,10,1446037190806771039,robocape,2.40806456527,14.0419451286,25.380637422,0.0,10.0,0.0,0.0,0.0,10.0,0.0,0.0,0.0,10.0,0.0127831732324,0.0167779148675,-0.0577905956547,1.0,0.0,0.0,0.0,1.0,0.0,0.0,0.0,1.0,-0.009580078125,0.507744140625,9.98723144531,0.1,0.0,0.0,0.0,0.1,0.0,0.0,0.0,0.1
1446037190843271790,11,1446037190840166091,robocape,2.18984419051,14.0483590912,25.3622177929,0.0,10.0,0.0,0.0,0.0,10.0,0.0,0.0,0.0,10.0,-0.113184346328,0.0218379209386,0.0233026595382,1.0,0.0,0.0,0.0,1.0,0.0,0.0,0.0,1.0,0.0610729980469,0.76640625,9.95729370117,0.1,0.0,0.0,0.0,0.1,0.0,0.0,0.0,0.1
1446037190876599999,12,1446037190873471975,robocape,1.9305091969,14.0625932682,25.514170091,0.0,10.0,0.0,0.0,0.0,10.0,0.0,0.0,0.0,10.0,-0.15699334626,0.0316916169719,0.114515926873,1.0,0.0,0.0,0.0,1.0,0.0,0.0,0.0,1.0,-0.0778381347656,-1.36995117188,10.2099682617,0.1,0.0,0.0,0.0,0.1,0.0,0.0,0.0,0.1
1446037190909330040,13,1446037190906016111,robocape,1.97701395649,14.0668005884,25.3662242006,0.0,10.0,0.0,0.0,0.0,10.0,0.0,0.0,0.0,10.0,0.0418116291142,0.016378440704,-0.0458063707494,1.0,0.0,0.0,0.0,1.0,0.0,0.0,0.0,1.0,-0.207169189453,-0.449066162109,9.90101074219,0.1,0.0,0.0,0.0,0.1,0.0,0.0,0.0,0.1
1446037190941913332,14,1446037190938888072,robocape,2.00623528106,14.0629551786,25.3770822063,0.0,10.0,0.0,0.0,0.0,10.0,0.0,0.0,0.0,10.0,0.0123836990689,0.017177389031,0.0388821519152,1.0,0.0,0.0,0.0,1.0,0.0,0.0,0.0,1.0,0.165256347656,0.40236328125,9.92017089844,0.1,0.0,0.0,0.0,0.1,0.0,0.0,0.0,0.1
1446037190974618999,15,1446037190971506118,robocape,1.7844752812,14.0521251163,25.651010857,0.0,10.0,0.0,0.0,0.0,10.0,0.0,0.0,0.0,10.0,-0.153264920734,0.0219710789932,0.180029689689,1.0,0.0,0.0,0.0,1.0,0.0,0.0,0.0,1.0,-0.067060546875,-0.641865234375,10.1548828125,0.1,0.0,0.0,0.0,0.1,0.0,0.0,0.0,0.1
1446037191008061707,16,1446037191004729032,robocape,2.01242537428,14.036774291,25.6983579366,0.0,10.0,0.0,0.0,0.0,10.0,0.0,0.0,0.0,10.0,0.111719607729,0.0121173829599,0.0588558600908,1.0,0.0,0.0,0.0,1.0,0.0,0.0,0.0,1.0,-0.265847167969,-1.56634277344,10.0638720703,0.1,0.0,0.0,0.0,0.1,0.0,0.0,0.0,0.1
1446037191041129749,17,1446037191038028001,robocape,2.44727226372,14.0125372777,25.6572982563,0.0,10.0,0.0,0.0,0.0,10.0,0.0,0.0,0.0,10.0,0.231961330946,0.00439421579863,0.0114515926873,1.0,0.0,0.0,0.0,1.0,0.0,0.0,0.0,1.0,0.107775878906,-0.304167480469,9.82197509766,0.1,0.0,0.0,0.0,0.1,0.0,0.0,0.0,0.1
1446037191074310790,18,1446037191071202993,robocape,2.8748395831,13.9916764325,25.6312439436,0.0,10.0,0.0,0.0,0.0,10.0,0.0,0.0,0.0,10.0,0.22676816682,0.0067910607797,0.0195742340121,1.0,0.0,0.0,0.0,1.0,0.0,0.0,0.0,1.0,-0.131726074219,-0.0431103515625,10.0890197754,0.1,0.0,0.0,0.0,0.1,0.0,0.0,0.0,0.1
1446037191107718207,19,1446037191104381084,robocape,3.30429079696,13.9714575912,25.4543252992,0.0,10.0,0.0,0.0,0.0,10.0,0.0,0.0,0.0,10.0,0.247407665268,0.000798948327024,-0.0609863889628,1.0,0.0,0.0,0.0,1.0,0.0,0.0,0.0,1.0,0.165256347656,1.03345092773,10.003996582,0.1,0.0,0.0,0.0,0.1,0.0,0.0,0.0,0.1
1446037191140642124,20,1446037191137530088,robocape,3.3319268074,13.9703382273,25.3693419092,0.0,10.0,0.0,0.0,0.0,10.0,0.0,0.0,0.0,10.0,0.0254331884103,0.0147805440499,-0.0123836990689,1.0,0.0,0.0,0.0,1.0,0.0,0.0,0.0,1.0,0.216749267578,1.86093017578,9.78964233398,0.1,0.0,0.0,0.0,0.1,0.0,0.0,0.0,0.1
1446037191174091165,21,1446037191171014070,robocape,2.95962500141,13.9921552817,25.3400834399,0.0,10.0,0.0,0.0,0.0,10.0,0.0,0.0,0.0,10.0,-0.191481282377,0.0294279300454,0.0167779148675,1.0,0.0,0.0,0.0,1.0,0.0,0.0,0.0,1.0,-0.0395178222656,0.123343505859,10.0423168945,0.1,0.0,0.0,0.0,0.1,0.0,0.0,0.0,0.1
1446037191207535790,22,1446037191204312086,robocape,2.53346104311,14.015350182,25.326610849,0.0,10.0,0.0,0.0,0.0,10.0,0.0,0.0,0.0,10.0,-0.222240792967,0.0308926686449,0.0254331884103,1.0,0.0,0.0,0.0,1.0,0.0,0.0,0.0,1.0,0.105380859375,0.354462890625,9.733359375,0.1,0.0,0.0,0.0,0.1,0.0,0.0,0.0,0.1
1446037191240688124,23,1446037191237689018,robocape,2.11988958057,14.0314893683,25.3831601365,0.0,10.0,0.0,0.0,0.0,10.0,0.0,0.0,0.0,10.0,-0.225170270166,0.0296942461544,0.0632500758894,1.0,0.0,0.0,0.0,1.0,0.0,0.0,0.0,1.0,-0.028740234375,-0.59396484375,9.98483642578,0.1,0.0,0.0,0.0,0.1,0.0,0.0,0.0,0.1
1446037191274603290,24,1446037191271521091,robocape,1.95111731956,14.0339605768,25.4135883494,0.0,10.0,0.0,0.0,0.0,10.0,0.0,0.0,0.0,10.0,-0.0938764284253,0.0213052887206,0.0495347962755,1.0,0.0,0.0,0.0,1.0,0.0,0.0,0.0,1.0,-0.165256347656,-0.966390380859,10.1620678711,0.1,0.0,0.0,0.0,0.1,0.0,0.0,0.0,0.1
1446037191307632832,25,1446037191304470062,robocape,2.04988505242,14.0278097972,25.3870768952,0.0,10.0,0.0,0.0,0.0,10.0,0.0,0.0,0.0,10.0,0.0536626959651,0.0146473859954,0.0189084437396,1.0,0.0,0.0,0.0,1.0,0.0,0.0,0.0,1.0,0.00598754882813,-0.817899169922,10.1261425781,0.1,0.0,0.0,0.0,0.1,0.0,0.0,0.0,0.1
1446037191340879999,26,1446037191337786912,robocape,2.36042882721,14.0116553727,25.3811716708,0.0,10.0,0.0,0.0,0.0,10.0,0.0,0.0,0.0,10.0,0.16231966844,0.00985369603329,0.0296942461544,1.0,0.0,0.0,0.0,1.0,0.0,0.0,0.0,1.0,-0.0634680175781,-0.573607177734,10.1045874023,0.1,0.0,0.0,0.0,0.1,0.0,0.0,0.0,0.1
1446037191374197457,27,1446037191371186017,robocape,2.87245642489,14.0012755602,25.10972069,0.0,10.0,0.0,0.0,0.0,10.0,0.0,0.0,0.0,10.0,0.302268783724,0.00279631914458,-0.112385398001,1.0,0.0,0.0,0.0,1.0,0.0,0.0,0.0,1.0,0.00718505859375,0.09580078125,10.0746496582,0.1,0.0,0.0,0.0,0.1,0.0,0.0,0.0,0.1
1446037191407732415,28,1446037191404622077,robocape,2.97691339536,13.9983960191,25.0534074388,0.0,10.0,0.0,0.0,0.0,10.0,0.0,0.0,0.0,10.0,0.0616521792353,0.0150468601589,0.00226368692657,1.0,0.0,0.0,0.0,1.0,0.0,0.0,0.0,1.0,0.320932617188,1.88248535156,9.76449462891,0.1,0.0,0.0,0.0,0.1,0.0,0.0,0.0,0.1
1446037191445522832,29,1446037191439533948,robocape,2.42506343561,14.0102193894,25.2443595091,0.0,10.0,0.0,0.0,0.0,10.0,0.0,0.0,0.0,10.0,-0.314253008629,0.0326237233535,0.134090160885,1.0,0.0,0.0,0.0,1.0,0.0,0.0,0.0,1.0,0.217946777344,1.56035522461,9.94292358398,0.1,0.0,0.0,0.0,0.1,0.0,0.0,0.0,0.1
1446037191478457540,30,1446037191475152969,robocape,1.968647183,14.0317913406,25.2159348223,0.0,10.0,0.0,0.0,0.0,10.0,0.0,0.0,0.0,10.0,-0.236888178963,0.0295610880999,0.017710021249,1.0,0.0,0.0,0.0,1.0,0.0,0.0,0.0,1.0,-0.102985839844,-0.737666015625,10.1177600098,0.1,0.0,0.0,0.0,0.1,0.0,0.0,0.0,0.1
1446037191512379624,31,1446037191507898092,robocape,1.96723989072,14.0614993853,24.7794819272,0.0,10.0,0.0,0.0,0.0,10.0,0.0,0.0,0.0,10.0,0.0537958540196,0.0205063403936,-0.200536030083,1.0,0.0,0.0,0.0,1.0,0.0,0.0,0.0,1.0,0.0922082519531,-1.1843371582,10.1716479492,0.1,0.0,0.0,0.0,0.1,0.0,0.0,0.0,0.1
1446037191545750915,32,1446037191542334079,robocape,2.14071137678,14.0743766712,24.401000731,0.0,10.0,0.0,0.0,0.0,10.0,0.0,0.0,0.0,10.0,0.138218060575,0.0129163312869,-0.170309151711,1.0,0.0,0.0,0.0,1.0,0.0,0.0,0.0,1.0,-0.13412109375,1.16876953125,9.97405883789,0.1,0.0,0.0,0.0,0.1,0.0,0.0,0.0,0.1
1446037191577530207,33,1446037191574189901,robocape,1.74747238678,14.0798451799,24.5322392149,0.0,10.0,0.0,0.0,0.0,10.0,0.0,0.0,0.0,10.0,-0.224504479894,0.0256995045193,0.101200121423,1.0,0.0,0.0,0.0,1.0,0.0,0.0,0.0,1.0,0.17244140625,0.376018066406,9.99441650391,0.1,0.0,0.0,0.0,0.1,0.0,0.0,0.0,0.1
1446037191610976749,34,1446037191607512950,robocape,1.51707634407,14.0875441092,24.4147870713,0.0,10.0,0.0,0.0,0.0,10.0,0.0,0.0,0.0,10.0,-0.107458549985,0.0193079179031,-0.0310258266994,1.0,0.0,0.0,0.0,1.0,0.0,0.0,0.0,1.0,-0.122145996094,-0.331710205078,10.2375109863,0.1,0.0,0.0,0.0,0.1,0.0,0.0,0.0,0.1
1446037191645221041,35,1446037191641980886,robocape,1.39023401719,14.1087120837,24.1546201564,0.0,10.0,0.0,0.0,0.0,10.0,0.0,0.0,0.0,10.0,-0.03488741028,0.0226368692657,-0.10732539193,1.0,0.0,0.0,0.0,1.0,0.0,0.0,0.0,1.0,-0.101788330078,0.148491210938,10.1105749512,0.1,0.0,0.0,0.0,0.1,0.0,0.0,0.0,0.1
1446037191678431707,36,1446037191675288915,robocape,1.0550017946,14.1260457047,24.1583839952,0.0,10.0,0.0,0.0,0.0,10.0,0.0,0.0,0.0,10.0,-0.17856495109,0.0278300333913,0.0331563555715,1.0,0.0,0.0,0.0,1.0,0.0,0.0,0.0,1.0,-0.0263452148438,0.513731689453,9.93334350586,0.1,0.0,0.0,0.0,0.1,0.0,0.0,0.0,0.1
1446037191711341832,37,1446037191708122968,robocape,0.531840551151,14.1263346891,24.266873229,0.0,10.0,0.0,0.0,0.0,10.0,0.0,0.0,0.0,10.0,-0.291349823255,0.0211721306661,0.0894822126267,1.0,0.0,0.0,0.0,1.0,0.0,0.0,0.0,1.0,-0.130528564453,-0.196391601563,10.1021923828,0.1,0.0,0.0,0.0,0.1,0.0,0.0,0.0,0.1
1446037191743362541,38,1446037191740144014,robocape,0.0850767887361,14.10856356,24.2794085865,0.0,10.0,0.0,0.0,0.0,10.0,0.0,0.0,0.0,10.0,-0.239418181998,0.00945422186978,0.0386158358061,1.0,0.0,0.0,0.0,1.0,0.0,0.0,0.0,1.0,-0.00718505859375,-1.44060424805,10.2147583008,0.1,0.0,0.0,0.0,0.1,0.0,0.0,0.0,0.1
1446037191776949416,39,1446037191773629903,robocape,0.100129911779,14.1040960566,24.155478994,0.0,10.0,0.0,0.0,0.0,10.0,0.0,0.0,0.0,10.0,0.0203731823391,0.0137152796139,-0.0350205683345,1.0,0.0,0.0,0.0,1.0,0.0,0.0,0.0,1.0,0.368833007813,-2.19264038086,9.96807128906,0.1,0.0,0.0,0.0,0.1,0.0,0.0,0.0,0.1
1446037191810861999,40,1446037191807672977,robocape,0.615770511322,14.0856916883,24.1299061944,0.0,10.0,0.0,0.0,0.0,10.0,0.0,0.0,0.0,10.0,0.270444008698,0.0067910607797,0.015579492377,1.0,0.0,0.0,0.0,1.0,0.0,0.0,0.0,1.0,-0.0598754882813,-1.54239257813,10.1285375977,0.1,0.0,0.0,0.0,0.1,0.0,0.0,0.0,0.1
1446037191844217082,41,1446037191841042041,robocape,1.26477073343,14.0472904399,24.2519252407,0.0,10.0,0.0,0.0,0.0,10.0,0.0,0.0,0.0,10.0,0.321976175791,-0.00066579027252,0.0940095864798,1.0,0.0,0.0,0.0,1.0,0.0,0.0,0.0,1.0,-0.516126708984,-0.564027099609,10.0818347168,0.1,0.0,0.0,0.0,0.1,0.0,0.0,0.0,0.1
1446037191877191124,42,1446037191873908042,robocape,2.0947868783,13.9829275537,24.227592247,0.0,10.0,0.0,0.0,0.0,10.0,0.0,0.0,0.0,10.0,0.436625260718,-0.017710021249,0.0165115987585,1.0,0.0,0.0,0.0,1.0,0.0,0.0,0.0,1.0,0.162861328125,-0.219144287109,10.1165625,0.1,0.0,0.0,0.0,0.1,0.0,0.0,0.0,0.1
1446037191910197291,43,1446037191907097101,robocape,2.50182001893,13.937991727,23.8437491081,0.0,10.0,0.0,0.0,0.0,10.0,0.0,0.0,0.0,10.0,0.261256102937,-0.0191747598486,-0.173771261128,1.0,0.0,0.0,0.0,1.0,0.0,0.0,0.0,1.0,1.03584594727,2.34711914063,9.78365478516,0.1,0.0,0.0,0.0,0.1,0.0,0.0,0.0,0.1
1446037191943888957,44,1446037191940851926,robocape,2.15154178358,13.9322154336,23.5001982013,0.0,10.0,0.0,0.0,0.0,10.0,0.0,0.0,0.0,10.0,-0.140748063611,0.0031957933081,-0.152732288516,1.0,0.0,0.0,0.0,1.0,0.0,0.0,0.0,1.0,0.461041259766,1.8812878418,10.0363293457,0.1,0.0,0.0,0.0,0.1,0.0,0.0,0.0,0.1
1446037191976784707,45,1446037191973505973,robocape,1.6077342098,13.9355764133,23.2114509246,0.0,10.0,0.0,0.0,0.0,10.0,0.0,0.0,0.0,10.0,-0.24953819414,0.0110521185238,-0.123970148743,1.0,0.0,0.0,0.0,1.0,0.0,0.0,0.0,1.0,0.146096191406,0.487386474609,10.2710412598,0.1,0.0,0.0,0.0,0.1,0.0,0.0,0.0,0.1
1446037192010004749,46,1446037192006803989,robocape,1.29148203488,13.9420929226,23.1392727641,0.0,10.0,0.0,0.0,0.0,10.0,0.0,0.0,0.0,10.0,-0.158324926805,0.0193079179031,-0.00945422186978,1.0,0.0,0.0,0.0,1.0,0.0,0.0,0.0,1.0,-0.275427246094,-0.235909423828,9.91059082031,0.1,0.0,0.0,0.0,0.1,0.0,0.0,0.0,0.1
1446037192041893832,47,1446037192038853883,robocape,1.04075698061,13.992327805,22.7321688134,0.0,10.0,0.0,0.0,0.0,10.0,0.0,0.0,0.0,10.0,-0.0813595713019,0.0347542522255,-0.187087066578,1.0,0.0,0.0,0.0,1.0,0.0,0.0,0.0,1.0,0.316142578125,-0.416733398438,9.95130615234,0.1,0.0,0.0,0.0,0.1,0.0,0.0,0.0,0.1
1446037192075341874,48,1446037192072284936,robocape,0.979833193342,14.0082027758,22.2157704876,0.0,10.0,0.0,0.0,0.0,10.0,0.0,0.0,0.0,10.0,0.03222424919,0.0143810698864,-0.24567661056,1.0,0.0,0.0,0.0,1.0,0.0,0.0,0.0,1.0,-0.566422119141,0.0826281738281,10.0626745605,0.1,0.0,0.0,0.0,0.1,0.0,0.0,0.0,0.1
1446037192108867499,49,1446037192105576038,robocape,0.773798502311,13.9873577994,21.4492211833,0.0,10.0,0.0,0.0,0.0,10.0,0.0,0.0,0.0,10.0,-0.0117179087963,-0.00958737992429,-0.378168874791,1.0,0.0,0.0,0.0,1.0,0.0,0.0,0.0,1.0,0.279019775391,0.129331054688,10.1692529297,0.1,0.0,0.0,0.0,0.1,0.0,0.0,0.0,0.1
1446037192142272166,50,1446037192139170885,robocape,0.273129366922,13.8869860726,20.4946704393,0.0,10.0,0.0,0.0,0.0,10.0,0.0,0.0,0.0,10.0,-0.142479118319,-0.0523311154201,-0.47777109956,1.0,0.0,0.0,0.0,1.0,0.0,0.0,0.0,1.0,0.0143701171875,0.4981640625,10.0159716797,0.1,0.0,0.0,0.0,0.1,0.0,0.0,0.0,0.1
1446037192175225082,51,1446037192171816110,robocape,-0.492936519052,13.7877991241,19.4562950622,0.0,10.0,0.0,0.0,0.0,10.0,0.0,0.0,0.0,10.0,-0.271908747297,-0.0467384771309,-0.52211273171,1.0,0.0,0.0,0.0,1.0,0.0,0.0,0.0,1.0,0.308957519531,-0.0431103515625,10.0387243652,0.1,0.0,0.0,0.0,0.1,0.0,0.0,0.0,0.1
1446037192207578499,52,1446037192204556941,robocape,-1.5079917448,13.6276740118,18.4045511023,0.0,10.0,0.0,0.0,0.0,10.0,0.0,0.0,0.0,10.0,-0.402137324602,-0.0701742947236,-0.530501689144,1.0,0.0,0.0,0.0,1.0,0.0,0.0,0.0,1.0,0.100590820313,-1.08973388672,10.0890197754,0.1,0.0,0.0,0.0,0.1,0.0,0.0,0.0,0.1
1446037192240950957,53,1446037192237915039,robocape,-2.44838097236,13.3958394906,17.3687938861,0.0,10.0,0.0,0.0,0.0,10.0,0.0,0.0,0.0,10.0,-0.367116756267,-0.0988032764419,-0.525441683073,1.0,0.0,0.0,0.0,1.0,0.0,0.0,0.0,1.0,-0.3065625,-0.665815429688,10.1249450684,0.1,0.0,0.0,0.0,0.1,0.0,0.0,0.0,0.1
1446037192274490458,54,1446037192271183013,robocape,-3.38790782367,13.0072391533,16.2452593262,0.0,10.0,0.0,0.0,0.0,10.0,0.0,0.0,0.0,10.0,-0.358727798834,-0.171241258092,-0.578704904874,1.0,0.0,0.0,0.0,1.0,0.0,0.0,0.0,1.0,0.0275427246094,-1.40467895508,10.2351159668,0.1,0.0,0.0,0.0,0.1,0.0,0.0,0.0,0.1
1446037192307414124,55,1446037192304388999,robocape,-4.26328711464,12.5644186373,14.9889086493,0.0,10.0,0.0,0.0,0.0,10.0,0.0,0.0,0.0,10.0,-0.313587218357,-0.186820750469,-0.653406573451,1.0,0.0,0.0,0.0,1.0,0.0,0.0,0.0,1.0,-0.146096191406,-1.03584594727,10.1944006348,0.1,0.0,0.0,0.0,0.1,0.0,0.0,0.0,0.1
1446037192340667333,56,1446037192337652921,robocape,-4.70746105152,12.1830886238,13.8141803302,0.0,10.0,0.0,0.0,0.0,10.0,0.0,0.0,0.0,10.0,-0.101865911696,-0.149935969371,-0.6119944185,1.0,0.0,0.0,0.0,1.0,0.0,0.0,0.0,1.0,0.0802331542969,-2.00582885742,9.98124389648,0.1,0.0,0.0,0.0,0.1,0.0,0.0,0.0,0.1
1446037192374453124,57,1446037192371273994,robocape,-4.99135283287,11.8753495424,12.6421882161,0.0,10.0,0.0,0.0,0.0,10.0,0.0,0.0,0.0,10.0,-0.0221042370477,-0.10732539193,-0.608798625192,1.0,0.0,0.0,0.0,1.0,0.0,0.0,0.0,1.0,0.149688720703,0.209564208984,10.152487793,0.1,0.0,0.0,0.0,0.1,0.0,0.0,0.0,0.1
1446037192407441833,58,1446037192404397964,robocape,-5.33523181158,11.4496434576,11.2768241271,0.0,10.0,0.0,0.0,0.0,10.0,0.0,0.0,0.0,10.0,-0.0362189908251,-0.157792294587,-0.716124017122,1.0,0.0,0.0,0.0,1.0,0.0,0.0,0.0,1.0,0.547261962891,0.152083740234,10.3692370605,0.1,0.0,0.0,0.0,0.1,0.0,0.0,0.0,0.1
1446037192442323249,59,1446037192439260959,robocape,-5.92480671292,11.048982483,9.73559000041,0.0,10.0,0.0,0.0,0.0,10.0,0.0,0.0,0.0,10.0,-0.152332814353,-0.129429628978,-0.806671494185,1.0,0.0,0.0,0.0,1.0,0.0,0.0,0.0,1.0,1.35797607422,0.796343994141,9.95609619141,0.1,0.0,0.0,0.0,0.1,0.0,0.0,0.0,0.1
1446037192474937124,60,1446037192471775054,robocape,-6.92961980565,10.8466060853,7.98447401341,0.0,10.0,0.0,0.0,0.0,10.0,0.0,0.0,0.0,10.0,-0.354733057199,-0.00066579027252,-0.903344241755,1.0,0.0,0.0,0.0,1.0,0.0,0.0,0.0,1.0,1.63460083008,0.384400634766,9.85311035156,0.1,0.0,0.0,0.0,0.1,0.0,0.0,0.0,0.1
1446037192507702166,61,1446037192504528045,robocape,-8.06602052392,10.7970565781,6.04062130369,0.0,10.0,0.0,0.0,0.0,10.0,0.0,0.0,0.0,10.0,-0.408528911218,0.110521185238,-0.990962241618,1.0,0.0,0.0,0.0,1.0,0.0,0.0,0.0,1.0,1.00830322266,-0.186811523438,10.1405126953,0.1,0.0,0.0,0.0,0.1,0.0,0.0,0.0,0.1
1446037192540915666,62,1446037192537811040,robocape,-8.99551017228,10.8953659793,4.31779444426,0.0,10.0,0.0,0.0,0.0,10.0,0.0,0.0,0.0,10.0,-0.324106704663,0.19068233405,-0.864595247894,1.0,0.0,0.0,0.0,1.0,0.0,0.0,0.0,1.0,0.408350830078,-0.8047265625,9.94891113281,0.1,0.0,0.0,0.0,0.1,0.0,0.0,0.0,0.1
1446037192574565708,63,1446037192571469068,robocape,-9.56645736991,11.2363214594,2.91001289193,0.0,10.0,0.0,0.0,0.0,10.0,0.0,0.0,0.0,10.0,-0.166713884239,0.303467206215,-0.681502922951,1.0,0.0,0.0,0.0,1.0,0.0,0.0,0.0,1.0,0.0826281738281,-0.556842041016,10.0027990723,0.1,0.0,0.0,0.0,0.1,0.0,0.0,0.0,0.1
1446037192607697249,64,1446037192604429960,robocape,-9.85436155705,11.6165831986,1.52402867113,0.0,10.0,0.0,0.0,0.0,10.0,0.0,0.0,0.0,10.0,-0.016378440704,0.327302497971,-0.665124482247,1.0,0.0,0.0,0.0,1.0,0.0,0.0,0.0,1.0,-0.24908203125,-0.816701660156,10.1441052246,0.1,0.0,0.0,0.0,0.1,0.0,0.0,0.0,0.1
1446037192640855708,65,1446037192637741088,robocape,-9.95052840245,11.9304406495,-0.0634861034619,0.0,10.0,0.0,0.0,0.0,10.0,0.0,0.0,0.0,10.0,0.110388027184,0.31278827003,-0.772449874177,1.0,0.0,0.0,0.0,1.0,0.0,0.0,0.0,1.0,-1.12326416016,-0.419128417969,9.87466552734,0.1,0.0,0.0,0.0,0.1,0.0,0.0,0.0,0.1
1446037192674377708,66,1446037192671361923,robocape,-10.3892197748,11.9550753458,-1.83872475373,0.0,10.0,0.0,0.0,0.0,10.0,0.0,0.0,0.0,10.0,-0.0474042674034,0.185622327979,-0.893623703776,1.0,0.0,0.0,0.0,1.0,0.0,0.0,0.0,1.0,-1.00830322266,0.567619628906,10.0866247559,0.1,0.0,0.0,0.0,0.1,0.0,0.0,0.0,0.1
1446037192708867791,67,1446037192705710887,robocape,-11.0415612847,11.8479444882,-3.80923018137,0.0,10.0,0.0,0.0,0.0,10.0,0.0,0.0,0.0,10.0,-0.14101437972,0.147139650227,-1.00560962761,1.0,0.0,0.0,0.0,1.0,0.0,0.0,0.0,1.0,0.247884521484,-0.144898681641,10.4243225098,0.1,0.0,0.0,0.0,0.1,0.0,0.0,0.0,0.1
1446037192740669458,68,1446037192737569093,robocape,-11.7951865075,11.7447369902,-5.97602788608,0.0,10.0,0.0,0.0,0.0,10.0,0.0,0.0,0.0,10.0,-0.178165476926,0.184690221597,-1.10614395876,1.0,0.0,0.0,0.0,1.0,0.0,0.0,0.0,1.0,0.280217285156,-0.262254638672,10.515333252,0.1,0.0,0.0,0.0,0.1,0.0,0.0,0.0,0.1
1446037192773922624,69,1446037192770889043,robocape,-12.502878159,11.7149375442,-8.18651085937,0.0,10.0,0.0,0.0,0.0,10.0,0.0,0.0,0.0,10.0,-0.154197027116,0.244478188069,-1.12265555752,1.0,0.0,0.0,0.0,1.0,0.0,0.0,0.0,1.0,0.15328125,-1.04662353516,10.229128418,0.1,0.0,0.0,0.0,0.1,0.0,0.0,0.0,0.1
1446037192807737249,70,1446037192804536104,robocape,-12.9855743958,11.8012068237,-10.2542552528,0.0,10.0,0.0,0.0,0.0,10.0,0.0,0.0,0.0,10.0,-0.0531300637471,0.301469835397,-1.03983124762,1.0,0.0,0.0,0.0,1.0,0.0,0.0,0.0,1.0,-0.548459472656,-1.35917358398,9.99082397461,0.1,0.0,0.0,0.0,0.1,0.0,0.0,0.0,0.1
1446037192840857124,71,1446037192837860107,robocape,-13.2747531823,11.8867617766,-11.9669460264,0.0,10.0,0.0,0.0,0.0,10.0,0.0,0.0,0.0,10.0,0.0115847507418,0.266848741226,-0.863263667349,1.0,0.0,0.0,0.0,1.0,0.0,0.0,0.0,1.0,-0.966390380859,-1.67052612305,9.63157104492,0.1,0.0,0.0,0.0,0.1,0.0,0.0,0.0,0.1
1446037192874565708,72,1446037192871460914,robocape,-13.4344146785,12.0181782351,-13.3676212184,0.0,10.0,0.0,0.0,0.0,10.0,0.0,0.0,0.0,10.0,0.0475374254579,0.256595571029,-0.702941369726,1.0,0.0,0.0,0.0,1.0,0.0,0.0,0.0,1.0,-1.17116455078,-1.19870727539,9.44116699219,0.1,0.0,0.0,0.0,0.1,0.0,0.0,0.0,0.1
1446037192907396666,73,1446037192904372930,robocape,-13.5942633341,11.9177938711,-14.3668699293,0.0,10.0,0.0,0.0,0.0,10.0,0.0,0.0,0.0,10.0,0.00612527050718,0.0898816867902,-0.53010221498,1.0,0.0,0.0,0.0,1.0,0.0,0.0,0.0,1.0,-1.69447631836,-1.16158447266,9.23998535156,0.1,0.0,0.0,0.0,0.1,0.0,0.0,0.0,0.1
1446037192940811916,74,1446037192937622070,robocape,-13.8632709403,11.5860719941,-14.9551927875,0.0,10.0,0.0,0.0,0.0,10.0,0.0,0.0,0.0,10.0,-0.0948085348068,-0.0788295682663,-0.352735686381,1.0,0.0,0.0,0.0,1.0,0.0,0.0,0.0,1.0,-0.930465087891,-1.21068237305,9.28549072266,0.1,0.0,0.0,0.0,0.1,0.0,0.0,0.0,0.1
1446037192974358666,75,1446037192971051931,robocape,-14.2236935671,11.0444310509,-15.2456436032,0.0,10.0,0.0,0.0,0.0,10.0,0.0,0.0,0.0,10.0,-0.174037577237,-0.223439215458,-0.230230276237,1.0,0.0,0.0,0.0,1.0,0.0,0.0,0.0,1.0,-0.631087646484,-1.44778930664,9.75012451172,0.1,0.0,0.0,0.0,0.1,0.0,0.0,0.0,0.1
1446037193007976500,76,1446037193004410982,robocape,-14.4717632449,10.5493320632,-15.502105748,0.0,10.0,0.0,0.0,0.0,10.0,0.0,0.0,0.0,10.0,-0.119842249054,-0.203864981446,-0.208658671408,1.0,0.0,0.0,0.0,1.0,0.0,0.0,0.0,1.0,0.313747558594,-1.55796020508,10.1213525391,0.1,0.0,0.0,0.0,0.1,0.0,0.0,0.0,0.1
1446037193040933958,77,1446037193037494897,robocape,-14.6944451634,10.0359252107,-15.7343998503,0.0,10.0,0.0,0.0,0.0,10.0,0.0,0.0,0.0,10.0,-0.110121711075,-0.21611552246,-0.200269713974,1.0,0.0,0.0,0.0,1.0,0.0,0.0,0.0,1.0,-0.130528564453,-1.39509887695,10.3680395508,0.1,0.0,0.0,0.0,0.1,0.0,0.0,0.0,0.1
1446037193074162625,78,1446037193070921897,robocape,-14.9195358586,9.48746459581,-15.9818673152,0.0,10.0,0.0,0.0,0.0,10.0,0.0,0.0,0.0,10.0,-0.111719607729,-0.231428698728,-0.214251309697,1.0,0.0,0.0,0.0,1.0,0.0,0.0,0.0,1.0,0.01916015625,-1.73040161133,10.2806213379,0.1,0.0,0.0,0.0,0.1,0.0,0.0,0.0,0.1
1446037193107712166,79,1446037193104111909,robocape,-14.9089251312,9.13016080459,-16.0680944691,0.0,10.0,0.0,0.0,0.0,10.0,0.0,0.0,0.0,10.0,-0.00106526443603,-0.157792294587,-0.106526443603,1.0,0.0,0.0,0.0,1.0,0.0,0.0,0.0,1.0,0.0467028808594,-2.07767944336,10.0542919922,0.1,0.0,0.0,0.0,0.1,0.0,0.0,0.0,0.1
1446037193140894625,80,1446037193137717008,robocape,-14.6261744101,8.83048523532,-16.0298845188,0.0,10.0,0.0,0.0,0.0,10.0,0.0,0.0,0.0,10.0,0.133957002831,-0.147805440499,-0.0331563555715,1.0,0.0,0.0,0.0,1.0,0.0,0.0,0.0,1.0,-0.481398925781,-1.27774291992,10.2363134766,0.1,0.0,0.0,0.0,0.1,0.0,0.0,0.0,0.1
1446037193174120791,81,1446037193170969963,robocape,-14.3233366214,8.6154103793,-15.8590525355,0.0,10.0,0.0,0.0,0.0,10.0,0.0,0.0,0.0,10.0,0.135155425322,-0.123171200416,0.0463390029674,1.0,0.0,0.0,0.0,1.0,0.0,0.0,0.0,1.0,0.0826281738281,-0.638272705078,10.2566711426,0.1,0.0,0.0,0.0,0.1,0.0,0.0,0.0,0.1
1446037193207823583,82,1446037193204236984,robocape,-14.0834265808,8.43214310457,-15.7005749508,0.0,10.0,0.0,0.0,0.0,10.0,0.0,0.0,0.0,10.0,0.103064334186,-0.104928546949,0.0443416321498,1.0,0.0,0.0,0.0,1.0,0.0,0.0,0.0,1.0,-0.0969982910156,-0.384400634766,10.1453027344,0.1,0.0,0.0,0.0,0.1,0.0,0.0,0.0,0.1
1446037193240735958,83,1446037193237735033,robocape,-14.0093405558,8.23227881864,-15.6066143315,0.0,10.0,0.0,0.0,0.0,10.0,0.0,0.0,0.0,10.0,0.0199737081756,-0.104129598622,0.00852211548825,1.0,0.0,0.0,0.0,1.0,0.0,0.0,0.0,1.0,0.0646655273438,0.131726074219,10.1596728516,0.1,0.0,0.0,0.0,0.1,0.0,0.0,0.0,0.1
1446037193274248666,84,1446037193271188974,robocape,-13.9707874287,8.00275168664,-15.670971445,0.0,10.0,0.0,0.0,0.0,10.0,0.0,0.0,0.0,10.0,0.0119842249054,-0.0985369603329,-0.0762995652308,1.0,0.0,0.0,0.0,1.0,0.0,0.0,0.0,1.0,-0.211959228516,-0.354462890625,10.1848205566,0.1,0.0,0.0,0.0,0.1,0.0,0.0,0.0,0.1
1446037193311271750,85,1446037193307672977,robocape,-13.9957970909,7.75946684488,-15.8520205919,0.0,10.0,0.0,0.0,0.0,10.0,0.0,0.0,0.0,10.0,-0.0143810698864,-0.0901480028992,-0.138484376684,1.0,0.0,0.0,0.0,1.0,0.0,0.0,0.0,1.0,-0.0969982910156,-0.0502954101563,9.89262817383,0.1,0.0,0.0,0.0,0.1,0.0,0.0,0.0,0.1
1446037193342283791,86,1446037193339123964,robocape,-14.1937358267,7.48489741623,-16.0110651468,0.0,10.0,0.0,0.0,0.0,10.0,0.0,0.0,0.0,10.0,-0.108124340257,-0.108124340257,-0.133024896449,1.0,0.0,0.0,0.0,1.0,0.0,0.0,0.0,1.0,0.0742456054688,-0.161663818359,9.85550537109,0.1,0.0,0.0,0.0,0.1,0.0,0.0,0.0,0.1
1446037193375537125,87,1446037193371959924,robocape,-14.4728481599,7.12256563763,-16.0175464022,0.0,10.0,0.0,0.0,0.0,10.0,0.0,0.0,0.0,10.0,-0.160854929841,-0.172705996692,-0.067377975579,1.0,0.0,0.0,0.0,1.0,0.0,0.0,0.0,1.0,-0.222736816406,-0.853824462891,9.67707641602,0.1,0.0,0.0,0.0,0.1,0.0,0.0,0.0,0.1
1446037193408967500,88,1446037193405699014,robocape,-14.742565173,6.65023213224,-15.8197466782,0.0,10.0,0.0,0.0,0.0,10.0,0.0,0.0,0.0,10.0,-0.167246516457,-0.256728729084,0.0222373951022,1.0,0.0,0.0,0.0,1.0,0.0,0.0,0.0,1.0,-0.199984130859,-1.32684082031,9.74892700195,0.1,0.0,0.0,0.0,0.1,0.0,0.0,0.0,0.1
1446037193442369833,89,1446037193439264059,robocape,-14.9551557148,6.37839548889,-15.6019111556,0.0,10.0,0.0,0.0,0.0,10.0,0.0,0.0,0.0,10.0,-0.138218060575,-0.158324926805,0.0583232278727,1.0,0.0,0.0,0.0,1.0,0.0,0.0,0.0,1.0,2.28365112305,-1.762734375,11.8397790527,0.1,0.0,0.0,0.0,0.1,0.0,0.0,0.0,0.1
1446037193476948833,90,1446037193473668098,robocape,-14.6332866417,6.39852110054,-15.8854426337,0.0,10.0,0.0,0.0,0.0,10.0,0.0,0.0,0.0,10.0,0.170708625874,0.0567253312187,-0.155661765715,1.0,0.0,0.0,0.0,1.0,0.0,0.0,0.0,1.0,0.253872070313,-0.390388183594,10.4650378418,0.1,0.0,0.0,0.0,0.1,0.0,0.0,0.0,0.1
1446037193509510375,91,1446037193506181001,robocape,-14.750217805,6.37360012872,-16.0023138548,0.0,10.0,0.0,0.0,0.0,10.0,0.0,0.0,0.0,10.0,-0.0708400849961,0.0127831732324,-0.0801611488114,1.0,0.0,0.0,0.0,1.0,0.0,0.0,0.0,1.0,-0.146096191406,0.359252929688,9.9596887207,0.1,0.0,0.0,0.0,0.1,0.0,0.0,0.0,0.1
1446037193542861916,92,1446037193539688110,robocape,-15.1785568092,6.40066045711,-15.9086091942,0.0,10.0,0.0,0.0,0.0,10.0,0.0,0.0,0.0,10.0,-0.247540823323,0.0115847507418,0.031957933081,1.0,0.0,0.0,0.0,1.0,0.0,0.0,0.0,1.0,0.154478759766,-1.20349731445,9.84233276367,0.1,0.0,0.0,0.0,0.1,0.0,0.0,0.0,0.1
1446037193576184791,93,1446037193572799921,robocape,-15.2402850544,6.40010211425,-15.9872996867,0.0,10.0,0.0,0.0,0.0,10.0,0.0,0.0,0.0,10.0,-0.0442084740953,0.0202400242846,-0.0569916473277,1.0,0.0,0.0,0.0,1.0,0.0,0.0,0.0,1.0,0.343685302734,-2.7626550293,10.0866247559,0.1,0.0,0.0,0.0,0.1,0.0,0.0,0.0,0.1
1446037193611674625,94,1446037193607768058,robocape,-15.0088953413,6.42998934467,-16.1252100193,0.0,10.0,0.0,0.0,0.0,10.0,0.0,0.0,0.0,10.0,0.114782242982,0.0426105774413,-0.0808269390839,1.0,0.0,0.0,0.0,1.0,0.0,0.0,0.0,1.0,0.304167480469,-0.723295898438,10.0363293457,0.1,0.0,0.0,0.0,0.1,0.0,0.0,0.0,0.1
1446037193644045208,95,1446037193639152050,robocape,-15.1156587312,6.57293474862,-15.9826491858,0.0,10.0,0.0,0.0,0.0,10.0,0.0,0.0,0.0,10.0,-0.0794953585389,0.0621848114534,0.0749679846857,1.0,0.0,0.0,0.0,1.0,0.0,0.0,0.0,1.0,0.262254638672,-0.135318603516,10.1021923828,0.1,0.0,0.0,0.0,0.1,0.0,0.0,0.0,0.1
1446037193678073458,96,1446037193672717094,robocape,-15.1527935478,6.71361845187,-15.7344218672,0.0,10.0,0.0,0.0,0.0,10.0,0.0,0.0,0.0,10.0,-0.0482032157304,0.0458063707494,0.129562787032,1.0,0.0,0.0,0.0,1.0,0.0,0.0,0.0,1.0,0.296982421875,-2.35430419922,10.1967956543,0.1,0.0,0.0,0.0,0.1,0.0,0.0,0.0,0.1
1446037193710898500,97,1446037193707221984,robocape,-14.8104340587,6.84412463866,-15.5152283329,0.0,10.0,0.0,0.0,0.0,10.0,0.0,0.0,0.0,10.0,0.155129133497,0.0432763677138,0.116646455745,1.0,0.0,0.0,0.0,1.0,0.0,0.0,0.0,1.0,0.274229736328,-1.85494262695,9.93693603516,0.1,0.0,0.0,0.0,0.1,0.0,0.0,0.0,0.1
1446037193744672792,98,1446037193741566896,robocape,-14.3640297452,6.90628842546,-15.4908102134,0.0,10.0,0.0,0.0,0.0,10.0,0.0,0.0,0.0,10.0,0.22144184464,0.0354200424981,0.00878843159726,1.0,0.0,0.0,0.0,1.0,0.0,0.0,0.0,1.0,0.105380859375,-0.101788330078,10.3117565918,0.1,0.0,0.0,0.0,0.1,0.0,0.0,0.0,0.1
1446037193779256708,99,1446037193774642944,robocape,-14.1696279494,6.98292785317,-15.3194219776,0.0,10.0,0.0,0.0,0.0,10.0,0.0,0.0,0.0,10.0,0.0796285165934,0.0245010820287,0.0838895743375,1.0,0.0,0.0,0.0,1.0,0.0,0.0,0.0,1.0,0.215551757813,0.0682580566406,9.98962646484,0.1,0.0,0.0,0.0,0.1,0.0,0.0,0.0,0.1
1446037193811934583,100,1446037193808180093,robocape,-14.2770590826,7.10515657776,-14.9699741405,0.0,10.0,0.0,0.0,0.0,10.0,0.0,0.0,0.0,10.0,-0.0909469512262,0.0255663464648,0.178831267199,1.0,0.0,0.0,0.0,1.0,0.0,0.0,0.0,1.0,0.240699462891,-0.366437988281,10.0255517578,0.1,0.0,0.0,0.0,0.1,0.0,0.0,0.0,0.1
1446037193846258250,101,1446037193842689037,robocape,-14.2131521422,7.16818669018,-14.8652578837,0.0,10.0,0.0,0.0,0.0,10.0,0.0,0.0,0.0,10.0,0.0139815957229,0.0271642431188,0.0475374254579,1.0,0.0,0.0,0.0,1.0,0.0,0.0,0.0,1.0,0.276624755859,-1.42982666016,10.1129699707,0.1,0.0,0.0,0.0,0.1,0.0,0.0,0.0,0.1
1446037193879367833,102,1446037193875300884,robocape,-14.1554813094,7.22374648376,-14.7502481869,0.0,10.0,0.0,0.0,0.0,10.0,0.0,0.0,0.0,10.0,0.0101200121423,0.0221042370477,0.0519316412565,1.0,0.0,0.0,0.0,1.0,0.0,0.0,0.0,1.0,0.208366699219,-0.952020263672,10.0662670898,0.1,0.0,0.0,0.0,0.1,0.0,0.0,0.0,0.1
1446037193912491667,103,1446037193908834934,robocape,-14.0475896036,7.26136902208,-14.7006836157,0.0,10.0,0.0,0.0,0.0,10.0,0.0,0.0,0.0,10.0,0.0407463646782,0.0214384467751,0.016644756813,1.0,0.0,0.0,0.0,1.0,0.0,0.0,0.0,1.0,0.148491210938,-0.890947265625,10.0710571289,0.1,0.0,0.0,0.0,0.1,0.0,0.0,0.0,0.1
1446037193945220208,104,1446037193941684961,robocape,-13.9423626666,7.29633736439,-14.6752127346,0.0,10.0,0.0,0.0,0.0,10.0,0.0,0.0,0.0,10.0,0.0408795227327,0.0233026595382,0.00399474163512,1.0,0.0,0.0,0.0,1.0,0.0,0.0,0.0,1.0,0.0898132324219,-0.849034423828,10.0878222656,0.1,0.0,0.0,0.0,0.1,0.0,0.0,0.0,0.1
1446037193978880833,105,1446037193975640058,robocape,-13.8558920037,7.33338473771,-14.6385856714,0.0,10.0,0.0,0.0,0.0,10.0,0.0,0.0,0.0,10.0,0.0303600364269,0.0230363434292,0.00985369603329,1.0,0.0,0.0,0.0,1.0,0.0,0.0,0.0,1.0,0.164058837891,-0.875379638672,10.0914147949,0.1,0.0,0.0,0.0,0.1,0.0,0.0,0.0,0.1
1446037194011272042,106,1446037194007530927,robocape,-13.5010986029,7.29323710738,-14.961143084,0.0,10.0,0.0,0.0,0.0,10.0,0.0,0.0,0.0,10.0,0.194677075685,0.0283626656093,-0.181893902452,1.0,0.0,0.0,0.0,1.0,0.0,0.0,0.0,1.0,0.241896972656,-1.51484985352,10.096204834,0.1,0.0,0.0,0.0,0.1,0.0,0.0,0.0,0.1
1446037194043962250,107,1446037194040726900,robocape,-13.3478551352,7.30599492116,-15.0223819104,0.0,10.0,0.0,0.0,0.0,10.0,0.0,0.0,0.0,10.0,0.0721716655411,0.0227700273202,-0.0432763677138,1.0,0.0,0.0,0.0,1.0,0.0,0.0,0.0,1.0,0.226329345703,-0.0371228027344,9.9980090332,0.1,0.0,0.0,0.0,0.1,0.0,0.0,0.0,0.1
1446037194077871500,108,1446037194074698925,robocape,-13.3012991651,7.32971532259,-15.0171851397,0.0,10.0,0.0,0.0,0.0,10.0,0.0,0.0,0.0,10.0,0.0117179087963,0.0205063403936,-0.00865527354276,1.0,0.0,0.0,0.0,1.0,0.0,0.0,0.0,1.0,0.204774169922,-0.524509277344,10.0842297363,0.1,0.0,0.0,0.0,0.1,0.0,0.0,0.0,0.1
1446037194110591958,109,1446037194107239007,robocape,-13.3480341886,7.3501332655,-15.0061000478,0.0,10.0,0.0,0.0,0.0,10.0,0.0,0.0,0.0,10.0,-0.0380832035881,0.0185089695761,-0.0066579027252,1.0,0.0,0.0,0.0,1.0,0.0,0.0,0.0,1.0,0.203576660156,-0.950822753906,10.080637207,0.1,0.0,0.0,0.0,0.1,0.0,0.0,0.0,0.1
1446037194144015583,110,1446037194140877008,robocape,-13.0864711313,7.24777924822,-15.4946594538,0.0,10.0,0.0,0.0,0.0,10.0,0.0,0.0,0.0,10.0,0.155661765715,0.0162452826495,-0.276036646987,1.0,0.0,0.0,0.0,1.0,0.0,0.0,0.0,1.0,0.156873779297,-1.14122680664,10.0770446777,0.1,0.0,0.0,0.0,0.1,0.0,0.0,0.0,0.1
1446037194177472708,111,1446037194174325942,robocape,-12.7970904503,7.12887032129,-16.0121278477,0.0,10.0,0.0,0.0,0.0,10.0,0.0,0.0,0.0,10.0,0.17177389031,0.0099868540878,-0.293613510181,1.0,0.0,0.0,0.0,1.0,0.0,0.0,0.0,1.0,0.130528564453,0.335302734375,10.0435144043,0.1,0.0,0.0,0.0,0.1,0.0,0.0,0.0,0.1
1446037194210311875,112,1446037194207179069,robocape,-12.9163270544,7.05923132154,-16.2820908827,0.0,10.0,0.0,0.0,0.0,10.0,0.0,0.0,0.0,10.0,-0.0596548084178,0.0066579027252,-0.164050723149,1.0,0.0,0.0,0.0,1.0,0.0,0.0,0.0,1.0,0.237106933594,0.377215576172,9.97405883789,0.1,0.0,0.0,0.0,0.1,0.0,0.0,0.0,0.1
1446037194243766375,113,1446037194240462064,robocape,-13.4521657451,7.02342547704,-16.3246012106,0.0,10.0,0.0,0.0,0.0,10.0,0.0,0.0,0.0,10.0,-0.294146142399,-0.00159789665405,-0.0462058449129,1.0,0.0,0.0,0.0,1.0,0.0,0.0,0.0,1.0,0.135318603516,0.241896972656,9.97286132813,0.1,0.0,0.0,0.0,0.1,0.0,0.0,0.0,0.1
1446037194276753667,114,1446037194273636102,robocape,-14.4329639627,7.03868141028,-16.1148004952,0.0,10.0,0.0,0.0,0.0,10.0,0.0,0.0,0.0,10.0,-0.545948023466,-0.00599211245268,0.0861532612641,1.0,0.0,0.0,0.0,1.0,0.0,0.0,0.0,1.0,0.00359252929688,0.320932617188,10.0183666992,0.1,0.0,0.0,0.0,0.1,0.0,0.0,0.0,0.1
1446037194310100042,115,1446037194307001113,robocape,-15.4330281161,7.05027653202,-15.926114501,0.0,10.0,0.0,0.0,0.0,10.0,0.0,0.0,0.0,10.0,-0.557266458099,-0.00599211245268,0.0739027202497,1.0,0.0,0.0,0.0,1.0,0.0,0.0,0.0,1.0,0.0754431152344,-2.08725952148,9.8902331543,0.1,0.0,0.0,0.0,0.1,0.0,0.0,0.0,0.1
1446037194343945458,116,1446037194340809106,robocape,-15.82835354,6.98332014678,-16.0484648638,0.0,10.0,0.0,0.0,0.0,10.0,0.0,0.0,0.0,10.0,-0.219444473823,-0.00412789968962,-0.0913464253897,1.0,0.0,0.0,0.0,1.0,0.0,0.0,0.0,1.0,0.0299377441406,-2.36627929688,9.99321899414,0.1,0.0,0.0,0.0,0.1,0.0,0.0,0.0,0.1
1446037194375761209,117,1446037194372580051,robocape,-16.1370931263,6.96444849579,-16.0834215984,0.0,10.0,0.0,0.0,0.0,10.0,0.0,0.0,0.0,10.0,-0.178964425253,0.00732369299772,-0.0396811002422,1.0,0.0,0.0,0.0,1.0,0.0,0.0,0.0,1.0,0.74724609375,-1.8046472168,10.0279467773,0.1,0.0,0.0,0.0,0.1,0.0,0.0,0.0,0.1
1446037194409001375,118,1446037194405672073,robocape,-16.1823204081,6.95588363202,-16.1585949817,0.0,10.0,0.0,0.0,0.0,10.0,0.0,0.0,0.0,10.0,-0.0366184649886,0.0173105470855,-0.0564590151097,1.0,0.0,0.0,0.0,1.0,0.0,0.0,0.0,1.0,0.125738525391,-2.27886108398,10.0854272461,0.1,0.0,0.0,0.0,0.1,0.0,0.0,0.0,0.1
1446037194443919000,119,1446037194440882921,robocape,-16.1589235817,7.00347455862,-16.0370328297,0.0,10.0,0.0,0.0,0.0,10.0,0.0,0.0,0.0,10.0,-0.0109189604693,0.0157126504315,0.0523311154201,1.0,0.0,0.0,0.0,1.0,0.0,0.0,0.0,1.0,0.331710205078,-1.72561157227,10.0794396973,0.1,0.0,0.0,0.0,0.1,0.0,0.0,0.0,0.1
1446037194475394709,120,1446037194472291946,robocape,-15.9087013811,7.08164732641,-15.8951291264,0.0,10.0,0.0,0.0,0.0,10.0,0.0,0.0,0.0,10.0,0.108923288584,0.0270310850643,0.0692421883421,1.0,0.0,0.0,0.0,1.0,0.0,0.0,0.0,1.0,0.356857910156,-2.98299682617,9.95489868164,0.1,0.0,0.0,0.0,0.1,0.0,0.0,0.0,0.1
1446037194508230500,121,1446037194505142927,robocape,-15.2765307194,7.12319599083,-15.9938376571,0.0,10.0,0.0,0.0,0.0,10.0,0.0,0.0,0.0,10.0,0.326370391589,0.0419447871687,-0.0551274345646,1.0,0.0,0.0,0.0,1.0,0.0,0.0,0.0,1.0,0.380808105469,-1.06338867188,10.0435144043,0.1,0.0,0.0,0.0,0.1,0.0,0.0,0.0,0.1
1446037194541246334,122,1446037194537930965,robocape,-14.7648245519,7.16579891389,-16.0462461812,0.0,10.0,0.0,0.0,0.0,10.0,0.0,0.0,0.0,10.0,0.260057680446,0.0362189908251,-0.0328900394625,1.0,0.0,0.0,0.0,1.0,0.0,0.0,0.0,1.0,0.240699462891,-0.677790527344,10.0459094238,0.1,0.0,0.0,0.0,0.1,0.0,0.0,0.0,0.1
1446037194574459250,123,1446037194571382045,robocape,-14.4697409016,7.22376075447,-15.9235933064,0.0,10.0,0.0,0.0,0.0,10.0,0.0,0.0,0.0,10.0,0.135155425322,0.0210389726116,0.0567253312187,1.0,0.0,0.0,0.0,1.0,0.0,0.0,0.0,1.0,-0.2682421875,0.193996582031,10.2051782227,0.1,0.0,0.0,0.0,0.1,0.0,0.0,0.0,0.1
1446037194607652917,124,1446037194604362964,robocape,-14.5207426216,7.31063860589,-15.6523148265,0.0,10.0,0.0,0.0,0.0,10.0,0.0,0.0,0.0,10.0,-0.0573911214912,0.01744370514,0.133957002831,1.0,0.0,0.0,0.0,1.0,0.0,0.0,0.0,1.0,0.0179626464844,-1.44778930664,10.1453027344,0.1,0.0,0.0,0.0,0.1,0.0,0.0,0.0,0.1
1446037194640608875,125,1446037194637526035,robocape,-14.4746334626,7.35240329907,-15.6017575719,0.0,10.0,0.0,0.0,0.0,10.0,0.0,0.0,0.0,10.0,0.00719053494321,0.0239684498107,0.016112124595,1.0,0.0,0.0,0.0,1.0,0.0,0.0,0.0,1.0,0.358055419922,-0.203576660156,10.1752404785,0.1,0.0,0.0,0.0,0.1,0.0,0.0,0.0,0.1
1446037194674096125,126,1446037194671005964,robocape,-14.5671513872,7.39949342803,-15.4447503867,0.0,10.0,0.0,0.0,0.0,10.0,0.0,0.0,0.0,10.0,-0.0728374558137,0.0129163312869,0.0703074527781,1.0,0.0,0.0,0.0,1.0,0.0,0.0,0.0,1.0,0.237106933594,-2.10641967773,9.90699829102,0.1,0.0,0.0,0.0,0.1,0.0,0.0,0.0,0.1
1446037194707538209,127,1446037194704454898,robocape,-14.2859203491,7.3568672468,-15.687602869,0.0,10.0,0.0,0.0,0.0,10.0,0.0,0.0,0.0,10.0,0.149935969371,0.0194410759576,-0.142878592483,1.0,0.0,0.0,0.0,1.0,0.0,0.0,0.0,1.0,0.302969970703,-0.969982910156,10.0231567383,0.1,0.0,0.0,0.0,0.1,0.0,0.0,0.0,0.1
1446037194740818917,128,1446037194737814903,robocape,-14.2761157668,7.32536922161,-15.8425611818,0.0,10.0,0.0,0.0,0.0,10.0,0.0,0.0,0.0,10.0,0.000532632218016,0.0143810698864,-0.0989364344964,1.0,0.0,0.0,0.0,1.0,0.0,0.0,0.0,1.0,-0.0431103515625,0.493374023438,10.1908081055,0.1,0.0,0.0,0.0,0.1,0.0,0.0,0.0,0.1
1446037194774158709,129,1446037194771126985,robocape,-14.6766710038,7.29494768096,-15.6612664366,0.0,10.0,0.0,0.0,0.0,10.0,0.0,0.0,0.0,10.0,-0.237553969235,-0.0283626656093,0.0701742947236,1.0,0.0,0.0,0.0,1.0,0.0,0.0,0.0,1.0,-0.00598754882813,-2.22736816406,10.096204834,0.1,0.0,0.0,0.0,0.1,0.0,0.0,0.0,0.1
1446037194807444917,130,1446037194804420948,robocape,-14.7867626313,7.31457436172,-15.6361946451,0.0,10.0,0.0,0.0,0.0,10.0,0.0,0.0,0.0,10.0,-0.0745685105222,0.016911072922,-0.00106526443603,1.0,0.0,0.0,0.0,1.0,0.0,0.0,0.0,1.0,0.226329345703,-0.518521728516,10.1500927734,0.1,0.0,0.0,0.0,0.1,0.0,0.0,0.0,0.1
1446037194841406000,131,1446037194838325977,robocape,-14.9391108889,7.33946718799,-15.5345526132,0.0,10.0,0.0,0.0,0.0,10.0,0.0,0.0,0.0,10.0,-0.101732753641,0.00918790576077,0.0384826777516,1.0,0.0,0.0,0.0,1.0,0.0,0.0,0.0,1.0,0.523311767578,-2.35789672852,9.89861572266,0.1,0.0,0.0,0.0,0.1,0.0,0.0,0.0,0.1
1446037194874396792,132,1446037194871305942,robocape,-14.8765629017,7.34687339378,-15.5955244034,0.0,10.0,0.0,0.0,0.0,10.0,0.0,0.0,0.0,10.0,0.0221042370477,0.0218379209386,-0.0451405804768,1.0,0.0,0.0,0.0,1.0,0.0,0.0,0.0,1.0,0.0203576660156,-0.324525146484,10.1441052246,0.1,0.0,0.0,0.0,0.1,0.0,0.0,0.0,0.1
1446037194907866250,133,1446037194904652118,robocape,-14.8775938679,7.38366430766,-15.4767424491,0.0,10.0,0.0,0.0,0.0,10.0,0.0,0.0,0.0,10.0,-0.0223705531567,0.0121173829599,0.0500674284935,1.0,0.0,0.0,0.0,1.0,0.0,0.0,0.0,1.0,0.257464599609,-2.66326171875,9.95130615234,0.1,0.0,0.0,0.0,0.1,0.0,0.0,0.0,0.1
1446037194941645000,134,1446037194938571929,robocape,-14.5186473339,7.37303396553,-15.6834188622,0.0,10.0,0.0,0.0,0.0,10.0,0.0,0.0,0.0,10.0,0.188684963232,0.0310258266994,-0.119575932945,1.0,0.0,0.0,0.0,1.0,0.0,0.0,0.0,1.0,0.524509277344,-0.795146484375,10.0626745605,0.1,0.0,0.0,0.0,0.1,0.0,0.0,0.0,0.1
1446037194975064167,135,1446037194972031116,robocape,-14.3962968,7.3780258357,-15.7154508075,0.0,10.0,0.0,0.0,0.0,10.0,0.0,0.0,0.0,10.0,0.0527305895836,0.016112124595,-0.0303600364269,1.0,0.0,0.0,0.0,1.0,0.0,0.0,0.0,1.0,0.102985839844,-0.55564453125,10.0686621094,0.1,0.0,0.0,0.0,0.1,0.0,0.0,0.0,0.1
1446037195007693917,136,1446037195004415988,robocape,-14.507062847,7.40187359962,-15.6118741634,0.0,10.0,0.0,0.0,0.0,10.0,0.0,0.0,0.0,10.0,-0.0792290424299,0.00852211548825,0.0396811002422,1.0,0.0,0.0,0.0,1.0,0.0,0.0,0.0,1.0,-0.146096191406,-0.786763916016,10.0495019531,0.1,0.0,0.0,0.0,0.1,0.0,0.0,0.0,0.1
1446037195041834167,137,1446037195038795948,robocape,-14.7889647799,7.48147402654,-15.3113366595,0.0,10.0,0.0,0.0,0.0,10.0,0.0,0.0,0.0,10.0,-0.18242653467,0.0106526443603,0.146473859954,1.0,0.0,0.0,0.0,1.0,0.0,0.0,0.0,1.0,-0.028740234375,-1.28732299805,10.1129699707,0.1,0.0,0.0,0.0,0.1,0.0,0.0,0.0,0.1
1446037195074225876,138,1446037195071136951,robocape,-14.8114176135,7.53087336219,-15.1549559909,0.0,10.0,0.0,0.0,0.0,10.0,0.0,0.0,0.0,10.0,-0.0360858327706,0.0135821215594,0.0711064011051,1.0,0.0,0.0,0.0,1.0,0.0,0.0,0.0,1.0,0.90052734375,-2.79618530273,9.77646972656,0.1,0.0,0.0,0.0,0.1,0.0,0.0,0.0,0.1
1446037195107425167,139,1446037195104137897,robocape,-14.3576567782,7.50826389603,-15.4174638369,0.0,10.0,0.0,0.0,0.0,10.0,0.0,0.0,0.0,10.0,0.24301344947,0.0318247750264,-0.148471230772,1.0,0.0,0.0,0.0,1.0,0.0,0.0,0.0,1.0,0.259859619141,-1.22145996094,10.1213525391,0.1,0.0,0.0,0.0,0.1,0.0,0.0,0.0,0.1
1446037195140618251,140,1446037195137538909,robocape,-14.1089248498,7.51549971812,-15.5199524461,0.0,10.0,0.0,0.0,0.0,10.0,0.0,0.0,0.0,10.0,0.124502780961,0.0259658206283,-0.0648479725434,1.0,0.0,0.0,0.0,1.0,0.0,0.0,0.0,1.0,0.0143701171875,-0.500559082031,10.1249450684,0.1,0.0,0.0,0.0,0.1,0.0,0.0,0.0,0.1
1446037195174266167,141,1446037195171009063,robocape,-14.0613574173,7.53343153268,-15.4919084104,0.0,10.0,0.0,0.0,0.0,10.0,0.0,0.0,0.0,10.0,0.00985369603329,0.0150468601589,0.00173105470855,1.0,0.0,0.0,0.0,1.0,0.0,0.0,0.0,1.0,-0.0239501953125,-0.748443603516,10.0985998535,0.1,0.0,0.0,0.0,0.1,0.0,0.0,0.0,0.1
1446037195207438334,142,1446037195204153060,robocape,-14.1418471886,7.55087897956,-15.447911589,0.0,10.0,0.0,0.0,0.0,10.0,0.0,0.0,0.0,10.0,-0.0591221761998,0.0133158054504,0.00892158965177,1.0,0.0,0.0,0.0,1.0,0.0,0.0,0.0,1.0,0.067060546875,-0.886157226563,10.055489502,0.1,0.0,0.0,0.0,0.1,0.0,0.0,0.0,0.1
1446037195240890376,143,1446037195237808942,robocape,-14.3903199057,7.58129903518,-15.3015552223,0.0,10.0,0.0,0.0,0.0,10.0,0.0,0.0,0.0,10.0,-0.154862817388,0.00705737688871,0.0617853372898,1.0,0.0,0.0,0.0,1.0,0.0,0.0,0.0,1.0,0.137713623047,-0.581989746094,10.1117724609,0.1,0.0,0.0,0.0,0.1,0.0,0.0,0.0,0.1
1446037195274052501,144,1446037195270953893,robocape,-14.6202539742,7.60409721852,-15.1675301537,0.0,10.0,0.0,0.0,0.0,10.0,0.0,0.0,0.0,10.0,-0.144609647191,0.00452737385313,0.0547279604011,1.0,0.0,0.0,0.0,1.0,0.0,0.0,0.0,1.0,0.324525146484,-2.09564208984,9.95729370117,0.1,0.0,0.0,0.0,0.1,0.0,0.0,0.0,0.1
1446037195307685417,145,1446037195304197072,robocape,-14.6904964617,7.62128285075,-15.1398903949,0.0,10.0,0.0,0.0,0.0,10.0,0.0,0.0,0.0,10.0,-0.0533963798561,0.015313176268,0.000932106381528,1.0,0.0,0.0,0.0,1.0,0.0,0.0,0.0,1.0,0.144898681641,-1.11607910156,10.1548828125,0.1,0.0,0.0,0.0,0.1,0.0,0.0,0.0,0.1
1446037195341706376,146,1446037195338099956,robocape,-14.7999156259,7.67681345364,-14.9408626538,0.0,10.0,0.0,0.0,0.0,10.0,0.0,0.0,0.0,10.0,-0.085087996828,0.0114515926873,0.0932106381528,1.0,0.0,0.0,0.0,1.0,0.0,0.0,0.0,1.0,0.209564208984,-2.02498901367,10.075847168,0.1,0.0,0.0,0.0,0.1,0.0,0.0,0.0,0.1
1446037195374579209,147,1446037195371054887,robocape,-14.7193173086,7.76138176335,-14.7527274925,0.0,10.0,0.0,0.0,0.0,10.0,0.0,0.0,0.0,10.0,0.016378440704,0.0267647689553,0.0930774800983,1.0,0.0,0.0,0.0,1.0,0.0,0.0,0.0,1.0,0.410745849609,-2.00702636719,9.9980090332,0.1,0.0,0.0,0.0,0.1,0.0,0.0,0.0,0.1
1446037195407787667,148,1446037195404139041,robocape,-14.3973266383,7.85515546069,-14.577743727,0.0,10.0,0.0,0.0,0.0,10.0,0.0,0.0,0.0,10.0,0.145541753573,0.0323574072445,0.0894822126267,1.0,0.0,0.0,0.0,1.0,0.0,0.0,0.0,1.0,0.217946777344,-2.04414916992,10.0255517578,0.1,0.0,0.0,0.0,0.1,0.0,0.0,0.0,0.1
1446037195442804417,149,1446037195439661979,robocape,-13.8202560755,7.91356450386,-14.5691109847,0.0,10.0,0.0,0.0,0.0,10.0,0.0,0.0,0.0,10.0,0.292148771582,0.0356863586071,0.00186421276306,1.0,0.0,0.0,0.0,1.0,0.0,0.0,0.0,1.0,0.338895263672,-2.12797485352,9.95250366211,0.1,0.0,0.0,0.0,0.1,0.0,0.0,0.0,0.1
1446037195474381417,150,1446037195470861911,robocape,-13.0354615145,7.88394136045,-14.9172484979,0.0,10.0,0.0,0.0,0.0,10.0,0.0,0.0,0.0,10.0,0.426372090522,0.034621094171,-0.190416017941,1.0,0.0,0.0,0.0,1.0,0.0,0.0,0.0,1.0,0.433498535156,-0.45984375,10.0279467773,0.1,0.0,0.0,0.0,0.1,0.0,0.0,0.0,0.1
1446037195507778584,151,1446037195504323959,robocape,-12.5300484121,7.82454506003,-15.2909533094,0.0,10.0,0.0,0.0,0.0,10.0,0.0,0.0,0.0,10.0,0.280297704731,0.0218379209386,-0.209857093898,1.0,0.0,0.0,0.0,1.0,0.0,0.0,0.0,1.0,-0.204774169922,1.24780517578,10.0818347168,0.1,0.0,0.0,0.0,0.1,0.0,0.0,0.0,0.1
1446037195540612126,152,1446037195537492990,robocape,-12.8231676442,7.85447784159,-15.1445631995,0.0,10.0,0.0,0.0,0.0,10.0,0.0,0.0,0.0,10.0,-0.176567580272,0.00878843159726,0.0621848114534,1.0,0.0,0.0,0.0,1.0,0.0,0.0,0.0,1.0,-0.186811523438,0.755628662109,10.1560803223,0.1,0.0,0.0,0.0,0.1,0.0,0.0,0.0,0.1
1446037195574356959,153,1446037195571007966,robocape,-13.3822629071,7.84928148322,-15.0498620387,0.0,10.0,0.0,0.0,0.0,10.0,0.0,0.0,0.0,10.0,-0.314652482793,-0.00213052887206,0.0298274042089,1.0,0.0,0.0,0.0,1.0,0.0,0.0,0.0,1.0,0.161663818359,-1.14242431641,10.019564209,0.1,0.0,0.0,0.0,0.1,0.0,0.0,0.0,0.1
1446037195607596959,154,1446037195604203939,robocape,-13.7665830824,7.81004220663,-15.1130315489,0.0,10.0,0.0,0.0,0.0,10.0,0.0,0.0,0.0,10.0,-0.212520254988,-0.000399474163512,-0.0543284862376,1.0,0.0,0.0,0.0,1.0,0.0,0.0,0.0,1.0,0.274229736328,-1.39629638672,10.0662670898,0.1,0.0,0.0,0.0,0.1,0.0,0.0,0.0,0.1
1446037195642058542,155,1446037195638055086,robocape,-14.185598195,7.79987777609,-15.0389402668,0.0,10.0,0.0,0.0,0.0,10.0,0.0,0.0,0.0,10.0,-0.240483446434,-0.00292947719909,0.0190416017941,1.0,0.0,0.0,0.0,1.0,0.0,0.0,0.0,1.0,0.238304443359,-1.48012207031,10.0997973633,0.1,0.0,0.0,0.0,0.1,0.0,0.0,0.0,0.1
1446037195675670876,156,1446037195672049999,robocape,-14.3420028657,7.8037220017,-15.0100833024,0.0,10.0,0.0,0.0,0.0,10.0,0.0,0.0,0.0,10.0,-0.0986701183874,0.00892158965177,-0.000532632218016,1.0,0.0,0.0,0.0,1.0,0.0,0.0,0.0,1.0,0.216749267578,-2.28005859375,10.0267492676,0.1,0.0,0.0,0.0,0.1,0.0,0.0,0.0,0.1
1446037195709093876,157,1446037195705739021,robocape,-14.264751018,7.82227250798,-15.0163942183,0.0,10.0,0.0,0.0,0.0,10.0,0.0,0.0,0.0,10.0,0.0275637172823,0.0199737081756,-0.0149137021044,1.0,0.0,0.0,0.0,1.0,0.0,0.0,0.0,1.0,0.376018066406,-1.78907958984,10.0099841309,0.1,0.0,0.0,0.0,0.1,0.0,0.0,0.0,0.1
1446037195742670501,158,1446037195739058971,robocape,-14.1855001468,7.88943362636,-14.8433368465,0.0,10.0,0.0,0.0,0.0,10.0,0.0,0.0,0.0,10.0,0.0170442309765,0.0209058145571,0.082957467956,1.0,0.0,0.0,0.0,1.0,0.0,0.0,0.0,1.0,0.0946032714844,-1.6058605957,10.1417102051,0.1,0.0,0.0,0.0,0.1,0.0,0.0,0.0,0.1
1446037195776623293,159,1446037195772900104,robocape,-13.9938952758,7.98085553351,-14.6444782918,0.0,10.0,0.0,0.0,0.0,10.0,0.0,0.0,0.0,10.0,0.0749679846857,0.0295610880999,0.100134856987,1.0,0.0,0.0,0.0,1.0,0.0,0.0,0.0,1.0,0.385598144531,-2.31598388672,9.99202148437,0.1,0.0,0.0,0.0,0.1,0.0,0.0,0.0,0.1
1446037195809669418,160,1446037195806236028,robocape,-13.341655645,8.0186829227,-14.7788070803,0.0,10.0,0.0,0.0,0.0,10.0,0.0,0.0,0.0,10.0,0.341816725912,0.0432763677138,-0.0736364041407,1.0,0.0,0.0,0.0,1.0,0.0,0.0,0.0,1.0,0.372425537109,-1.58789794922,9.97884887695,0.1,0.0,0.0,0.0,0.1,0.0,0.0,0.0,0.1
1446037195841936793,161,1446037195838402986,robocape,-13.0901891029,8.10858913792,-14.5741901632,0.0,10.0,0.0,0.0,0.0,10.0,0.0,0.0,0.0,10.0,0.106925917767,0.0294279300454,0.103064334186,1.0,0.0,0.0,0.0,1.0,0.0,0.0,0.0,1.0,0.156873779297,-0.136516113281,10.0219592285,0.1,0.0,0.0,0.0,0.1,0.0,0.0,0.0,0.1
1446037195876732793,162,1446037195872803926,robocape,-12.6617991636,8.12289390802,-14.6884276174,0.0,10.0,0.0,0.0,0.0,10.0,0.0,0.0,0.0,10.0,0.222640267131,0.0290284558819,-0.0680437658515,1.0,0.0,0.0,0.0,1.0,0.0,0.0,0.0,1.0,0.1149609375,-0.659827880859,10.0926123047,0.1,0.0,0.0,0.0,0.1,0.0,0.0,0.0,0.1
1446037195909975709,163,1446037195906311035,robocape,-12.6707008147,8.16730620612,-14.5673348157,0.0,10.0,0.0,0.0,0.0,10.0,0.0,0.0,0.0,10.0,-0.0247673981377,0.018242653467,0.0532632218016,1.0,0.0,0.0,0.0,1.0,0.0,0.0,0.0,1.0,0.0047900390625,0.736468505859,10.096204834,0.1,0.0,0.0,0.0,0.1,0.0,0.0,0.0,0.1
1446037195943265459,164,1446037195939682960,robocape,-13.0538027158,8.25618687648,-14.1644994434,0.0,10.0,0.0,0.0,0.0,10.0,0.0,0.0,0.0,10.0,-0.242613975306,0.00852211548825,0.200802346192,1.0,0.0,0.0,0.0,1.0,0.0,0.0,0.0,1.0,-0.1149609375,-1.71603149414,10.0267492676,0.1,0.0,0.0,0.0,0.1,0.0,0.0,0.0,0.1
1446037195978295501,165,1446037195972745895,robocape,-12.9596103993,8.21720352287,-14.3786887261,0.0,10.0,0.0,0.0,0.0,10.0,0.0,0.0,0.0,10.0,0.0527305895836,0.015579492377,-0.127032783997,1.0,0.0,0.0,0.0,1.0,0.0,0.0,0.0,1.0,0.597557373047,-1.6477734375,10.0111816406,0.1,0.0,0.0,0.0,0.1,0.0,0.0,0.0,0.1
1446037196012107876,166,1446037196007180929,robocape,-13.0592509866,8.25073243204,-14.2095481675,0.0,10.0,0.0,0.0,0.0,10.0,0.0,0.0,0.0,10.0,-0.0765658813398,0.00692421883421,0.0764327232853,1.0,0.0,0.0,0.0,1.0,0.0,0.0,0.0,1.0,0.173638916016,0.208366699219,10.157277832,0.1,0.0,0.0,0.0,0.1,0.0,0.0,0.0,0.1
1446037196044456043,167,1446037196041282892,robocape,-13.3022290223,8.30403259146,-13.9880697794,0.0,10.0,0.0,0.0,0.0,10.0,0.0,0.0,0.0,10.0,-0.156460714042,0.0110521185238,0.104795388895,1.0,0.0,0.0,0.0,1.0,0.0,0.0,0.0,1.0,-0.277822265625,-2.25850341797,10.0495019531,0.1,0.0,0.0,0.0,0.1,0.0,0.0,0.0,0.1
1446037196077715043,168,1446037196074189901,robocape,-13.2689551099,8.34533336652,-13.864113023,0.0,10.0,0.0,0.0,0.0,10.0,0.0,0.0,0.0,10.0,-0.0034621094171,0.015579492377,0.0553937506736,1.0,0.0,0.0,0.0,1.0,0.0,0.0,0.0,1.0,0.845441894531,-1.77351196289,9.88185058594,0.1,0.0,0.0,0.0,0.1,0.0,0.0,0.0,0.1
1446037196111986251,169,1446037196107705116,robocape,-13.0596482997,8.39303116952,-13.8121583634,0.0,10.0,0.0,0.0,0.0,10.0,0.0,0.0,0.0,10.0,0.0949416928613,0.0270310850643,0.0205063403936,1.0,0.0,0.0,0.0,1.0,0.0,0.0,0.0,1.0,0.0143701171875,-2.10162963867,10.1297351074,0.1,0.0,0.0,0.0,0.1,0.0,0.0,0.0,0.1
1446037196146484918,170,1446037196142151117,robocape,-12.443624826,8.3639903088,-14.1712746764,0.0,10.0,0.0,0.0,0.0,10.0,0.0,0.0,0.0,10.0,0.339952513149,0.0350205683345,-0.196408130393,1.0,0.0,0.0,0.0,1.0,0.0,0.0,0.0,1.0,0.211959228516,-1.48012207031,10.0447119141,0.1,0.0,0.0,0.0,0.1,0.0,0.0,0.0,0.1
1446037196179790834,171,1446037196176059007,robocape,-11.7994973277,8.28637411256,-14.6625017308,0.0,10.0,0.0,0.0,0.0,10.0,0.0,0.0,0.0,10.0,0.364453595177,0.0230363434292,-0.270310850643,1.0,0.0,0.0,0.0,1.0,0.0,0.0,0.0,1.0,0.0323327636719,0.232316894531,10.1225500488,0.1,0.0,0.0,0.0,0.1,0.0,0.0,0.0,0.1
1446037196211418334,172,1446037196207806110,robocape,-12.0829194342,8.29070823017,-14.5895356012,0.0,10.0,0.0,0.0,0.0,10.0,0.0,0.0,0.0,10.0,-0.165781777857,0.00492684801665,0.0226368692657,1.0,0.0,0.0,0.0,1.0,0.0,0.0,0.0,1.0,-0.141306152344,1.13404174805,9.90939331055,0.1,0.0,0.0,0.0,0.1,0.0,0.0,0.0,0.1
1446037196244426376,173,1446037196240865945,robocape,-12.6637064571,8.29354248088,-14.4475157889,0.0,10.0,0.0,0.0,0.0,10.0,0.0,0.0,0.0,10.0,-0.328500920461,-0.00279631914458,0.0561926990007,1.0,0.0,0.0,0.0,1.0,0.0,0.0,0.0,1.0,0.140108642578,-0.571212158203,10.0339343262,0.1,0.0,0.0,0.0,0.1,0.0,0.0,0.0,0.1
1446037196277557668,174,1446037196273256063,robocape,-13.3454143119,8.31378267285,-14.1510045605,0.0,10.0,0.0,0.0,0.0,10.0,0.0,0.0,0.0,10.0,-0.393748367168,-0.0127831732324,0.136620163921,1.0,0.0,0.0,0.0,1.0,0.0,0.0,0.0,1.0,-0.0981958007813,-2.52674560547,10.0950073242,0.1,0.0,0.0,0.0,0.1,0.0,0.0,0.0,0.1
1446037196311611126,175,1446037196308063983,robocape,-13.4734479488,8.28243147499,-14.2723943261,0.0,10.0,0.0,0.0,0.0,10.0,0.0,0.0,0.0,10.0,-0.0719053494321,0.00985369603329,-0.0800279907569,1.0,0.0,0.0,0.0,1.0,0.0,0.0,0.0,1.0,0.792751464844,-1.93637329102,9.97166381836,0.1,0.0,0.0,0.0,0.1,0.0,0.0,0.0,0.1
1446037196346299918,176,1446037196343089103,robocape,-13.6789934354,8.31119828623,-14.1392311096,0.0,10.0,0.0,0.0,0.0,10.0,0.0,0.0,0.0,10.0,-0.131027525632,0.00892158965177,0.0567253312187,1.0,0.0,0.0,0.0,1.0,0.0,0.0,0.0,1.0,-0.0215551757813,-2.12557983398,10.0171691895,0.1,0.0,0.0,0.0,0.1,0.0,0.0,0.0,0.1
1446037196378574751,177,1446037196374692916,robocape,-13.3977164798,8.30517989411,-14.333247141,0.0,10.0,0.0,0.0,0.0,10.0,0.0,0.0,0.0,10.0,0.149935969371,0.0302268783724,-0.11145329162,1.0,0.0,0.0,0.0,1.0,0.0,0.0,0.0,1.0,0.519719238281,-2.19383789063,9.98962646484,0.1,0.0,0.0,0.0,0.1,0.0,0.0,0.0,0.1
1446037196410048584,178,1446037196406486988,robocape,-13.2796665799,8.34639094647,-14.2615905951,0.0,10.0,0.0,0.0,0.0,10.0,0.0,0.0,0.0,10.0,0.0450074224223,0.0217047628841,0.0287621397729,1.0,0.0,0.0,0.0,1.0,0.0,0.0,0.0,1.0,0.178428955078,-0.769998779297,10.075847168,0.1,0.0,0.0,0.0,0.1,0.0,0.0,0.0,0.1
1446037196446528793,179,1446037196443454980,robocape,-13.2989246748,8.4315938219,-13.9528980884,0.0,10.0,0.0,0.0,0.0,10.0,0.0,0.0,0.0,10.0,-0.0444747902043,0.0154463343225,0.154463343225,1.0,0.0,0.0,0.0,1.0,0.0,0.0,0.0,1.0,-0.102985839844,-1.17355957031,10.1656604004,0.1,0.0,0.0,0.0,0.1,0.0,0.0,0.0,0.1
1446037196477973793,180,1446037196474272966,robocape,-13.1050652826,8.4832735186,-13.8507274852,0.0,10.0,0.0,0.0,0.0,10.0,0.0,0.0,0.0,10.0,0.0830906260105,0.0230363434292,0.0464721610219,1.0,0.0,0.0,0.0,1.0,0.0,0.0,0.0,1.0,0.476608886719,-2.82013549805,9.83155517578,0.1,0.0,0.0,0.0,0.1,0.0,0.0,0.0,0.1
1446037196511223585,181,1446037196507838964,robocape,-12.6185032228,8.52368239834,-13.8663787547,0.0,10.0,0.0,0.0,0.0,10.0,0.0,0.0,0.0,10.0,0.24687503305,0.0303600364269,-0.0133158054504,1.0,0.0,0.0,0.0,1.0,0.0,0.0,0.0,1.0,0.146096191406,0.371228027344,10.1620678711,0.1,0.0,0.0,0.0,0.1,0.0,0.0,0.0,0.1
1446037196543657501,182,1446037196540469884,robocape,-12.683742208,8.60965322379,-13.562092009,0.0,10.0,0.0,0.0,0.0,10.0,0.0,0.0,0.0,10.0,-0.0683100819605,0.0183758115215,0.152332814353,1.0,0.0,0.0,0.0,1.0,0.0,0.0,0.0,1.0,-0.176033935547,-1.24900268555,10.0495019531,0.1,0.0,0.0,0.0,0.1,0.0,0.0,0.0,0.1
1446037196576024543,183,1446037196572905063,robocape,-12.6086234036,8.67339222937,-13.3400424497,0.0,10.0,0.0,0.0,0.0,10.0,0.0,0.0,0.0,10.0,0.0118510668509,0.016112124595,0.10879013053,1.0,0.0,0.0,0.0,1.0,0.0,0.0,0.0,1.0,0.196391601563,-1.50886230469,10.0902172852,0.1,0.0,0.0,0.0,0.1,0.0,0.0,0.0,0.1
1446037196610000460,184,1446037196606822967,robocape,-12.2839461265,8.69880728356,-13.4063483644,0.0,10.0,0.0,0.0,0.0,10.0,0.0,0.0,0.0,10.0,0.165382303694,0.0292947719909,-0.0415453130052,1.0,0.0,0.0,0.0,1.0,0.0,0.0,0.0,1.0,0.567619628906,-1.97469360352,9.97286132813,0.1,0.0,0.0,0.0,0.1,0.0,0.0,0.0,0.1
1446037196642740043,185,1446037196639633893,robocape,-11.6959254005,8.63722969835,-13.8539865873,0.0,10.0,0.0,0.0,0.0,10.0,0.0,0.0,0.0,10.0,0.333427768478,0.0259658206283,-0.245277136396,1.0,0.0,0.0,0.0,1.0,0.0,0.0,0.0,1.0,0.229921875,-0.483793945313,9.98842895508,0.1,0.0,0.0,0.0,0.1,0.0,0.0,0.0,0.1
1446037196676209376,186,1446037196673171043,robocape,-11.6719880803,8.62109674445,-13.9812447771,0.0,10.0,0.0,0.0,0.0,10.0,0.0,0.0,0.0,10.0,0.0115847507418,0.0154463343225,-0.0797616746479,1.0,0.0,0.0,0.0,1.0,0.0,0.0,0.0,1.0,-0.538879394531,1.26576782227,9.94891113281,0.1,0.0,0.0,0.0,0.1,0.0,0.0,0.0,0.1
1446037196709353251,187,1446037196706224918,robocape,-12.20700126,8.67327376546,-13.6353407304,0.0,10.0,0.0,0.0,0.0,10.0,0.0,0.0,0.0,10.0,-0.319046698591,0.000133158054504,0.167512832566,1.0,0.0,0.0,0.0,1.0,0.0,0.0,0.0,1.0,-0.0371228027344,-0.791553955078,10.2267333984,0.1,0.0,0.0,0.0,0.1,0.0,0.0,0.0,0.1
1446037196742323251,188,1446037196739227056,robocape,-12.7604923713,8.72159637474,-13.2962728703,0.0,10.0,0.0,0.0,0.0,10.0,0.0,0.0,0.0,10.0,-0.329299868788,-0.00239684498107,0.163518090931,1.0,0.0,0.0,0.0,1.0,0.0,0.0,0.0,1.0,0.529299316406,-2.30999633789,10.0902172852,0.1,0.0,0.0,0.0,0.1,0.0,0.0,0.0,0.1
1446037196774545335,189,1446037196771497964,robocape,-12.8898518407,8.76221867684,-13.1995266686,0.0,10.0,0.0,0.0,0.0,10.0,0.0,0.0,0.0,10.0,-0.0874848418091,0.0199737081756,0.0411458388417,1.0,0.0,0.0,0.0,1.0,0.0,0.0,0.0,1.0,0.508941650391,-2.63332397461,9.98723144531,0.1,0.0,0.0,0.0,0.1,0.0,0.0,0.0,0.1
1446037196808740876,190,1446037196805639982,robocape,-12.456093018,8.7789626073,-13.310707166,0.0,10.0,0.0,0.0,0.0,10.0,0.0,0.0,0.0,10.0,0.226368692657,0.0298274042089,-0.0645816564344,1.0,0.0,0.0,0.0,1.0,0.0,0.0,0.0,1.0,0.205971679688,-2.81175292969,9.90220825195,0.1,0.0,0.0,0.0,0.1,0.0,0.0,0.0,0.1
1446037196842182210,191,1446037196838654994,robocape,-11.7350933629,8.74520876366,-13.7331683063,0.0,10.0,0.0,0.0,0.0,10.0,0.0,0.0,0.0,10.0,0.402137324602,0.0372842552611,-0.228366063474,1.0,0.0,0.0,0.0,1.0,0.0,0.0,0.0,1.0,0.419128417969,-0.986748046875,10.0255517578,0.1,0.0,0.0,0.0,0.1,0.0,0.0,0.0,0.1
1446037196875324710,192,1446037196872204065,robocape,-11.6629836755,8.77997949855,-13.6399902848,0.0,10.0,0.0,0.0,0.0,10.0,0.0,0.0,0.0,10.0,0.0206394984481,0.0173105470855,0.0392816260787,1.0,0.0,0.0,0.0,1.0,0.0,0.0,0.0,1.0,0.108973388672,0.227526855469,10.1788330078,0.1,0.0,0.0,0.0,0.1,0.0,0.0,0.0,0.1
1446037196908542085,193,1446037196905435085,robocape,-11.5826318615,8.790885879,-13.6808755757,0.0,10.0,0.0,0.0,0.0,10.0,0.0,0.0,0.0,10.0,0.035153726389,0.0197073920666,-0.031957933081,1.0,0.0,0.0,0.0,1.0,0.0,0.0,0.0,1.0,-0.067060546875,-1.18074462891,10.0985998535,0.1,0.0,0.0,0.0,0.1,0.0,0.0,0.0,0.1
1446037196941140918,194,1446037196937750101,robocape,-11.7805048364,8.82358389257,-13.5408175035,0.0,10.0,0.0,0.0,0.0,10.0,0.0,0.0,0.0,10.0,-0.125568045397,0.0122505410144,0.0617853372898,1.0,0.0,0.0,0.0,1.0,0.0,0.0,0.0,1.0,0.204774169922,0.226329345703,10.075847168,0.1,0.0,0.0,0.0,0.1,0.0,0.0,0.0,0.1
1446037196976023085,195,1446037196972589015,robocape,-12.23227521,8.88869238474,-13.1552027537,0.0,10.0,0.0,0.0,0.0,10.0,0.0,0.0,0.0,10.0,-0.278832966131,0.00199737081756,0.190016543777,1.0,0.0,0.0,0.0,1.0,0.0,0.0,0.0,1.0,-0.0047900390625,-1.91481811523,10.0495019531,0.1,0.0,0.0,0.0,0.1,0.0,0.0,0.0,0.1
1446037197010368668,196,1446037197006509065,robocape,-12.2581046561,8.93915335333,-12.9872894533,0.0,10.0,0.0,0.0,0.0,10.0,0.0,0.0,0.0,10.0,-0.0375505713701,0.016911072922,0.0793622004844,1.0,0.0,0.0,0.0,1.0,0.0,0.0,0.0,1.0,0.694555664063,-2.33035400391,9.97286132813,0.1,0.0,0.0,0.0,0.1,0.0,0.0,0.0,0.1
1446037197043101460,197,1446037197039350986,robocape,-11.9735002679,8.98829089905,-12.9367430876,0.0,10.0,0.0,0.0,0.0,10.0,0.0,0.0,0.0,10.0,0.13568805754,0.0283626656093,0.0209058145571,1.0,0.0,0.0,0.0,1.0,0.0,0.0,0.0,1.0,0.126936035156,-2.19503540039,10.055489502,0.1,0.0,0.0,0.0,0.1,0.0,0.0,0.0,0.1
1446037197076901210,198,1446037197072786092,robocape,-11.2762146903,8.9829419087,-13.2486341966,0.0,10.0,0.0,0.0,0.0,10.0,0.0,0.0,0.0,10.0,0.382296774481,0.0382163616426,-0.168578097002,1.0,0.0,0.0,0.0,1.0,0.0,0.0,0.0,1.0,0.347277832031,-1.26696533203,10.0375268555,0.1,0.0,0.0,0.0,0.1,0.0,0.0,0.0,0.1
1446037197108932001,199,1446037197105376958,robocape,-10.63893092,8.91219916595,-13.7934260169,0.0,10.0,0.0,0.0,0.0,10.0,0.0,0.0,0.0,10.0,0.36898096903,0.0270310850643,-0.296010355162,1.0,0.0,0.0,0.0,1.0,0.0,0.0,0.0,1.0,-0.105380859375,0.718505859375,10.2159558105,0.1,0.0,0.0,0.0,0.1,0.0,0.0,0.0,0.1
1446037197146528668,200,1446037197141697883,robocape,-10.9049004969,8.93526073073,-13.6349431001,0.0,10.0,0.0,0.0,0.0,10.0,0.0,0.0,0.0,10.0,-0.161920194277,0.0066579027252,0.0700411366691,1.0,0.0,0.0,0.0,1.0,0.0,0.0,0.0,1.0,-0.0299377441406,0.264649658203,9.9668737793,0.1,0.0,0.0,0.0,0.1,0.0,0.0,0.0,0.1
1446037197179492960,201,1446037197175359964,robocape,-11.1412719428,8.9110762201,-13.7453697593,0.0,10.0,0.0,0.0,0.0,10.0,0.0,0.0,0.0,10.0,-0.125967519561,0.00985369603329,-0.0728374558137,1.0,0.0,0.0,0.0,1.0,0.0,0.0,0.0,1.0,0.129331054688,-1.3759387207,9.88185058594,0.1,0.0,0.0,0.0,0.1,0.0,0.0,0.0,0.1
1446037197212537418,202,1446037197208750009,robocape,-11.4173014027,8.8917371567,-13.8036855508,0.0,10.0,0.0,0.0,0.0,10.0,0.0,0.0,0.0,10.0,-0.151267549917,0.00732369299772,-0.0459395288039,1.0,0.0,0.0,0.0,1.0,0.0,0.0,0.0,1.0,0.193996582031,-0.549656982422,10.0303417969,0.1,0.0,0.0,0.0,0.1,0.0,0.0,0.0,0.1
1446037197240346960,203,1446037197237317085,robocape,-11.741614007,8.87877441368,-13.770306183,0.0,10.0,0.0,0.0,0.0,10.0,0.0,0.0,0.0,10.0,-0.184157589379,0.00106526443603,0.00146473859954,1.0,0.0,0.0,0.0,1.0,0.0,0.0,0.0,1.0,0.0910107421875,-1.42862915039,10.0447119141,0.1,0.0,0.0,0.0,0.1,0.0,0.0,0.0,0.1
1446037197274032460,204,1446037197271020889,robocape,-12.0538308547,8.89362597156,-13.6043877969,0.0,10.0,0.0,0.0,0.0,10.0,0.0,0.0,0.0,10.0,-0.188285489069,0.000532632218016,0.0724379816502,1.0,0.0,0.0,0.0,1.0,0.0,0.0,0.0,1.0,0.342487792969,-1.64897094727,10.096204834,0.1,0.0,0.0,0.0,0.1,0.0,0.0,0.0,0.1
1446037197307674085,205,1446037197304569005,robocape,-12.0755863619,8.92683569974,-13.4769265216,0.0,10.0,0.0,0.0,0.0,10.0,0.0,0.0,0.0,10.0,-0.0320910911355,0.0129163312869,0.0563258570552,1.0,0.0,0.0,0.0,1.0,0.0,0.0,0.0,1.0,0.455053710938,-3.2572265625,9.93573852539,0.1,0.0,0.0,0.0,0.1,0.0,0.0,0.0,0.1
1446037197340916418,206,1446037197337877988,robocape,-11.6558697114,8.94446602224,-13.6387004014,0.0,10.0,0.0,0.0,0.0,10.0,0.0,0.0,0.0,10.0,0.223572373512,0.0354200424981,-0.0912132673352,1.0,0.0,0.0,0.0,1.0,0.0,0.0,0.0,1.0,0.367635498047,-1.40108642578,10.0638720703,0.1,0.0,0.0,0.0,0.1,0.0,0.0,0.0,0.1
1446037197375913585,207,1446037197372901916,robocape,-11.3513843213,8.99381494476,-13.5804193788,0.0,10.0,0.0,0.0,0.0,10.0,0.0,0.0,0.0,10.0,0.146074385791,0.0279631914458,0.0241016078652,1.0,0.0,0.0,0.0,1.0,0.0,0.0,0.0,1.0,0.0874182128906,-0.827479248047,10.1021923828,0.1,0.0,0.0,0.0,0.1,0.0,0.0,0.0,0.1
1446037197407297710,208,1446037197404179096,robocape,-11.2463537926,9.0925401327,-13.2312618285,0.0,10.0,0.0,0.0,0.0,10.0,0.0,0.0,0.0,10.0,0.018242653467,0.0234358175927,0.177499686654,1.0,0.0,0.0,0.0,1.0,0.0,0.0,0.0,1.0,0.0682580566406,-0.843046875,10.1117724609,0.1,0.0,0.0,0.0,0.1,0.0,0.0,0.0,0.1
1446037197442340877,209,1446037197439270019,robocape,-11.1275764532,9.20091726823,-12.8541482928,0.0,10.0,0.0,0.0,0.0,10.0,0.0,0.0,0.0,10.0,0.0230363434292,0.0258326625738,0.193079179031,1.0,0.0,0.0,0.0,1.0,0.0,0.0,0.0,1.0,0.312550048828,-1.58071289063,9.99202148437,0.1,0.0,0.0,0.0,0.1,0.0,0.0,0.0,0.1
1446037197474244585,210,1446037197471154928,robocape,-10.6972071877,9.2718999172,-12.7326695836,0.0,10.0,0.0,0.0,0.0,10.0,0.0,0.0,0.0,10.0,0.207859723081,0.032490565299,0.0597879664723,1.0,0.0,0.0,0.0,1.0,0.0,0.0,0.0,1.0,0.32572265625,-2.08366699219,9.96807128906,0.1,0.0,0.0,0.0,0.1,0.0,0.0,0.0,0.1
1446037197507472252,211,1446037197504297971,robocape,-10.1189642783,9.27224490201,-12.8954441802,0.0,10.0,0.0,0.0,0.0,10.0,0.0,0.0,0.0,10.0,0.309193002558,0.0238352917562,-0.0924116898257,1.0,0.0,0.0,0.0,1.0,0.0,0.0,0.0,1.0,-0.009580078125,0.658630371094,10.2195483398,0.1,0.0,0.0,0.0,0.1,0.0,0.0,0.0,0.1
1446037197540533918,212,1446037197537451028,robocape,-10.0305307861,9.33929102354,-12.7027101018,0.0,10.0,0.0,0.0,0.0,10.0,0.0,0.0,0.0,10.0,0.0223705531567,0.0259658206283,0.0941427445343,1.0,0.0,0.0,0.0,1.0,0.0,0.0,0.0,1.0,-0.0993933105469,-0.825084228516,10.1680554199,0.1,0.0,0.0,0.0,0.1,0.0,0.0,0.0,0.1
1446037197574156168,213,1446037197571017026,robocape,-9.88578304808,9.33467508923,-12.7998929707,0.0,10.0,0.0,0.0,0.0,10.0,0.0,0.0,0.0,10.0,0.0757669330128,0.016112124595,-0.0611195470173,1.0,0.0,0.0,0.0,1.0,0.0,0.0,0.0,1.0,0.215551757813,0.215551757813,9.94052856445,0.1,0.0,0.0,0.0,0.1,0.0,0.0,0.0,0.1
1446037197607381210,214,1446037197604192018,robocape,-9.97182498824,9.29429865021,-12.9994073506,0.0,10.0,0.0,0.0,0.0,10.0,0.0,0.0,0.0,10.0,-0.0375505713701,0.00798948327024,-0.118111194345,1.0,0.0,0.0,0.0,1.0,0.0,0.0,0.0,1.0,0.302969970703,-0.705333251953,10.0530944824,0.1,0.0,0.0,0.0,0.1,0.0,0.0,0.0,0.1
1446037197640801627,215,1446037197637553930,robocape,-10.3632515589,9.25470690647,-13.1447192088,0.0,10.0,0.0,0.0,0.0,10.0,0.0,0.0,0.0,10.0,-0.203332349228,0.00479368996214,-0.0917458995532,1.0,0.0,0.0,0.0,1.0,0.0,0.0,0.0,1.0,0.241896972656,0.956810302734,10.0662670898,0.1,0.0,0.0,0.0,0.1,0.0,0.0,0.0,0.1
1446037197674313335,216,1446037197670865058,robocape,-11.2595904852,9.27401036577,-12.8124364519,0.0,10.0,0.0,0.0,0.0,10.0,0.0,0.0,0.0,10.0,-0.508930084314,-0.0105194863058,0.15699334626,1.0,0.0,0.0,0.0,1.0,0.0,0.0,0.0,1.0,-0.112565917969,-1.64537841797,10.1333276367,0.1,0.0,0.0,0.0,0.1,0.0,0.0,0.0,0.1
1446037197707548460,217,1446037197704112052,robocape,-11.8177669582,9.29839243343,-12.5476801292,0.0,10.0,0.0,0.0,0.0,10.0,0.0,0.0,0.0,10.0,-0.326237233535,-0.00359526747161,0.124103306798,1.0,0.0,0.0,0.0,1.0,0.0,0.0,0.0,1.0,-0.0323327636719,-3.48235839844,10.0985998535,0.1,0.0,0.0,0.0,0.1,0.0,0.0,0.0,0.1
1446037197743823627,218,1446037197740715026,robocape,-11.5201002746,9.28537929859,-12.791729659,0.0,10.0,0.0,0.0,0.0,10.0,0.0,0.0,0.0,10.0,0.166580726184,0.0288952978274,-0.136087531703,1.0,0.0,0.0,0.0,1.0,0.0,0.0,0.0,1.0,1.07057373047,-2.91354125977,9.81479003906,0.1,0.0,0.0,0.0,0.1,0.0,0.0,0.0,0.1
1446037197777481168,219,1446037197774378061,robocape,-11.2233904436,9.27855247767,-12.987878944,0.0,10.0,0.0,0.0,0.0,10.0,0.0,0.0,0.0,10.0,0.162452826495,0.0263652947918,-0.111320133565,1.0,0.0,0.0,0.0,1.0,0.0,0.0,0.0,1.0,0.199984130859,-0.401165771484,10.157277832,0.1,0.0,0.0,0.0,0.1,0.0,0.0,0.0,0.1
1446037197810940252,220,1446037197807816982,robocape,-11.1245003398,9.31333580429,-12.876028332,0.0,10.0,0.0,0.0,0.0,10.0,0.0,0.0,0.0,10.0,0.0334226716805,0.0159789665405,0.04966795433,1.0,0.0,0.0,0.0,1.0,0.0,0.0,0.0,1.0,-0.102985839844,-2.67643432617,9.9668737793,0.1,0.0,0.0,0.0,0.1,0.0,0.0,0.0,0.1
1446037197843154960,221,1446037197840044021,robocape,-10.6781329658,9.32518360916,-13.0892760645,0.0,10.0,0.0,0.0,0.0,10.0,0.0,0.0,0.0,10.0,0.243279765579,0.0363521488796,-0.117844878236,1.0,0.0,0.0,0.0,1.0,0.0,0.0,0.0,1.0,0.270637207031,-0.538879394531,10.1165625,0.1,0.0,0.0,0.0,0.1,0.0,0.0,0.0,0.1
1446037197876330502,222,1446037197873043060,robocape,-10.524886589,9.34701671061,-13.0940349014,0.0,10.0,0.0,0.0,0.0,10.0,0.0,0.0,0.0,10.0,0.0720385074866,0.0213052887206,-0.0114515926873,1.0,0.0,0.0,0.0,1.0,0.0,0.0,0.0,1.0,0.368833007813,-0.467028808594,10.0650695801,0.1,0.0,0.0,0.0,0.1,0.0,0.0,0.0,0.1
1446037197907379169,223,1446037197904196023,robocape,-10.5120467736,9.35655712277,-13.0730526326,0.0,10.0,0.0,0.0,0.0,10.0,0.0,0.0,0.0,10.0,-0.00399474163512,0.0129163312869,0.0,1.0,0.0,0.0,0.0,1.0,0.0,0.0,0.0,1.0,-0.173638916016,-0.659827880859,10.1273400879,0.1,0.0,0.0,0.0,0.1,0.0,0.0,0.0,0.1
1446037197940557960,224,1446037197937524080,robocape,-10.5667225166,9.37209768613,-13.0435327134,0.0,10.0,0.0,0.0,0.0,10.0,0.0,0.0,0.0,10.0,-0.0403468905147,0.0154463343225,0.00466053190764,1.0,0.0,0.0,0.0,1.0,0.0,0.0,0.0,1.0,0.0874182128906,-0.978365478516,10.1548828125,0.1,0.0,0.0,0.0,0.1,0.0,0.0,0.0,0.1
1446037197974826835,225,1446037197971724033,robocape,-10.6771954983,9.38496359468,-13.0004183195,0.0,10.0,0.0,0.0,0.0,10.0,0.0,0.0,0.0,10.0,-0.0709732430506,0.0129163312869,0.0111852765783,1.0,0.0,0.0,0.0,1.0,0.0,0.0,0.0,1.0,0.232316894531,-1.07895629883,10.075847168,0.1,0.0,0.0,0.0,0.1,0.0,0.0,0.0,0.1
1446037198008058794,226,1446037198004766941,robocape,-10.9043345496,9.41123108648,-12.8391619442,0.0,10.0,0.0,0.0,0.0,10.0,0.0,0.0,0.0,10.0,-0.142345960265,0.00825579937925,0.0727042977592,1.0,0.0,0.0,0.0,1.0,0.0,0.0,0.0,1.0,0.166453857422,-0.893342285156,10.055489502,0.1,0.0,0.0,0.0,0.1,0.0,0.0,0.0,0.1
1446037198040844460,227,1446037198037755012,robocape,-10.9773190831,9.43860064792,-12.7263973496,0.0,10.0,0.0,0.0,0.0,10.0,0.0,0.0,0.0,10.0,-0.0572579634367,0.0130494893414,0.0487358479485,1.0,0.0,0.0,0.0,1.0,0.0,0.0,0.0,1.0,0.148491210938,-2.43573486328,9.94771362305,0.1,0.0,0.0,0.0,0.1,0.0,0.0,0.0,0.1
1446037198074240544,228,1446037198071127891,robocape,-10.7625253046,9.44145620337,-12.8444310848,0.0,10.0,0.0,0.0,0.0,10.0,0.0,0.0,0.0,10.0,0.113583820492,0.0229031853747,-0.0707069269416,1.0,0.0,0.0,0.0,1.0,0.0,0.0,0.0,1.0,0.500559082031,-1.28612548828,10.0315393066,0.1,0.0,0.0,0.0,0.1,0.0,0.0,0.0,0.1
1446037198107582919,229,1446037198104326963,robocape,-10.6291254986,9.44538677968,-12.9566340451,0.0,10.0,0.0,0.0,0.0,10.0,0.0,0.0,0.0,10.0,0.0703074527781,0.0230363434292,-0.068176923906,1.0,0.0,0.0,0.0,1.0,0.0,0.0,0.0,1.0,0.233514404297,-0.641865234375,10.0542919922,0.1,0.0,0.0,0.0,0.1,0.0,0.0,0.0,0.1
1446037198140620127,230,1446037198137526035,robocape,-10.6269131328,9.45101775577,-12.9731880836,0.0,10.0,0.0,0.0,0.0,10.0,0.0,0.0,0.0,10.0,-0.0066579027252,0.0147805440499,-0.0195742340121,1.0,0.0,0.0,0.0,1.0,0.0,0.0,0.0,1.0,-0.0586779785156,-1.16278198242,10.0746496582,0.1,0.0,0.0,0.0,0.1,0.0,0.0,0.0,0.1
1446037198174104377,231,1446037198170952081,robocape,-10.6089840479,9.46994113516,-12.9521183183,0.0,10.0,0.0,0.0,0.0,10.0,0.0,0.0,0.0,10.0,-0.00146473859954,0.0178431793035,0.00106526443603,1.0,0.0,0.0,0.0,1.0,0.0,0.0,0.0,1.0,-0.0107775878906,-1.28373046875,10.0698596191,0.1,0.0,0.0,0.0,0.1,0.0,0.0,0.0,0.1
1446037198207373710,232,1446037198204135894,robocape,-10.5904580983,9.49432770503,-12.909297229,0.0,10.0,0.0,0.0,0.0,10.0,0.0,0.0,0.0,10.0,-0.00292947719909,0.0185089695761,0.0127831732324,1.0,0.0,0.0,0.0,1.0,0.0,0.0,0.0,1.0,0.270637207031,-1.22026245117,10.0435144043,0.1,0.0,0.0,0.0,0.1,0.0,0.0,0.0,0.1
1446037198240502669,233,1446037198237456083,robocape,-10.5607623243,9.51574816414,-12.8754470318,0.0,10.0,0.0,0.0,0.0,10.0,0.0,0.0,0.0,10.0,0.00372842552611,0.0178431793035,0.00798948327024,1.0,0.0,0.0,0.0,1.0,0.0,0.0,0.0,1.0,0.376018066406,-1.25020019531,10.0495019531,0.1,0.0,0.0,0.0,0.1,0.0,0.0,0.0,0.1
1446037198274324252,234,1446037198271131038,robocape,-10.6326725673,9.55799840611,-12.6738643923,0.0,10.0,0.0,0.0,0.0,10.0,0.0,0.0,0.0,10.0,-0.0637827081074,0.0122505410144,0.0957406411883,1.0,0.0,0.0,0.0,1.0,0.0,0.0,0.0,1.0,0.140108642578,-1.09332641602,10.1536853027,0.1,0.0,0.0,0.0,0.1,0.0,0.0,0.0,0.1
1446037198308020835,235,1446037198304775953,robocape,-10.6695449568,9.63448752717,-12.3666243926,0.0,10.0,0.0,0.0,0.0,10.0,0.0,0.0,0.0,10.0,-0.0543284862376,0.0191747598486,0.153531236843,1.0,0.0,0.0,0.0,1.0,0.0,0.0,0.0,1.0,0.0658630371094,-2.10043212891,10.0435144043,0.1,0.0,0.0,0.0,0.1,0.0,0.0,0.0,0.1
1446037198341045960,236,1446037198337999105,robocape,-10.3314112685,9.68785066896,-12.2758691925,0.0,10.0,0.0,0.0,0.0,10.0,0.0,0.0,0.0,10.0,0.161653878168,0.0275637172823,0.0420779452233,1.0,0.0,0.0,0.0,1.0,0.0,0.0,0.0,1.0,0.512534179688,-1.99265625,9.95849121094,0.1,0.0,0.0,0.0,0.1,0.0,0.0,0.0,0.1
1446037198374189460,237,1446037198371145963,robocape,-9.87572415729,9.71669435732,-12.3363583882,0.0,10.0,0.0,0.0,0.0,10.0,0.0,0.0,0.0,10.0,0.236755020908,0.0291616139364,-0.0374174133156,1.0,0.0,0.0,0.0,1.0,0.0,0.0,0.0,1.0,0.508941650391,-0.774788818359,10.0459094238,0.1,0.0,0.0,0.0,0.1,0.0,0.0,0.0,0.1
1446037198407461335,238,1446037198404278993,robocape,-9.58840766573,9.73130356553,-12.3621433245,0.0,10.0,0.0,0.0,0.0,10.0,0.0,0.0,0.0,10.0,0.145408595518,0.0190416017941,-0.0217047628841,1.0,0.0,0.0,0.0,1.0,0.0,0.0,0.0,1.0,-0.307760009766,-0.508941650391,10.2243383789,0.1,0.0,0.0,0.0,0.1,0.0,0.0,0.0,0.1
1446037198443186627,239,1446037198440068960,robocape,-9.54985499176,9.75834342587,-12.3260928029,0.0,10.0,0.0,0.0,0.0,10.0,0.0,0.0,0.0,10.0,0.00918790576077,0.0207726565026,0.0101200121423,1.0,0.0,0.0,0.0,1.0,0.0,0.0,0.0,1.0,-0.0323327636719,-0.0119750976563,10.2243383789,0.1,0.0,0.0,0.0,0.1,0.0,0.0,0.0,0.1
1446037198474395044,240,1446037198471292972,robocape,-9.92564093363,9.81955540336,-11.967750298,0.0,10.0,0.0,0.0,0.0,10.0,0.0,0.0,0.0,10.0,-0.236888178963,0.0102531701968,0.177366528599,1.0,0.0,0.0,0.0,1.0,0.0,0.0,0.0,1.0,0.238304443359,-0.718505859375,10.1333276367,0.1,0.0,0.0,0.0,0.1,0.0,0.0,0.0,0.1
1446037198511385960,241,1446037198507896900,robocape,-10.0412633723,9.86208928806,-11.757621322,0.0,10.0,0.0,0.0,0.0,10.0,0.0,0.0,0.0,10.0,-0.0874848418091,0.0129163312869,0.100800647259,1.0,0.0,0.0,0.0,1.0,0.0,0.0,0.0,1.0,0.207169189453,-2.86803588867,9.89143066406,0.1,0.0,0.0,0.0,0.1,0.0,0.0,0.0,0.1
1446037198544049919,242,1446037198541004896,robocape,-9.69540748998,9.84259389426,-12.0185529339,0.0,10.0,0.0,0.0,0.0,10.0,0.0,0.0,0.0,10.0,0.196541288448,0.0230363434292,-0.144609647191,1.0,0.0,0.0,0.0,1.0,0.0,0.0,0.0,1.0,0.455053710938,-0.952020263672,10.0303417969,0.1,0.0,0.0,0.0,0.1,0.0,0.0,0.0,0.1
1446037198574145711,243,1446037198570960044,robocape,-9.71802246145,9.88031611555,-11.8253157203,0.0,10.0,0.0,0.0,0.0,10.0,0.0,0.0,0.0,10.0,-0.0367516230431,0.0121173829599,0.0920122156622,1.0,0.0,0.0,0.0,1.0,0.0,0.0,0.0,1.0,0.186811523438,-0.428708496094,10.136920166,0.1,0.0,0.0,0.0,0.1,0.0,0.0,0.0,0.1
1446037198607108544,244,1446037198604038000,robocape,-9.65444526007,9.87427040154,-11.9503546371,0.0,10.0,0.0,0.0,0.0,10.0,0.0,0.0,0.0,10.0,0.0362189908251,0.018242653467,-0.0748348266312,1.0,0.0,0.0,0.0,1.0,0.0,0.0,0.0,1.0,-0.113763427734,-1.89086791992,10.0255517578,0.1,0.0,0.0,0.0,0.1,0.0,0.0,0.0,0.1
1446037198640592002,245,1446037198637532949,robocape,-9.58755090683,9.8692516489,-12.0483621457,0.0,10.0,0.0,0.0,0.0,10.0,0.0,0.0,0.0,10.0,0.0356863586071,0.0162452826495,-0.0609863889628,1.0,0.0,0.0,0.0,1.0,0.0,0.0,0.0,1.0,0.204774169922,0.226329345703,10.1033898926,0.1,0.0,0.0,0.0,0.1,0.0,0.0,0.0,0.1
1446037198674089836,246,1446037198670758962,robocape,-9.82073488243,9.89167880539,-11.8693927725,0.0,10.0,0.0,0.0,0.0,10.0,0.0,0.0,0.0,10.0,-0.146473859954,0.00625842856169,0.0825579937925,1.0,0.0,0.0,0.0,1.0,0.0,0.0,0.0,1.0,0.229921875,-2.08007446289,9.97405883789,0.1,0.0,0.0,0.0,0.1,0.0,0.0,0.0,0.1
1446037198707218211,247,1446037198704169034,robocape,-9.81713596533,9.89271566139,-11.9458741822,0.0,10.0,0.0,0.0,0.0,10.0,0.0,0.0,0.0,10.0,0.000266316109008,0.0178431793035,-0.0495347962755,1.0,0.0,0.0,0.0,1.0,0.0,0.0,0.0,1.0,0.141306152344,-0.391585693359,10.172845459,0.1,0.0,0.0,0.0,0.1,0.0,0.0,0.0,0.1
1446037198740429211,248,1446037198737396001,robocape,-9.95894229656,9.92286810193,-11.7783031909,0.0,10.0,0.0,0.0,0.0,10.0,0.0,0.0,0.0,10.0,-0.0976048539514,0.0107858024148,0.0777643038303,1.0,0.0,0.0,0.0,1.0,0.0,0.0,0.0,1.0,0.214354248047,-2.51716552734,10.0016015625,0.1,0.0,0.0,0.0,0.1,0.0,0.0,0.0,0.1
1446037198774220877,249,1446037198770827054,robocape,-9.76488466748,9.94087099517,-11.8002060976,0.0,10.0,0.0,0.0,0.0,10.0,0.0,0.0,0.0,10.0,0.0958737992429,0.0209058145571,-0.0191747598486,1.0,0.0,0.0,0.0,1.0,0.0,0.0,0.0,1.0,0.324525146484,-0.383203125,10.1405126953,0.1,0.0,0.0,0.0,0.1,0.0,0.0,0.0,0.1
1446037198807774419,250,1446037198804320096,robocape,-9.94479587655,10.0086146834,-11.4675514854,0.0,10.0,0.0,0.0,0.0,10.0,0.0,0.0,0.0,10.0,-0.132225948122,0.0151800182135,0.165781777857,1.0,0.0,0.0,0.0,1.0,0.0,0.0,0.0,1.0,0.0730480957031,-1.45497436523,10.0710571289,0.1,0.0,0.0,0.0,0.1,0.0,0.0,0.0,0.1
1446037198841167586,251,1446037198837765932,robocape,-9.84145685066,10.0812351309,-11.2152786135,0.0,10.0,0.0,0.0,0.0,10.0,0.0,0.0,0.0,10.0,0.0238352917562,0.0241016078652,0.12623383567,1.0,0.0,0.0,0.0,1.0,0.0,0.0,0.0,1.0,0.126936035156,-2.28604614258,10.0506994629,0.1,0.0,0.0,0.0,0.1,0.0,0.0,0.0,0.1
1446037198874188836,252,1446037198870835065,robocape,-9.39914546897,10.1306046097,-11.1680831804,0.0,10.0,0.0,0.0,0.0,10.0,0.0,0.0,0.0,10.0,0.220776054368,0.0299605622634,0.0203731823391,1.0,0.0,0.0,0.0,1.0,0.0,0.0,0.0,1.0,0.401165771484,-2.04175415039,9.95130615234,0.1,0.0,0.0,0.0,0.1,0.0,0.0,0.0,0.1
1446037198910116794,253,1446037198906795978,robocape,-8.675997982,10.0842114439,-11.6709533847,0.0,10.0,0.0,0.0,0.0,10.0,0.0,0.0,0.0,10.0,0.418249449197,0.0263652947918,-0.269245586207,1.0,0.0,0.0,0.0,1.0,0.0,0.0,0.0,1.0,0.225131835938,-0.906514892578,10.132130127,0.1,0.0,0.0,0.0,0.1,0.0,0.0,0.0,0.1
1446037198943365294,254,1446037198940284013,robocape,-8.14730115273,10.0827364904,-11.7889675781,0.0,10.0,0.0,0.0,0.0,10.0,0.0,0.0,0.0,10.0,0.281895601385,0.0170442309765,-0.0692421883421,1.0,0.0,0.0,0.0,1.0,0.0,0.0,0.0,1.0,-0.138911132813,1.80344970703,10.1297351074,0.1,0.0,0.0,0.0,0.1,0.0,0.0,0.0,0.1
1446037198976803419,255,1446037198973537921,robocape,-8.83052126245,10.1919554842,-11.118889913,0.0,10.0,0.0,0.0,0.0,10.0,0.0,0.0,0.0,10.0,-0.426238932467,0.0149137021044,0.341150935639,1.0,0.0,0.0,0.0,1.0,0.0,0.0,0.0,1.0,-0.137713623047,1.06578369141,10.3249291992,0.1,0.0,0.0,0.0,0.1,0.0,0.0,0.0,0.1
1446037199010123336,256,1446037199006678104,robocape,-9.61850033585,10.2972585171,-10.3074018349,0.0,10.0,0.0,0.0,0.0,10.0,0.0,0.0,0.0,10.0,-0.495747436918,-0.00306263525359,0.41332260118,1.0,0.0,0.0,0.0,1.0,0.0,0.0,0.0,1.0,0.0167651367188,-2.60099121094,10.0387243652,0.1,0.0,0.0,0.0,0.1,0.0,0.0,0.0,0.1
1446037199042987627,257,1446037199039900064,robocape,-9.74151408117,10.391220543,-9.71288704929,0.0,10.0,0.0,0.0,0.0,10.0,0.0,0.0,0.0,10.0,-0.127165942051,0.00559263828917,0.30333404816,1.0,0.0,0.0,0.0,1.0,0.0,0.0,0.0,1.0,0.566422119141,-3.63803466797,9.8483203125,0.1,0.0,0.0,0.0,0.1,0.0,0.0,0.0,0.1
1446037199075617627,258,1446037199072396039,robocape,-9.3364742778,10.5156994153,-9.18551470542,0.0,10.0,0.0,0.0,0.0,10.0,0.0,0.0,0.0,10.0,0.156593872097,0.0263652947918,0.273373485897,1.0,0.0,0.0,0.0,1.0,0.0,0.0,0.0,1.0,0.214354248047,-3.46080322266,10.0016015625,0.1,0.0,0.0,0.0,0.1,0.0,0.0,0.0,0.1
1446037199108239169,259,1446037199105022907,robocape,-8.32766149616,10.6187928209,-8.80980626237,0.0,10.0,0.0,0.0,0.0,10.0,0.0,0.0,0.0,10.0,0.488556901975,0.0290284558819,0.195609182066,1.0,0.0,0.0,0.0,1.0,0.0,0.0,0.0,1.0,0.211959228516,-2.76864257813,9.90340576172,0.1,0.0,0.0,0.0,0.1,0.0,0.0,0.0,0.1
1446037199141779336,260,1446037199138767004,robocape,-6.91436934568,10.6307842976,-8.77582181734,0.0,10.0,0.0,0.0,0.0,10.0,0.0,0.0,0.0,10.0,0.733967196426,0.00905474770627,0.0145142279409,1.0,0.0,0.0,0.0,1.0,0.0,0.0,0.0,1.0,0.196391601563,-1.55317016602,10.0974023437,0.1,0.0,0.0,0.0,0.1,0.0,0.0,0.0,0.1
1446037199175267127,261,1446037199171972036,robocape,-5.32108573054,10.6463709693,-8.80259642251,0.0,10.0,0.0,0.0,0.0,10.0,0.0,0.0,0.0,10.0,0.834634685631,0.0151800182135,-0.016911072922,1.0,0.0,0.0,0.0,1.0,0.0,0.0,0.0,1.0,0.13412109375,0.462238769531,10.0303417969,0.1,0.0,0.0,0.0,0.1,0.0,0.0,0.0,0.1
1446037199207911169,262,1446037199204583883,robocape,-4.2786689681,10.6581720649,-8.75473412606,0.0,10.0,0.0,0.0,0.0,10.0,0.0,0.0,0.0,10.0,0.538890646578,0.0114515926873,0.0195742340121,1.0,0.0,0.0,0.0,1.0,0.0,0.0,0.0,1.0,-0.252674560547,1.31965576172,9.95489868164,0.1,0.0,0.0,0.0,0.1,0.0,0.0,0.0,0.1
1446037199265421128,263,1446037199238003969,robocape,-3.73426693577,10.6557874508,-8.77466874418,0.0,10.0,0.0,0.0,0.0,10.0,0.0,0.0,0.0,10.0,0.284691920529,0.00812264132474,-0.016911072922,1.0,0.0,0.0,0.0,1.0,0.0,0.0,0.0,1.0,0.336500244141,1.55197265625,9.9213684082,0.1,0.0,0.0,0.0,0.1,0.0,0.0,0.0,0.1
1446037199287807086,264,1446037199284084081,robocape,-3.7966475307,10.6860172102,-8.75084724202,0.0,10.0,0.0,0.0,0.0,10.0,0.0,0.0,0.0,10.0,-0.0375505713701,0.0245010820287,0.00599211245268,1.0,0.0,0.0,0.0,1.0,0.0,0.0,0.0,1.0,0.548459472656,1.53880004883,9.96208374023,0.1,0.0,0.0,0.0,0.1,0.0,0.0,0.0,0.1
1446037199309330003,265,1446037199305660963,robocape,-4.19131110335,10.7234494974,-8.72468250537,0.0,10.0,0.0,0.0,0.0,10.0,0.0,0.0,0.0,10.0,-0.212253938879,0.0286289817184,0.00719053494321,1.0,0.0,0.0,0.0,1.0,0.0,0.0,0.0,1.0,0.182021484375,0.645457763672,10.0411193848,0.1,0.0,0.0,0.0,0.1,0.0,0.0,0.0,0.1
1446037199342465544,266,1446037199339240074,robocape,-4.6876621847,10.741783324,-8.86110281018,0.0,10.0,0.0,0.0,0.0,10.0,0.0,0.0,0.0,10.0,-0.250337142467,0.0258326625738,-0.0774979877213,1.0,0.0,0.0,0.0,1.0,0.0,0.0,0.0,1.0,0.295784912109,-0.0143701171875,10.0303417969,0.1,0.0,0.0,0.0,0.1,0.0,0.0,0.0,0.1
1446037199376370169,267,1446037199372775077,robocape,-5.18389554105,10.717135406,-9.2909078301,0.0,10.0,0.0,0.0,0.0,10.0,0.0,0.0,0.0,10.0,-0.222507109076,0.0181094954125,-0.23089606651,1.0,0.0,0.0,0.0,1.0,0.0,0.0,0.0,1.0,0.167651367188,-0.869392089844,10.1033898926,0.1,0.0,0.0,0.0,0.1,0.0,0.0,0.0,0.1
1446037199408277961,268,1446037199405160903,robocape,-5.53580873713,10.6564193874,-9.92069322171,0.0,10.0,0.0,0.0,0.0,10.0,0.0,0.0,0.0,10.0,-0.128231206487,0.0111852765783,-0.336224087623,1.0,0.0,0.0,0.0,1.0,0.0,0.0,0.0,1.0,0.0969982910156,-0.0730480957031,10.0722546387,0.1,0.0,0.0,0.0,0.1,0.0,0.0,0.0,0.1
1446037199445124044,269,1446037199441967964,robocape,-6.37302808247,10.6448706853,-9.98119714801,0.0,10.0,0.0,0.0,0.0,10.0,0.0,0.0,0.0,10.0,-0.438223157373,0.00892158965177,-0.0415453130052,1.0,0.0,0.0,0.0,1.0,0.0,0.0,0.0,1.0,-0.0790356445313,0.439486083984,10.0063916016,0.1,0.0,0.0,0.0,0.1,0.0,0.0,0.0,0.1
1446037199477988878,270,1446037199474575042,robocape,-7.33430440668,10.6402956639,-9.91838551955,0.0,10.0,0.0,0.0,0.0,10.0,0.0,0.0,0.0,10.0,-0.516253777312,0.00572579634367,0.0218379209386,1.0,0.0,0.0,0.0,1.0,0.0,0.0,0.0,1.0,0.112565917969,-1.19870727539,10.0231567383,0.1,0.0,0.0,0.0,0.1,0.0,0.0,0.0,0.1
1446037199510689044,271,1446037199507297039,robocape,-8.03939085195,10.5611380507,-10.3057243275,0.0,10.0,0.0,0.0,0.0,10.0,0.0,0.0,0.0,10.0,-0.340218829258,-0.00106526443603,-0.214517625806,1.0,0.0,0.0,0.0,1.0,0.0,0.0,0.0,1.0,0.312550048828,-1.12685668945,10.0111816406,0.1,0.0,0.0,0.0,0.1,0.0,0.0,0.0,0.1
1446037199543451419,272,1446037199540429115,robocape,-8.99026589947,10.5546123018,-10.1362903996,0.0,10.0,0.0,0.0,0.0,10.0,0.0,0.0,0.0,10.0,-0.523044838092,-0.00386158358061,0.0753674588492,1.0,0.0,0.0,0.0,1.0,0.0,0.0,0.0,1.0,-0.0251477050781,-0.250279541016,10.0722546387,0.1,0.0,0.0,0.0,0.1,0.0,0.0,0.0,0.1
1446037199578547294,273,1446037199575040102,robocape,-9.97416167366,10.5571492385,-9.8638438886,0.0,10.0,0.0,0.0,0.0,10.0,0.0,0.0,0.0,10.0,-0.551540661755,-0.00905474770627,0.128364364542,1.0,0.0,0.0,0.0,1.0,0.0,0.0,0.0,1.0,-0.217946777344,-3.3374597168,9.98004638672,0.1,0.0,0.0,0.0,0.1,0.0,0.0,0.0,0.1
1446037199611285586,274,1446037199607494115,robocape,-10.2953816028,10.5662244234,-9.7652055494,0.0,10.0,0.0,0.0,0.0,10.0,0.0,0.0,0.0,10.0,-0.187087066578,0.00719053494321,0.0419447871687,1.0,0.0,0.0,0.0,1.0,0.0,0.0,0.0,1.0,0.889749755859,-3.3721875,9.86987548828,0.1,0.0,0.0,0.0,0.1,0.0,0.0,0.0,0.1
1446037199645279544,275,1446037199642081022,robocape,-9.77115229705,10.5797523129,-10.0658147512,0.0,10.0,0.0,0.0,0.0,10.0,0.0,0.0,0.0,10.0,0.296010355162,0.0435426838228,-0.158724400969,1.0,0.0,0.0,0.0,1.0,0.0,0.0,0.0,1.0,0.611927490234,-3.38057006836,9.99202148437,0.1,0.0,0.0,0.0,0.1,0.0,0.0,0.0,0.1
1446037199678559461,276,1446037199674858093,robocape,-8.96540378042,10.5608400257,-10.5445840838,0.0,10.0,0.0,0.0,0.0,10.0,0.0,0.0,0.0,10.0,0.461525816911,0.0395479421877,-0.25246767134,1.0,0.0,0.0,0.0,1.0,0.0,0.0,0.0,1.0,0.17244140625,-0.898132324219,10.0267492676,0.1,0.0,0.0,0.0,0.1,0.0,0.0,0.0,0.1
1446037199711738544,277,1446037199708185911,robocape,-8.34727612129,10.5200830955,-11.0197809514,0.0,10.0,0.0,0.0,0.0,10.0,0.0,0.0,0.0,10.0,0.362722540469,0.0258326625738,-0.254065567994,1.0,0.0,0.0,0.0,1.0,0.0,0.0,0.0,1.0,-0.0419128417969,0.657432861328,10.2147583008,0.1,0.0,0.0,0.0,0.1,0.0,0.0,0.0,0.1
1446037199744437919,278,1446037199740983963,robocape,-8.42494375754,10.5664450418,-10.7797795054,0.0,10.0,0.0,0.0,0.0,10.0,0.0,0.0,0.0,10.0,-0.0700411366691,0.0157126504315,0.117179087963,1.0,0.0,0.0,0.0,1.0,0.0,0.0,0.0,1.0,-0.108973388672,0.162861328125,10.1261425781,0.1,0.0,0.0,0.0,0.1,0.0,0.0,0.0,0.1
1446037199778854586,279,1446037199775083065,robocape,-8.60192873561,10.5692285649,-10.7841839132,0.0,10.0,0.0,0.0,0.0,10.0,0.0,0.0,0.0,10.0,-0.099602224769,0.0127831732324,-0.0117179087963,1.0,0.0,0.0,0.0,1.0,0.0,0.0,0.0,1.0,0.195194091797,-1.28492797852,10.0016015625,0.1,0.0,0.0,0.0,0.1,0.0,0.0,0.0,0.1
1446037199811367503,280,1446037199807988882,robocape,-8.99453420596,10.5978791478,-10.5290025265,0.0,10.0,0.0,0.0,0.0,10.0,0.0,0.0,0.0,10.0,-0.23768712729,0.00545948023466,0.122904884307,1.0,0.0,0.0,0.0,1.0,0.0,0.0,0.0,1.0,0.102985839844,-0.409548339844,10.0830322266,0.1,0.0,0.0,0.0,0.1,0.0,0.0,0.0,0.1
1446037199845114169,281,1446037199841680049,robocape,-9.30734760515,10.6440409778,-10.2050518593,0.0,10.0,0.0,0.0,0.0,10.0,0.0,0.0,0.0,10.0,-0.202666558955,0.00772316716123,0.159922823459,1.0,0.0,0.0,0.0,1.0,0.0,0.0,0.0,1.0,-0.0263452148438,-2.25850341797,10.0985998535,0.1,0.0,0.0,0.0,0.1,0.0,0.0,0.0,0.1
1446037199878196794,282,1446037199874954938,robocape,-9.26872307592,10.690675762,-10.0061513981,0.0,10.0,0.0,0.0,0.0,10.0,0.0,0.0,0.0,10.0,-0.00612527050718,0.0173105470855,0.0972053797879,1.0,0.0,0.0,0.0,1.0,0.0,0.0,0.0,1.0,0.639470214844,-2.6476940918,9.91777587891,0.1,0.0,0.0,0.0,0.1,0.0,0.0,0.0,0.1
1446037199910033128,283,1446037199906757116,robocape,-8.87966698004,10.7334966026,-10.0440213805,0.0,10.0,0.0,0.0,0.0,10.0,0.0,0.0,0.0,10.0,0.200935504246,0.034621094171,-0.0231695014837,1.0,0.0,0.0,0.0,1.0,0.0,0.0,0.0,1.0,0.141306152344,-1.36995117188,10.1081799316,0.1,0.0,0.0,0.0,0.1,0.0,0.0,0.0,0.1
1446037199945992378,284,1446037199940798044,robocape,-8.49727357779,10.7936231932,-9.92987381682,0.0,10.0,0.0,0.0,0.0,10.0,0.0,0.0,0.0,10.0,0.183225482997,0.0311589847539,0.0557932248372,1.0,0.0,0.0,0.0,1.0,0.0,0.0,0.0,1.0,0.125738525391,-1.14841186523,10.0183666992,0.1,0.0,0.0,0.0,0.1,0.0,0.0,0.0,0.1
1446037199974156711,285,1446037199970839977,robocape,-8.05582353131,10.8256014799,-9.97304772768,0.0,10.0,0.0,0.0,0.0,10.0,0.0,0.0,0.0,10.0,0.229697644019,0.0290284558819,-0.0268979270098,1.0,0.0,0.0,0.0,1.0,0.0,0.0,0.0,1.0,0.296982421875,-1.56394775391,10.0027990723,0.1,0.0,0.0,0.0,0.1,0.0,0.0,0.0,0.1
1446037200007562628,286,1446037200004204988,robocape,-7.35923291323,10.7780810654,-10.4002293518,0.0,10.0,0.0,0.0,0.0,10.0,0.0,0.0,0.0,10.0,0.401338376275,0.0145142279409,-0.229165011801,1.0,0.0,0.0,0.0,1.0,0.0,0.0,0.0,1.0,0.0119750976563,-0.674197998047,10.1824255371,0.1,0.0,0.0,0.0,0.1,0.0,0.0,0.0,0.1
1446037200040820628,287,1446037200037427902,robocape,-7.14305125891,10.7683835788,-10.6101693068,0.0,10.0,0.0,0.0,0.0,10.0,0.0,0.0,0.0,10.0,0.128098048433,0.0191747598486,-0.116912771854,1.0,0.0,0.0,0.0,1.0,0.0,0.0,0.0,1.0,-0.118553466797,1.31127319336,10.1381176758,0.1,0.0,0.0,0.0,0.1,0.0,0.0,0.0,0.1
1446037200074293211,288,1446037200070883989,robocape,-7.42496110126,10.8002291104,-10.4275154118,0.0,10.0,0.0,0.0,0.0,10.0,0.0,0.0,0.0,10.0,-0.171374416147,0.0150468601589,0.0864195773731,1.0,0.0,0.0,0.0,1.0,0.0,0.0,0.0,1.0,0.286204833984,-0.437091064453,10.0099841309,0.1,0.0,0.0,0.0,0.1,0.0,0.0,0.0,0.1
1446037200107321753,289,1446037200104089975,robocape,-7.68643797559,10.7768559661,-10.5464755018,0.0,10.0,0.0,0.0,0.0,10.0,0.0,0.0,0.0,10.0,-0.131959632013,0.00745685105222,-0.0721716655411,1.0,0.0,0.0,0.0,1.0,0.0,0.0,0.0,1.0,0.295784912109,-0.305364990234,9.98723144531,0.1,0.0,0.0,0.0,0.1,0.0,0.0,0.0,0.1
1446037200140701045,290,1446037200137530088,robocape,-8.25240599818,10.7447884543,-10.5903424256,0.0,10.0,0.0,0.0,0.0,10.0,0.0,0.0,0.0,10.0,-0.299738780688,-0.00133158054504,-0.035153726389,1.0,0.0,0.0,0.0,1.0,0.0,0.0,0.0,1.0,0.0359252929688,0.350870361328,10.0183666992,0.1,0.0,0.0,0.0,0.1,0.0,0.0,0.0,0.1
1446037200175146545,291,1446037200171731948,robocape,-9.05327021409,10.7205128199,-10.4744374948,0.0,10.0,0.0,0.0,0.0,10.0,0.0,0.0,0.0,10.0,-0.439421579863,-0.00905474770627,0.0464721610219,1.0,0.0,0.0,0.0,1.0,0.0,0.0,0.0,1.0,0.047900390625,-2.52315307617,10.055489502,0.1,0.0,0.0,0.0,0.1,0.0,0.0,0.0,0.1
1446037200207306170,292,1446037200204235076,robocape,-9.37439834156,10.7036211294,-10.4739144396,0.0,10.0,0.0,0.0,0.0,10.0,0.0,0.0,0.0,10.0,-0.176700738327,0.00292947719909,-0.0109189604693,1.0,0.0,0.0,0.0,1.0,0.0,0.0,0.0,1.0,0.179626464844,-1.8812878418,10.1381176758,0.1,0.0,0.0,0.0,0.1,0.0,0.0,0.0,0.1
1446037200240590128,293,1446037200237457036,robocape,-9.40219507168,10.7027514846,-10.5319954529,0.0,10.0,0.0,0.0,0.0,10.0,0.0,0.0,0.0,10.0,-0.016911072922,0.0154463343225,-0.0387489938607,1.0,0.0,0.0,0.0,1.0,0.0,0.0,0.0,1.0,0.613125,-2.835703125,9.98483642578,0.1,0.0,0.0,0.0,0.1,0.0,0.0,0.0,0.1
1446037200274200295,294,1446037200270977020,robocape,-9.27593247461,10.723867581,-10.5528278453,0.0,10.0,0.0,0.0,0.0,10.0,0.0,0.0,0.0,10.0,0.0607200728538,0.0230363434292,-0.01744370514,1.0,0.0,0.0,0.0,1.0,0.0,0.0,0.0,1.0,0.0215551757813,-0.940045166016,10.1285375977,0.1,0.0,0.0,0.0,0.1,0.0,0.0,0.0,0.1
1446037200307520753,295,1446037200304440021,robocape,-9.27417710609,10.7947555581,-10.2013565095,0.0,10.0,0.0,0.0,0.0,10.0,0.0,0.0,0.0,10.0,-0.0402137324602,0.016911072922,0.176833896381,1.0,0.0,0.0,0.0,1.0,0.0,0.0,0.0,1.0,0.225131835938,-2.60578125,10.0291442871,0.1,0.0,0.0,0.0,0.1,0.0,0.0,0.0,0.1
1446037200341742920,296,1446037200338618040,robocape,-8.68037269708,10.8433043781,-10.2778041428,0.0,10.0,0.0,0.0,0.0,10.0,0.0,0.0,0.0,10.0,0.312521953921,0.0402137324602,-0.0420779452233,1.0,0.0,0.0,0.0,1.0,0.0,0.0,0.0,1.0,0.5748046875,-2.08845703125,9.98244140625,0.1,0.0,0.0,0.0,0.1,0.0,0.0,0.0,0.1
1446037200375366586,297,1446037200372262954,robocape,-7.98737240863,10.8751565471,-10.469489216,0.0,10.0,0.0,0.0,0.0,10.0,0.0,0.0,0.0,10.0,0.376304662028,0.0399474163512,-0.102664860023,1.0,0.0,0.0,0.0,1.0,0.0,0.0,0.0,1.0,0.317340087891,-0.222736816406,10.0842297363,0.1,0.0,0.0,0.0,0.1,0.0,0.0,0.0,0.1
1446037200409743420,298,1446037200406232118,robocape,-7.79031008398,10.9435249761,-10.1993592317,0.0,10.0,0.0,0.0,0.0,10.0,0.0,0.0,0.0,10.0,0.0711064011051,0.0254331884103,0.135155425322,1.0,0.0,0.0,0.0,1.0,0.0,0.0,0.0,1.0,-0.399968261719,0.441881103516,9.97645385742,0.1,0.0,0.0,0.0,0.1,0.0,0.0,0.0,0.1
1446037200442815336,299,1446037200439661026,robocape,-7.94880163854,11.0347987433,-9.66396032286,0.0,10.0,0.0,0.0,0.0,10.0,0.0,0.0,0.0,10.0,-0.141946486101,0.0187752856851,0.272175063406,1.0,0.0,0.0,0.0,1.0,0.0,0.0,0.0,1.0,0.235909423828,-1.20828735352,9.91777587891,0.1,0.0,0.0,0.0,0.1,0.0,0.0,0.0,0.1
1446037200476229170,300,1446037200472718954,robocape,-7.51546314295,11.0604926505,-9.75890641981,0.0,10.0,0.0,0.0,0.0,10.0,0.0,0.0,0.0,10.0,0.231029224564,0.0295610880999,-0.0539290120741,1.0,0.0,0.0,0.0,1.0,0.0,0.0,0.0,1.0,0.378413085938,-1.9890637207,10.0255517578,0.1,0.0,0.0,0.0,0.1,0.0,0.0,0.0,0.1
1446037200507838211,301,1446037200504726886,robocape,-6.83657070735,11.0098666519,-10.2321594941,0.0,10.0,0.0,0.0,0.0,10.0,0.0,0.0,0.0,10.0,0.397876266858,0.0142479118319,-0.252867145503,1.0,0.0,0.0,0.0,1.0,0.0,0.0,0.0,1.0,0.00598754882813,-0.179626464844,10.0051940918,0.1,0.0,0.0,0.0,0.1,0.0,0.0,0.0,0.1
1446037200542683170,302,1446037200539285898,robocape,-6.66716745245,11.006924882,-10.4201618379,0.0,10.0,0.0,0.0,0.0,10.0,0.0,0.0,0.0,10.0,0.102265385859,0.0206394984481,-0.105194863058,1.0,0.0,0.0,0.0,1.0,0.0,0.0,0.0,1.0,-0.0143701171875,0.893342285156,10.0662670898,0.1,0.0,0.0,0.0,0.1,0.0,0.0,0.0,0.1
1446037200578359586,303,1446037200574927091,robocape,-6.87909938802,11.008635635,-10.3685257704,0.0,10.0,0.0,0.0,0.0,10.0,0.0,0.0,0.0,10.0,-0.121573303762,0.00852211548825,0.01744370514,1.0,0.0,0.0,0.0,1.0,0.0,0.0,0.0,1.0,0.246687011719,-0.122145996094,10.0914147949,0.1,0.0,0.0,0.0,0.1,0.0,0.0,0.0,0.1
1446037200610888753,304,1446037200605979919,robocape,-7.40857848022,11.0367721095,-10.055009307,0.0,10.0,0.0,0.0,0.0,10.0,0.0,0.0,0.0,10.0,-0.314519324738,0.00519316412565,0.15313176268,1.0,0.0,0.0,0.0,1.0,0.0,0.0,0.0,1.0,0.237106933594,0.0550854492188,10.1105749512,0.1,0.0,0.0,0.0,0.1,0.0,0.0,0.0,0.1
1446037200644917628,305,1446037200641777992,robocape,-8.10106231894,11.0745748615,-9.60684567113,0.0,10.0,0.0,0.0,0.0,10.0,0.0,0.0,0.0,10.0,-0.414254707562,-0.00066579027252,0.222640267131,1.0,0.0,0.0,0.0,1.0,0.0,0.0,0.0,1.0,0.0263452148438,-1.94595336914,10.075847168,0.1,0.0,0.0,0.0,0.1,0.0,0.0,0.0,0.1
1446037200677851337,306,1446037200673342943,robocape,-8.2447938409,11.1012286079,-9.39480273237,0.0,10.0,0.0,0.0,0.0,10.0,0.0,0.0,0.0,10.0,-0.103064334186,0.00865527354276,0.102265385859,1.0,0.0,0.0,0.0,1.0,0.0,0.0,0.0,1.0,0.101788330078,-2.99137939453,10.075847168,0.1,0.0,0.0,0.0,0.1,0.0,0.0,0.0,0.1
1446037200710444712,307,1446037200707314968,robocape,-7.95279877711,11.1528394754,-9.31259201392,0.0,10.0,0.0,0.0,0.0,10.0,0.0,0.0,0.0,10.0,0.138883850848,0.0303600364269,0.0387489938607,1.0,0.0,0.0,0.0,1.0,0.0,0.0,0.0,1.0,0.646655273438,-2.14833251953,9.97405883789,0.1,0.0,0.0,0.0,0.1,0.0,0.0,0.0,0.1
1446037200743788628,308,1446037200740652084,robocape,-7.53240830128,11.2429451488,-9.01108441885,0.0,10.0,0.0,0.0,0.0,10.0,0.0,0.0,0.0,10.0,0.184690221597,0.034354778062,0.153930711007,1.0,0.0,0.0,0.0,1.0,0.0,0.0,0.0,1.0,0.152083740234,-1.47293701172,10.0303417969,0.1,0.0,0.0,0.0,0.1,0.0,0.0,0.0,0.1
1446037200778674420,309,1446037200774888992,robocape,-7.13556856307,11.3515979993,-8.44556131423,0.0,10.0,0.0,0.0,0.0,10.0,0.0,0.0,0.0,10.0,0.145674911627,0.0270310850643,0.290284558819,1.0,0.0,0.0,0.0,1.0,0.0,0.0,0.0,1.0,0.0395178222656,-1.57352783203,10.0423168945,0.1,0.0,0.0,0.0,0.1,0.0,0.0,0.0,0.1
1446037200812081378,310,1446037200808572053,robocape,-6.5662127398,11.4517247382,-7.88327867106,0.0,10.0,0.0,0.0,0.0,10.0,0.0,0.0,0.0,10.0,0.236355546745,0.0249005561922,0.288420346056,1.0,0.0,0.0,0.0,1.0,0.0,0.0,0.0,1.0,0.245489501953,-1.56275024414,9.98244140625,0.1,0.0,0.0,0.0,0.1,0.0,0.0,0.0,0.1
1446037200844577920,311,1446037200841249942,robocape,-5.86740747431,11.5145335786,-7.36224435226,0.0,10.0,0.0,0.0,0.0,10.0,0.0,0.0,0.0,10.0,0.308527212286,0.0107858024148,0.265384002626,1.0,0.0,0.0,0.0,1.0,0.0,0.0,0.0,1.0,-0.0514929199219,-1.37713623047,10.1057849121,0.1,0.0,0.0,0.0,0.1,0.0,0.0,0.0,0.1
1446037200878422962,312,1446037200874995946,robocape,-4.9000272929,11.5321039735,-7.25048720723,0.0,10.0,0.0,0.0,0.0,10.0,0.0,0.0,0.0,10.0,0.492152169447,0.0114515926873,0.0536626959651,1.0,0.0,0.0,0.0,1.0,0.0,0.0,0.0,1.0,0.0658630371094,-0.981958007813,10.0710571289,0.1,0.0,0.0,0.0,0.1,0.0,0.0,0.0,0.1
1446037200911915170,313,1446037200908428907,robocape,-3.89231561825,11.5447203288,-7.31177116697,0.0,10.0,0.0,0.0,0.0,10.0,0.0,0.0,0.0,10.0,0.531833269689,0.01744370514,-0.0356863586071,1.0,0.0,0.0,0.0,1.0,0.0,0.0,0.0,1.0,0.419128417969,-0.102985839844,9.90699829102,0.1,0.0,0.0,0.0,0.1,0.0,0.0,0.0,0.1
1446037200944500295,314,1446037200941121101,robocape,-3.02944084415,11.5448198454,-7.47354827472,0.0,10.0,0.0,0.0,0.0,10.0,0.0,0.0,0.0,10.0,0.466985297145,0.0143810698864,-0.0884169481906,1.0,0.0,0.0,0.0,1.0,0.0,0.0,0.0,1.0,-0.346080322266,0.559237060547,10.1500927734,0.1,0.0,0.0,0.0,0.1,0.0,0.0,0.0,0.1
1446037200978612837,315,1446037200975337982,robocape,-2.67519666918,11.5538025582,-7.47341181512,0.0,10.0,0.0,0.0,0.0,10.0,0.0,0.0,0.0,10.0,0.18389127327,0.0143810698864,-0.00559263828917,1.0,0.0,0.0,0.0,1.0,0.0,0.0,0.0,1.0,0.154478759766,1.00590820312,9.97166381836,0.1,0.0,0.0,0.0,0.1,0.0,0.0,0.0,0.1
1446037201011627503,316,1446037201008438110,robocape,-2.57498143968,11.5666115948,-7.58100554823,0.0,10.0,0.0,0.0,0.0,10.0,0.0,0.0,0.0,10.0,0.0621848114534,0.0195742340121,-0.0612527050718,1.0,0.0,0.0,0.0,1.0,0.0,0.0,0.0,1.0,0.541274414062,0.276624755859,10.0818347168,0.1,0.0,0.0,0.0,0.1,0.0,0.0,0.0,0.1
1446037201044469003,317,1446037201041203975,robocape,-2.68833939495,11.5674217033,-7.82172768109,0.0,10.0,0.0,0.0,0.0,10.0,0.0,0.0,0.0,10.0,-0.0358195166616,0.0170442309765,-0.130361735359,1.0,0.0,0.0,0.0,1.0,0.0,0.0,0.0,1.0,0.0275427246094,0.780776367188,9.99681152344,0.1,0.0,0.0,0.0,0.1,0.0,0.0,0.0,0.1
1446037201078299753,318,1446037201075109004,robocape,-2.91318596702,11.544259135,-8.3327002643,0.0,10.0,0.0,0.0,0.0,10.0,0.0,0.0,0.0,10.0,-0.0661795530885,0.0126500151779,-0.270577166752,1.0,0.0,0.0,0.0,1.0,0.0,0.0,0.0,1.0,0.334105224609,0.599952392578,10.0147741699,0.1,0.0,0.0,0.0,0.1,0.0,0.0,0.0,0.1
1446037201110537462,319,1446037201107423067,robocape,-3.56896177862,11.5267671147,-8.68362732737,0.0,10.0,0.0,0.0,0.0,10.0,0.0,0.0,0.0,10.0,-0.309326160613,0.0130494893414,-0.188818121287,1.0,0.0,0.0,0.0,1.0,0.0,0.0,0.0,1.0,0.243094482422,1.06458618164,9.89382568359,0.1,0.0,0.0,0.0,0.1,0.0,0.0,0.0,0.1
1446037201144267670,320,1446037201141156911,robocape,-4.91095713454,11.5497936527,-8.21434706765,0.0,10.0,0.0,0.0,0.0,10.0,0.0,0.0,0.0,10.0,-0.755405643201,0.00439421579863,0.234225017872,1.0,0.0,0.0,0.0,1.0,0.0,0.0,0.0,1.0,-0.141306152344,0.4215234375,9.97286132813,0.1,0.0,0.0,0.0,0.1,0.0,0.0,0.0,0.1
1446037201177587295,321,1446037201174284934,robocape,-6.27576130868,11.5562886746,-7.71899492729,0.0,10.0,0.0,0.0,0.0,10.0,0.0,0.0,0.0,10.0,-0.771784083905,-0.0102531701968,0.246475558887,1.0,0.0,0.0,0.0,1.0,0.0,0.0,0.0,1.0,-0.0167651367188,-2.46088256836,10.3860021973,0.1,0.0,0.0,0.0,0.1,0.0,0.0,0.0,0.1
1446037201210780170,322,1446037201207410097,robocape,-6.85071759249,11.5526614775,-7.67285960359,0.0,10.0,0.0,0.0,0.0,10.0,0.0,0.0,0.0,10.0,-0.311856163648,0.00719053494321,0.016378440704,1.0,0.0,0.0,0.0,1.0,0.0,0.0,0.0,1.0,0.252674560547,-3.13508056641,10.0782421875,0.1,0.0,0.0,0.0,0.1,0.0,0.0,0.0,0.1
1446037201243655128,323,1446037201240545988,robocape,-7.00515623406,11.5651048917,-7.65122227615,0.0,10.0,0.0,0.0,0.0,10.0,0.0,0.0,0.0,10.0,-0.0888164223541,0.016112124595,0.00545948023466,1.0,0.0,0.0,0.0,1.0,0.0,0.0,0.0,1.0,0.716110839844,-2.85127075195,9.91897338867,0.1,0.0,0.0,0.0,0.1,0.0,0.0,0.0,0.1
1446037201277566045,324,1446037201274342060,robocape,-6.72902468663,11.5946833871,-7.65750312485,0.0,10.0,0.0,0.0,0.0,10.0,0.0,0.0,0.0,10.0,0.140348589447,0.0256995045193,-0.00705737688871,1.0,0.0,0.0,0.0,1.0,0.0,0.0,0.0,1.0,0.128133544922,-2.38663696289,10.0147741699,0.1,0.0,0.0,0.0,0.1,0.0,0.0,0.0,0.1
1446037201310598587,325,1446037201307271003,robocape,-6.15912738435,11.5665758032,-7.78888484218,0.0,10.0,0.0,0.0,0.0,10.0,0.0,0.0,0.0,10.0,0.308127738122,0.00213052887206,-0.0740358783042,1.0,0.0,0.0,0.0,1.0,0.0,0.0,0.0,1.0,0.409548339844,-2.17707275391,10.024354248,0.1,0.0,0.0,0.0,0.1,0.0,0.0,0.0,0.1
1446037201342328837,326,1446037201339323997,robocape,-5.23278250533,11.54528028,-8.4026445192,0.0,10.0,0.0,0.0,0.0,10.0,0.0,0.0,0.0,10.0,0.545814865412,0.0302268783724,-0.320910911355,1.0,0.0,0.0,0.0,1.0,0.0,0.0,0.0,1.0,0.01916015625,-1.56275024414,10.0818347168,0.1,0.0,0.0,0.0,0.1,0.0,0.0,0.0,0.1
1446037201376814629,327,1446037201373734951,robocape,-4.22970594424,11.5081734527,-9.05178895394,0.0,10.0,0.0,0.0,0.0,10.0,0.0,0.0,0.0,10.0,0.590289655616,0.0186421276306,-0.341017777585,1.0,0.0,0.0,0.0,1.0,0.0,0.0,0.0,1.0,-0.00598754882813,0.379610595703,10.1668579102,0.1,0.0,0.0,0.0,0.1,0.0,0.0,0.0,0.1
1446037201408734379,328,1446037201405491113,robocape,-4.13026999405,11.5235188408,-9.06322567479,0.0,10.0,0.0,0.0,0.0,10.0,0.0,0.0,0.0,10.0,0.050466902657,0.0187752856851,-0.0127831732324,1.0,0.0,0.0,0.0,1.0,0.0,0.0,0.0,1.0,-0.0502954101563,2.20820800781,9.87346801758,0.1,0.0,0.0,0.0,0.1,0.0,0.0,0.0,0.1
1446037201443437962,329,1446037201440299987,robocape,-4.60513589761,11.5681175384,-8.6196643104,0.0,10.0,0.0,0.0,0.0,10.0,0.0,0.0,0.0,10.0,-0.298140884034,0.0154463343225,0.222107634913,1.0,0.0,0.0,0.0,1.0,0.0,0.0,0.0,1.0,0.185614013672,0.463436279297,10.0123791504,0.1,0.0,0.0,0.0,0.1,0.0,0.0,0.0,0.1
1446037201474989462,330,1446037201471822977,robocape,-5.14879679115,11.6190732338,-8.14334127282,0.0,10.0,0.0,0.0,0.0,10.0,0.0,0.0,0.0,10.0,-0.338354616495,0.015579492377,0.239418181998,1.0,0.0,0.0,0.0,1.0,0.0,0.0,0.0,1.0,0.17244140625,-1.42503662109,10.1093774414,0.1,0.0,0.0,0.0,0.1,0.0,0.0,0.0,0.1
1446037201508297962,331,1446037201505038022,robocape,-5.22843311935,11.6056511662,-8.37080159097,0.0,10.0,0.0,0.0,0.0,10.0,0.0,0.0,0.0,10.0,-0.0218379209386,0.0149137021044,-0.124236464852,1.0,0.0,0.0,0.0,1.0,0.0,0.0,0.0,1.0,0.168848876953,-1.43581420898,10.0459094238,0.1,0.0,0.0,0.0,0.1,0.0,0.0,0.0,0.1
1446037201541785587,332,1446037201538712978,robocape,-5.1673602826,11.5623444097,-8.84983192713,0.0,10.0,0.0,0.0,0.0,10.0,0.0,0.0,0.0,10.0,0.0781637779938,0.0115847507418,-0.254997674375,1.0,0.0,0.0,0.0,1.0,0.0,0.0,0.0,1.0,0.119750976563,-0.160466308594,10.0447119141,0.1,0.0,0.0,0.0,0.1,0.0,0.0,0.0,0.1
1446037201574785045,333,1446037201571542978,robocape,-5.34120781176,11.5171773963,-9.1588710899,0.0,10.0,0.0,0.0,0.0,10.0,0.0,0.0,0.0,10.0,-0.0629837597804,0.00279631914458,-0.168578097002,1.0,0.0,0.0,0.0,1.0,0.0,0.0,0.0,1.0,0.149688720703,-0.0407153320313,10.0542919922,0.1,0.0,0.0,0.0,0.1,0.0,0.0,0.0,0.1
1446037201607823045,334,1446037201604581117,robocape,-6.08471418493,11.5076553704,-9.02377623552,0.0,10.0,0.0,0.0,0.0,10.0,0.0,0.0,0.0,10.0,-0.408395753164,-0.000399474163512,0.0603205986903,1.0,0.0,0.0,0.0,1.0,0.0,0.0,0.0,1.0,0.0981958007813,0.837059326172,10.0351318359,0.1,0.0,0.0,0.0,0.1,0.0,0.0,0.0,0.1
1446037201640693587,335,1446037201637617111,robocape,-7.20588805429,11.5385480544,-8.49463492795,0.0,10.0,0.0,0.0,0.0,10.0,0.0,0.0,0.0,10.0,-0.648479725434,-0.00399474163512,0.264052422081,1.0,0.0,0.0,0.0,1.0,0.0,0.0,0.0,1.0,0.0754431152344,-1.27175537109,9.96567626953,0.1,0.0,0.0,0.0,0.1,0.0,0.0,0.0,0.1
1446037201674226087,336,1446037201671091079,robocape,-7.72915931029,11.523079679,-8.32196641866,0.0,10.0,0.0,0.0,0.0,10.0,0.0,0.0,0.0,10.0,-0.298673516252,-0.00798948327024,0.0794953585389,1.0,0.0,0.0,0.0,1.0,0.0,0.0,0.0,1.0,-0.00239501953125,-4.47748901367,9.95370117188,0.1,0.0,0.0,0.0,0.1,0.0,0.0,0.0,0.1
1446037201707376712,337,1446037201704282999,robocape,-7.69613248296,11.5397980483,-8.40463318854,0.0,10.0,0.0,0.0,0.0,10.0,0.0,0.0,0.0,10.0,0.0197073920666,0.0254331884103,-0.0478037415669,1.0,0.0,0.0,0.0,1.0,0.0,0.0,0.0,1.0,0.689765625,-1.51005981445,10.1596728516,0.1,0.0,0.0,0.0,0.1,0.0,0.0,0.0,0.1
1446037201740742295,338,1446037201737719058,robocape,-7.56087109336,11.5845854451,-8.26522784826,0.0,10.0,0.0,0.0,0.0,10.0,0.0,0.0,0.0,10.0,0.0506000607115,0.0238352917562,0.0677774497425,1.0,0.0,0.0,0.0,1.0,0.0,0.0,0.0,1.0,-0.132923583984,-2.54590576172,9.98723144531,0.1,0.0,0.0,0.0,0.1,0.0,0.0,0.0,0.1
1446037201774929254,339,1446037201771697998,robocape,-7.14120397069,11.6454843228,-8.15189377219,0.0,10.0,0.0,0.0,0.0,10.0,0.0,0.0,0.0,10.0,0.202932875064,0.033555829735,0.0560595409462,1.0,0.0,0.0,0.0,1.0,0.0,0.0,0.0,1.0,0.499361572266,-1.7974621582,9.94412109375,0.1,0.0,0.0,0.0,0.1,0.0,0.0,0.0,0.1
1446037201807987587,340,1446037201804883956,robocape,-6.60726812232,11.7038130896,-8.03337040347,0.0,10.0,0.0,0.0,0.0,10.0,0.0,0.0,0.0,10.0,0.262720841536,0.0320910911355,0.0585895439817,1.0,0.0,0.0,0.0,1.0,0.0,0.0,0.0,1.0,0.203576660156,-1.38551879883,10.024354248,0.1,0.0,0.0,0.0,0.1,0.0,0.0,0.0,0.1
1446037201840678420,341,1446037201837598085,robocape,-5.97207261796,11.7436143987,-8.05019052772,0.0,10.0,0.0,0.0,0.0,10.0,0.0,0.0,0.0,10.0,0.330498291279,0.0308926686449,-0.0118510668509,1.0,0.0,0.0,0.0,1.0,0.0,0.0,0.0,1.0,0.136516113281,-1.46694946289,10.1860180664,0.1,0.0,0.0,0.0,0.1,0.0,0.0,0.0,0.1
1446037201874444587,342,1446037201871254920,robocape,-5.08803985384,11.7139138409,-8.56014511423,0.0,10.0,0.0,0.0,0.0,10.0,0.0,0.0,0.0,10.0,0.513723774276,0.0198405501211,-0.268313479825,1.0,0.0,0.0,0.0,1.0,0.0,0.0,0.0,1.0,-0.0622705078125,-0.652642822266,10.019564209,0.1,0.0,0.0,0.0,0.1,0.0,0.0,0.0,0.1
1446037201907715920,343,1446037201904602050,robocape,-4.60942872061,11.7187887915,-8.86269546868,0.0,10.0,0.0,0.0,0.0,10.0,0.0,0.0,0.0,10.0,0.279498756404,0.0264984528463,-0.161787036222,1.0,0.0,0.0,0.0,1.0,0.0,0.0,0.0,1.0,0.009580078125,1.86931274414,9.9980090332,0.1,0.0,0.0,0.0,0.1,0.0,0.0,0.0,0.1
1446037201940819129,344,1446037201937697887,robocape,-4.90802911089,11.7741097697,-8.46917719858,0.0,10.0,0.0,0.0,0.0,10.0,0.0,0.0,0.0,10.0,-0.201601294519,0.0219710789932,0.196940762611,1.0,0.0,0.0,0.0,1.0,0.0,0.0,0.0,1.0,-0.00239501953125,0.754431152344,10.0219592285,0.1,0.0,0.0,0.0,0.1,0.0,0.0,0.0,0.1
1446037201974313545,345,1446037201971168041,robocape,-5.54898849992,11.8378436761,-7.84445848731,0.0,10.0,0.0,0.0,0.0,10.0,0.0,0.0,0.0,10.0,-0.406398382346,0.0138484376684,0.315984063338,1.0,0.0,0.0,0.0,1.0,0.0,0.0,0.0,1.0,0.215551757813,-0.597557373047,10.0650695801,0.1,0.0,0.0,0.0,0.1,0.0,0.0,0.0,0.1
1446037202007411670,346,1446037202004322052,robocape,-5.97993593596,11.8484565559,-7.81146202951,0.0,10.0,0.0,0.0,0.0,10.0,0.0,0.0,0.0,10.0,-0.234091859818,0.0154463343225,0.0105194863058,1.0,0.0,0.0,0.0,1.0,0.0,0.0,0.0,1.0,0.308957519531,-2.57704101563,10.0566870117,0.1,0.0,0.0,0.0,0.1,0.0,0.0,0.0,0.1
1446037202040823045,347,1446037202037728071,robocape,-5.93291547543,11.8330954334,-8.04611412075,0.0,10.0,0.0,0.0,0.0,10.0,0.0,0.0,0.0,10.0,0.0451405804768,0.015845808486,-0.127299100106,1.0,0.0,0.0,0.0,1.0,0.0,0.0,0.0,1.0,0.0455053710938,-0.195194091797,10.0926123047,0.1,0.0,0.0,0.0,0.1,0.0,0.0,0.0,0.1
1446037202074318004,348,1446037202070938110,robocape,-6.13261034821,11.8392233972,-7.99812321511,0.0,10.0,0.0,0.0,0.0,10.0,0.0,0.0,0.0,10.0,-0.114515926873,0.0117179087963,0.0181094954125,1.0,0.0,0.0,0.0,1.0,0.0,0.0,0.0,1.0,0.199984130859,-2.02019897461,10.0387243652,0.1,0.0,0.0,0.0,0.1,0.0,0.0,0.0,0.1
1446037202107294504,349,1446037202104211091,robocape,-5.88498566682,11.7948108495,-8.52453973387,0.0,10.0,0.0,0.0,0.0,10.0,0.0,0.0,0.0,10.0,0.181361270234,0.016911072922,-0.278300333913,1.0,0.0,0.0,0.0,1.0,0.0,0.0,0.0,1.0,0.0455053710938,-0.507744140625,10.0818347168,0.1,0.0,0.0,0.0,0.1,0.0,0.0,0.0,0.1
1446037202140716546,350,1446037202137648105,robocape,-6.03586760104,11.7619261978,-8.80479671567,0.0,10.0,0.0,0.0,0.0,10.0,0.0,0.0,0.0,10.0,-0.0540621701286,0.00985369603329,-0.152732288516,1.0,0.0,0.0,0.0,1.0,0.0,0.0,0.0,1.0,0.185614013672,1.32564331055,10.0411193848,0.1,0.0,0.0,0.0,0.1,0.0,0.0,0.0,0.1
1446037202174670337,351,1446037202171292066,robocape,-6.84146144758,11.7737006635,-8.38982743406,0.0,10.0,0.0,0.0,0.0,10.0,0.0,0.0,0.0,10.0,-0.471645829053,-0.00652474467069,0.204930245882,1.0,0.0,0.0,0.0,1.0,0.0,0.0,0.0,1.0,-0.0383203125,-0.997525634766,10.1261425781,0.1,0.0,0.0,0.0,0.1,0.0,0.0,0.0,0.1
1446037202207357004,352,1446037202204315900,robocape,-7.45651959095,11.7761361239,-8.12438069618,0.0,10.0,0.0,0.0,0.0,10.0,0.0,0.0,0.0,10.0,-0.356730428016,-0.00399474163512,0.128098048433,1.0,0.0,0.0,0.0,1.0,0.0,0.0,0.0,1.0,-0.156873779297,-3.38895263672,10.1237475586,0.1,0.0,0.0,0.0,0.1,0.0,0.0,0.0,0.1
1446037202240558421,353,1446037202237476110,robocape,-7.38348819689,11.806101703,-8.04871727442,0.0,10.0,0.0,0.0,0.0,10.0,0.0,0.0,0.0,10.0,0.0245010820287,0.0211721306661,0.0342216200075,1.0,0.0,0.0,0.0,1.0,0.0,0.0,0.0,1.0,0.880169677734,-2.53632568359,9.99202148437,0.1,0.0,0.0,0.0,0.1,0.0,0.0,0.0,0.1
1446037202274121046,354,1446037202270809888,robocape,-6.80769579122,11.8255146254,-8.32510272729,0.0,10.0,0.0,0.0,0.0,10.0,0.0,0.0,0.0,10.0,0.326237233535,0.0378168874791,-0.145541753573,1.0,0.0,0.0,0.0,1.0,0.0,0.0,0.0,1.0,0.277822265625,-1.71722900391,10.024354248,0.1,0.0,0.0,0.0,0.1,0.0,0.0,0.0,0.1
1446037202307644421,355,1446037202304356098,robocape,-6.51399433409,11.8658663087,-8.25533695533,0.0,10.0,0.0,0.0,0.0,10.0,0.0,0.0,0.0,10.0,0.141680169992,0.0268979270098,0.0318247750264,1.0,0.0,0.0,0.0,1.0,0.0,0.0,0.0,1.0,0.111368408203,-0.0347277832031,10.0878222656,0.1,0.0,0.0,0.0,0.1,0.0,0.0,0.0,0.1
1446037202340857796,356,1446037202337524890,robocape,-6.23056751778,11.8992307312,-8.19168132203,0.0,10.0,0.0,0.0,0.0,10.0,0.0,0.0,0.0,10.0,0.137152796139,0.0238352917562,0.0282295075548,1.0,0.0,0.0,0.0,1.0,0.0,0.0,0.0,1.0,0.0706530761719,-1.95313842773,9.98363891602,0.1,0.0,0.0,0.0,0.1,0.0,0.0,0.0,0.1
1446037202374125254,357,1446037202370786905,robocape,-5.75486430937,11.8837218768,-8.59864013921,0.0,10.0,0.0,0.0,0.0,10.0,0.0,0.0,0.0,10.0,0.288686662165,0.0247673981377,-0.215316574133,1.0,0.0,0.0,0.0,1.0,0.0,0.0,0.0,1.0,-0.105380859375,-0.265847167969,10.1165625,0.1,0.0,0.0,0.0,0.1,0.0,0.0,0.0,0.1
1446037202407426962,358,1446037202404243946,robocape,-5.58560590233,11.8746530384,-8.71141466682,0.0,10.0,0.0,0.0,0.0,10.0,0.0,0.0,0.0,10.0,0.0966727475699,0.0118510668509,-0.0651142886524,1.0,0.0,0.0,0.0,1.0,0.0,0.0,0.0,1.0,0.155676269531,1.56634277344,10.0099841309,0.1,0.0,0.0,0.0,0.1,0.0,0.0,0.0,0.1
1446037202443527796,359,1446037202440412998,robocape,-6.35897947221,11.8964496734,-8.29587926189,0.0,10.0,0.0,0.0,0.0,10.0,0.0,0.0,0.0,10.0,-0.454734756131,0.000266316109008,0.205995510318,1.0,0.0,0.0,0.0,1.0,0.0,0.0,0.0,1.0,0.192799072266,-0.0718505859375,10.0985998535,0.1,0.0,0.0,0.0,0.1,0.0,0.0,0.0,0.1
1446037202474394796,360,1446037202471118927,robocape,-6.93911419097,11.9176129945,-7.93867265433,0.0,10.0,0.0,0.0,0.0,10.0,0.0,0.0,0.0,10.0,-0.347941996419,0.00106526443603,0.176434422218,1.0,0.0,0.0,0.0,1.0,0.0,0.0,0.0,1.0,-0.0838256835938,-3.0308972168,10.0974023437,0.1,0.0,0.0,0.0,0.1,0.0,0.0,0.0,0.1
1446037202507619587,361,1446037202504545927,robocape,-6.90551099342,11.9316234452,-7.88760752129,0.0,10.0,0.0,0.0,0.0,10.0,0.0,0.0,0.0,10.0,0.0067910607797,0.0149137021044,0.0206394984481,1.0,0.0,0.0,0.0,1.0,0.0,0.0,0.0,1.0,0.789158935547,-2.96862670898,9.80401245117,0.1,0.0,0.0,0.0,0.1,0.0,0.0,0.0,0.1
1446037202540737379,362,1446037202537636995,robocape,-6.35723749259,11.9383118039,-8.27674774168,0.0,10.0,0.0,0.0,0.0,10.0,0.0,0.0,0.0,10.0,0.324506178826,0.0372842552611,-0.204131297555,1.0,0.0,0.0,0.0,1.0,0.0,0.0,0.0,1.0,0.382005615234,-1.95553344727,10.0303417969,0.1,0.0,0.0,0.0,0.1,0.0,0.0,0.0,0.1
1446037202574046504,363,1446037202570857048,robocape,-5.83483630191,11.9495045613,-8.46420049678,0.0,10.0,0.0,0.0,0.0,10.0,0.0,0.0,0.0,10.0,0.289751926601,0.0263652947918,-0.101333279478,1.0,0.0,0.0,0.0,1.0,0.0,0.0,0.0,1.0,-0.176033935547,0.882564697266,10.233918457,0.1,0.0,0.0,0.0,0.1,0.0,0.0,0.0,0.1
1446037202607323879,364,1446037202604204893,robocape,-5.98058469513,11.9736432163,-8.31293091827,0.0,10.0,0.0,0.0,0.0,10.0,0.0,0.0,0.0,10.0,-0.0972053797879,0.0154463343225,0.0716390333231,1.0,0.0,0.0,0.0,1.0,0.0,0.0,0.0,1.0,0.0562829589844,-1.36396362305,10.1057849121,0.1,0.0,0.0,0.0,0.1,0.0,0.0,0.0,0.1
1446037202640957546,365,1446037202637871980,robocape,-5.84126666642,11.96979318,-8.53998304501,0.0,10.0,0.0,0.0,0.0,10.0,0.0,0.0,0.0,10.0,0.0930774800983,0.0214384467751,-0.123171200416,1.0,0.0,0.0,0.0,1.0,0.0,0.0,0.0,1.0,0.343685302734,-0.835861816406,10.172845459,0.1,0.0,0.0,0.0,0.1,0.0,0.0,0.0,0.1
1446037202675365296,366,1446037202671116113,robocape,-6.2163736786,11.9951647746,-8.28491356549,0.0,10.0,0.0,0.0,0.0,10.0,0.0,0.0,0.0,10.0,-0.228898695692,0.0105194863058,0.124502780961,1.0,0.0,0.0,0.0,1.0,0.0,0.0,0.0,1.0,0.223934326172,-0.283809814453,10.1081799316,0.1,0.0,0.0,0.0,0.1,0.0,0.0,0.0,0.1
1446037202708805629,367,1446037202705693006,robocape,-6.64545582269,12.0416510368,-7.81071137157,0.0,10.0,0.0,0.0,0.0,10.0,0.0,0.0,0.0,10.0,-0.281362969167,0.00759000910673,0.237953443399,1.0,0.0,0.0,0.0,1.0,0.0,0.0,0.0,1.0,-0.0718505859375,-2.42735229492,9.95489868164,0.1,0.0,0.0,0.0,0.1,0.0,0.0,0.0,0.1
1446037202742002421,368,1446037202738889932,robocape,-6.58382565095,12.0719172895,-7.58463088545,0.0,10.0,0.0,0.0,0.0,10.0,0.0,0.0,0.0,10.0,0.00279631914458,0.0126500151779,0.111186975511,1.0,0.0,0.0,0.0,1.0,0.0,0.0,0.0,1.0,0.781973876953,-2.73151977539,9.886640625,0.1,0.0,0.0,0.0,0.1,0.0,0.0,0.0,0.1
1446037202775872004,369,1446037202772125959,robocape,-6.03457628638,12.0966542695,-7.85900173618,0.0,10.0,0.0,0.0,0.0,10.0,0.0,0.0,0.0,10.0,0.313320902248,0.0388821519152,-0.144210173028,1.0,0.0,0.0,0.0,1.0,0.0,0.0,0.0,1.0,0.45984375,-1.92679321289,10.0985998535,0.1,0.0,0.0,0.0,0.1,0.0,0.0,0.0,0.1
1446037202809522338,370,1446037202806257009,robocape,-5.56747415456,12.1400164455,-7.69461017812,0.0,10.0,0.0,0.0,0.0,10.0,0.0,0.0,0.0,10.0,0.22290658324,0.0235689756472,0.0806937810294,1.0,0.0,0.0,0.0,1.0,0.0,0.0,0.0,1.0,-0.335302734375,0.343685302734,10.2458935547,0.1,0.0,0.0,0.0,0.1,0.0,0.0,0.0,0.1
1446037202842699879,371,1446037202839432954,robocape,-5.38818656688,12.1912589572,-7.4552492303,0.0,10.0,0.0,0.0,0.0,10.0,0.0,0.0,0.0,10.0,0.0637827081074,0.0250337142467,0.119043300727,1.0,0.0,0.0,0.0,1.0,0.0,0.0,0.0,1.0,0.142503662109,-1.38072875977,10.2099682617,0.1,0.0,0.0,0.0,0.1,0.0,0.0,0.0,0.1
1446037202876582463,372,1446037202873003959,robocape,-5.20827621774,12.2353911929,-7.25264106258,0.0,10.0,0.0,0.0,0.0,10.0,0.0,0.0,0.0,10.0,0.068176923906,0.0235689756472,0.100001698932,1.0,0.0,0.0,0.0,1.0,0.0,0.0,0.0,1.0,0.350870361328,-1.36037109375,10.0614770508,0.1,0.0,0.0,0.0,0.1,0.0,0.0,0.0,0.1
1446037202909016213,373,1446037202905982971,robocape,-4.76885551058,12.2346829959,-7.4774258583,0.0,10.0,0.0,0.0,0.0,10.0,0.0,0.0,0.0,10.0,0.251668723012,0.0203731823391,-0.120508039326,1.0,0.0,0.0,0.0,1.0,0.0,0.0,0.0,1.0,-0.110170898438,-0.857416992188,10.0626745605,0.1,0.0,0.0,0.0,0.1,0.0,0.0,0.0,0.1
1446037202942565421,374,1446037202939523935,robocape,-4.66971127011,12.2435975904,-7.50651100082,0.0,10.0,0.0,0.0,0.0,10.0,0.0,0.0,0.0,10.0,0.051798483202,0.0167779148675,-0.0205063403936,1.0,0.0,0.0,0.0,1.0,0.0,0.0,0.0,1.0,0.0946032714844,0.817899169922,9.9213684082,0.1,0.0,0.0,0.0,0.1,0.0,0.0,0.0,0.1
1446037202975098213,375,1446037202971591949,robocape,-5.01050972473,12.2676549323,-7.2714157532,0.0,10.0,0.0,0.0,0.0,10.0,0.0,0.0,0.0,10.0,-0.208259197244,0.0133158054504,0.115048559091,1.0,0.0,0.0,0.0,1.0,0.0,0.0,0.0,1.0,0.322130126953,-0.875379638672,10.0686621094,0.1,0.0,0.0,0.0,0.1,0.0,0.0,0.0,0.1
1446037203012397129,376,1446037203008405923,robocape,-5.28237649358,12.3242473392,-7.15192423748,0.0,10.0,0.0,0.0,0.0,10.0,0.0,0.0,0.0,10.0,-0.159789665405,0.0355532005526,0.0575242795457,1.0,0.0,0.0,0.0,1.0,0.0,0.0,0.0,1.0,0.207169189453,-1.20110229492,10.9260791016,0.1,0.0,0.0,0.0,0.1,0.0,0.0,0.0,0.1
1446037203041934879,377,1446037203038613080,robocape,-5.21849317098,12.3669595212,-7.36568612755,0.0,10.0,0.0,0.0,0.0,10.0,0.0,0.0,0.0,10.0,0.0532632218016,0.0442084740953,-0.113184346328,1.0,0.0,0.0,0.0,1.0,0.0,0.0,0.0,1.0,-2.682421875,-1.65615600586,11.1440258789,0.1,0.0,0.0,0.0,0.1,0.0,0.0,0.0,0.1
1446037203079242463,378,1446037203075084924,robocape,-5.29908399047,12.4383055371,-7.55570723144,0.0,10.0,0.0,0.0,0.0,10.0,0.0,0.0,0.0,10.0,-0.0251668723012,0.0585895439817,-0.100134856987,1.0,0.0,0.0,0.0,1.0,0.0,0.0,0.0,1.0,-4.12661865234,-0.905317382813,11.1571984863,0.1,0.0,0.0,0.0,0.1,0.0,0.0,0.0,0.1
1446037203112464504,379,1446037203108848094,robocape,-5.37713642348,12.1635773368,-7.75920929052,0.0,10.0,0.0,0.0,0.0,10.0,0.0,0.0,0.0,10.0,-0.0218379209386,-0.123304358471,-0.122904884307,1.0,0.0,0.0,0.0,1.0,0.0,0.0,0.0,1.0,-8.43525878906,-0.399968261719,10.7967480469,0.1,0.0,0.0,0.0,0.1,0.0,0.0,0.0,0.1
1446037203145056254,380,1446037203140923976,robocape,-5.64690168488,12.3031301814,-8.22074304122,0.0,10.0,0.0,0.0,0.0,10.0,0.0,0.0,0.0,10.0,-0.0953411670248,0.109722236911,-0.236621862854,1.0,0.0,0.0,0.0,1.0,0.0,0.0,0.0,1.0,-9.09029663086,-0.637075195313,12.0038378906,0.1,0.0,0.0,0.0,0.1,0.0,0.0,0.0,0.1
1446037203176531254,381,1446037203173319101,robocape,-6.00937070429,12.1841695133,-8.78364616385,0.0,10.0,0.0,0.0,0.0,10.0,0.0,0.0,0.0,10.0,-0.132625422286,-0.0191747598486,-0.301602993451,1.0,0.0,0.0,0.0,1.0,0.0,0.0,0.0,1.0,-10.0878222656,-0.621507568359,9.53098022461,0.1,0.0,0.0,0.0,0.1,0.0,0.0,0.0,0.1
1446037203212670963,382,1446037203209182024,robocape,-6.54257544012,12.5104479705,-9.4554165511,0.0,10.0,0.0,0.0,0.0,10.0,0.0,0.0,0.0,10.0,-0.211454990552,0.225303428221,-0.334892507077,1.0,0.0,0.0,0.0,1.0,0.0,0.0,0.0,1.0,-7.10003540039,-1.01429077148,12.2361547852,0.1,0.0,0.0,0.0,0.1,0.0,0.0,0.0,0.1
1446037203245040254,383,1446037203241667985,robocape,-6.78270019908,12.3370283494,-10.4940794126,0.0,10.0,0.0,0.0,0.0,10.0,0.0,0.0,0.0,10.0,-0.015579492377,-0.0123836990689,-0.55020908121,1.0,0.0,0.0,0.0,1.0,0.0,0.0,0.0,1.0,-7.97541503906,-1.69806884766,9.2351953125,0.1,0.0,0.0,0.0,0.1,0.0,0.0,0.0,0.1
1446037203279335046,384,1446037203275981903,robocape,-6.86220695525,12.3525567612,-11.5875190479,0.0,10.0,0.0,0.0,0.0,10.0,0.0,0.0,0.0,10.0,0.0732369299772,0.0925448478803,-0.569250683004,1.0,0.0,0.0,0.0,1.0,0.0,0.0,0.0,1.0,-5.44028686523,-0.0526904296875,12.9702282715,0.1,0.0,0.0,0.0,0.1,0.0,0.0,0.0,0.1
1446037203312128213,385,1446037203308840990,robocape,-6.49327244363,11.9254489816,-12.8157347296,0.0,10.0,0.0,0.0,0.0,10.0,0.0,0.0,0.0,10.0,0.322508808009,-0.133823844776,-0.664858166138,1.0,0.0,0.0,0.0,1.0,0.0,0.0,0.0,1.0,-9.23280029297,-2.46327758789,9.56930053711,0.1,0.0,0.0,0.0,0.1,0.0,0.0,0.0,0.1
1446037203344954921,386,1446037203341715097,robocape,-5.50451781611,11.9665473559,-13.916635958,0.0,10.0,0.0,0.0,0.0,10.0,0.0,0.0,0.0,10.0,0.631968126676,0.0969390636789,-0.575775427675,1.0,0.0,0.0,0.0,1.0,0.0,0.0,0.0,1.0,-8.49633178711,-1.76153686523,12.2110070801,0.1,0.0,0.0,0.0,0.1,0.0,0.0,0.0,0.1
1446037203377610713,387,1446037203374376058,robocape,-3.67325317941,12.0634960899,-15.0080743788,0.0,10.0,0.0,0.0,0.0,10.0,0.0,0.0,0.0,10.0,1.07538444817,0.111852765783,-0.57178068604,1.0,0.0,0.0,0.0,1.0,0.0,0.0,0.0,1.0,-6.36596191406,-2.63931152344,8.86636230469,0.1,0.0,0.0,0.0,0.1,0.0,0.0,0.0,0.1
1446037203410307004,388,1446037203407004117,robocape,-0.301823167917,12.1444485497,-16.4672167561,0.0,10.0,0.0,0.0,0.0,10.0,0.0,0.0,0.0,10.0,1.92866126144,0.0882837901361,-0.770851977523,1.0,0.0,0.0,0.0,1.0,0.0,0.0,0.0,1.0,-3.51828369141,-2.56027587891,10.9176965332,0.1,0.0,0.0,0.0,0.1,0.0,0.0,0.0,0.1
1446037203446327130,389,1446037203442609071,robocape,4.36028827889,12.0513690039,-17.9265960663,0.0,10.0,0.0,0.0,0.0,10.0,0.0,0.0,0.0,10.0,2.61682208711,-0.0490021640575,-0.784700415192,1.0,0.0,0.0,0.0,1.0,0.0,0.0,0.0,1.0,-7.12877563477,-1.88488037109,7.51197875977,0.1,0.0,0.0,0.0,0.1,0.0,0.0,0.0,0.1
1446037203476782505,390,1446037203473558902,robocape,10.9039896576,12.1893776053,-18.8407755727,0.0,10.0,0.0,0.0,0.0,10.0,0.0,0.0,0.0,10.0,3.57569323759,0.048869006003,-0.541287491559,1.0,0.0,0.0,0.0,1.0,0.0,0.0,0.0,1.0,-7.41737548828,-2.02259399414,7.77303588867,0.1,0.0,0.0,0.0,0.1,0.0,0.0,0.0,0.1
1446037203511636005,391,1446037203508358001,robocape,18.6551250585,12.3065654164,-18.2474640471,0.0,10.0,0.0,0.0,0.0,10.0,0.0,0.0,0.0,10.0,4.09847175958,0.188951279341,0.183092324943,1.0,0.0,0.0,0.0,1.0,0.0,0.0,0.0,1.0,-7.20302124023,-1.55676269531,5.14210693359,0.1,0.0,0.0,0.0,0.1,0.0,0.0,0.0,0.1
