%time,field.header.seq,field.header.stamp,field.header.frame_id,field.orientation.x,field.orientation.y,field.orientation.z,field.orientation.w,field.orientation_covariance0,field.orientation_covariance1,field.orientation_covariance2,field.orientation_covariance3,field.orientation_covariance4,field.orientation_covariance5,field.orientation_covariance6,field.orientation_covariance7,field.orientation_covariance8,field.angular_velocity.x,field.angular_velocity.y,field.angular_velocity.z,field.angular_velocity_covariance0,field.angular_velocity_covariance1,field.angular_velocity_covariance2,field.angular_velocity_covariance3,field.angular_velocity_covariance4,field.angular_velocity_covariance5,field.angular_velocity_covariance6,field.angular_velocity_covariance7,field.angular_velocity_covariance8,field.linear_acceleration.x,field.linear_acceleration.y,field.linear_acceleration.z,field.linear_acceleration_covariance0,field.linear_acceleration_covariance1,field.linear_acceleration_covariance2,field.linear_acceleration_covariance3,field.linear_acceleration_covariance4,field.linear_acceleration_covariance5,field.linear_acceleration_covariance6,field.linear_acceleration_covariance7,field.linear_acceleration_covariance8
1452009323105413933,1,1452009323087198019,robocape,14.5945798271,-4.04698539574,-26.091088745,0.0,10.0,0.0,0.0,0.0,10.0,0.0,0.0,0.0,10.0,0.00452737385313,0.0126500151779,0.00412789968962,1.0,0.0,0.0,0.0,1.0,0.0,0.0,0.0,1.0,-0.0718505859375,0.261057128906,10.039921875,0.1,0.0,0.0,0.0,0.1,0.0,0.0,0.0,0.1
1452009323126816224,2,1452009323122879981,robocape,14.5642756023,-4.02464261726,-26.0145432997,0.0,10.0,0.0,0.0,0.0,10.0,0.0,0.0,0.0,10.0,0.00386158358061,0.0122505410144,0.00372842552611,1.0,0.0,0.0,0.0,1.0,0.0,0.0,0.0,1.0,-0.0946032714844,0.267044677734,10.0530944824,0.1,0.0,0.0,0.0,0.1,0.0,0.0,0.0,0.1
1452009323154495891,3,1452009323151248931,robocape,14.5328900323,-4.00261744555,-25.9382048106,0.0,10.0,0.0,0.0,0.0,10.0,0.0,0.0,0.0,10.0,0.0031957933081,0.0121173829599,0.00386158358061,1.0,0.0,0.0,0.0,1.0,0.0,0.0,0.0,1.0,-0.076640625,0.263452148438,10.0590820312,0.1,0.0,0.0,0.0,0.1,0.0,0.0,0.0,0.1
1452009323188199558,4,1452009323184484004,robocape,14.5016644988,-3.98097217653,-25.8618046418,0.0,10.0,0.0,0.0,0.0,10.0,0.0,0.0,0.0,10.0,0.0031957933081,0.0119842249054,0.00412789968962,1.0,0.0,0.0,0.0,1.0,0.0,0.0,0.0,1.0,-0.0910107421875,0.258662109375,10.0483044434,0.1,0.0,0.0,0.0,0.1,0.0,0.0,0.0,0.1
1452009323222290683,5,1452009323219101905,robocape,14.470375378,-3.95926879031,-25.7859887658,0.0,10.0,0.0,0.0,0.0,10.0,0.0,0.0,0.0,10.0,0.00306263525359,0.0119842249054,0.00399474163512,1.0,0.0,0.0,0.0,1.0,0.0,0.0,0.0,1.0,-0.086220703125,0.256267089844,10.0590820312,0.1,0.0,0.0,0.0,0.1,0.0,0.0,0.0,0.1
1452009323255338808,6,1452009323252173900,robocape,14.4395072293,-3.93708029556,-25.7103869104,0.0,10.0,0.0,0.0,0.0,10.0,0.0,0.0,0.0,10.0,0.0031957933081,0.0122505410144,0.00399474163512,1.0,0.0,0.0,0.0,1.0,0.0,0.0,0.0,1.0,-0.067060546875,0.256267089844,10.0818347168,0.1,0.0,0.0,0.0,0.1,0.0,0.0,0.0,0.1
1452009323289002266,7,1452009323285440921,robocape,14.4095529182,-3.91496291511,-25.6348697446,0.0,10.0,0.0,0.0,0.0,10.0,0.0,0.0,0.0,10.0,0.00359526747161,0.0122505410144,0.00412789968962,1.0,0.0,0.0,0.0,1.0,0.0,0.0,0.0,1.0,-0.0634680175781,0.251477050781,10.0794396973,0.1,0.0,0.0,0.0,0.1,0.0,0.0,0.0,0.1
1452009323322660808,8,1452009323319557905,robocape,14.3802593594,-3.89291697827,-25.5594411799,0.0,10.0,0.0,0.0,0.0,10.0,0.0,0.0,0.0,10.0,0.00386158358061,0.0122505410144,0.00426105774413,1.0,0.0,0.0,0.0,1.0,0.0,0.0,0.0,1.0,-0.0874182128906,0.263452148438,10.0530944824,0.1,0.0,0.0,0.0,0.1,0.0,0.0,0.0,0.1
1452009323354140849,9,1452009323351073980,robocape,14.3496319663,-3.87063357246,-25.4843256309,0.0,10.0,0.0,0.0,0.0,10.0,0.0,0.0,0.0,10.0,0.00306263525359,0.0123836990689,0.00426105774413,1.0,0.0,0.0,0.0,1.0,0.0,0.0,0.0,1.0,-0.0898132324219,0.270637207031,10.0578845215,0.1,0.0,0.0,0.0,0.1,0.0,0.0,0.0,0.1
1452009323387182391,10,1452009323383615016,robocape,14.3179374144,-3.84854073831,-25.4098691228,0.0,10.0,0.0,0.0,0.0,10.0,0.0,0.0,0.0,10.0,0.00239684498107,0.0122505410144,0.00412789968962,1.0,0.0,0.0,0.0,1.0,0.0,0.0,0.0,1.0,-0.086220703125,0.281414794922,10.0411193848,0.1,0.0,0.0,0.0,0.1,0.0,0.0,0.0,0.1
1452009323421181391,11,1452009323418020963,robocape,14.2866769814,-3.82663791857,-25.3360299867,0.0,10.0,0.0,0.0,0.0,10.0,0.0,0.0,0.0,10.0,0.00253000303558,0.0121173829599,0.00399474163512,1.0,0.0,0.0,0.0,1.0,0.0,0.0,0.0,1.0,-0.0790356445313,0.257464599609,10.0626745605,0.1,0.0,0.0,0.0,0.1,0.0,0.0,0.0,0.1
1452009323454649224,12,1452009323451518058,robocape,14.2548479843,-3.80492550289,-25.2628299887,0.0,10.0,0.0,0.0,0.0,10.0,0.0,0.0,0.0,10.0,0.00213052887206,0.0119842249054,0.00386158358061,1.0,0.0,0.0,0.0,1.0,0.0,0.0,0.0,1.0,-0.0934057617188,0.257464599609,10.080637207,0.1,0.0,0.0,0.0,0.1,0.0,0.0,0.0,0.1
1452009323486674766,13,1452009323483659982,robocape,14.222964032,-3.78383230653,-25.190606123,0.0,10.0,0.0,0.0,0.0,10.0,0.0,0.0,0.0,10.0,0.00199737081756,0.0115847507418,0.00359526747161,1.0,0.0,0.0,0.0,1.0,0.0,0.0,0.0,1.0,-0.0790356445313,0.263452148438,10.0566870117,0.1,0.0,0.0,0.0,0.1,0.0,0.0,0.0,0.1
1452009323521548599,14,1452009323518146038,robocape,14.1924755508,-3.76237869434,-25.1180806291,0.0,10.0,0.0,0.0,0.0,10.0,0.0,0.0,0.0,10.0,0.00266316109008,0.0118510668509,0.00386158358061,1.0,0.0,0.0,0.0,1.0,0.0,0.0,0.0,1.0,-0.0754431152344,0.250279541016,10.0483044434,0.1,0.0,0.0,0.0,0.1,0.0,0.0,0.0,0.1
1452009323554029641,15,1452009323550929069,robocape,14.1641438074,-3.73994920218,-25.0455847678,0.0,10.0,0.0,0.0,0.0,10.0,0.0,0.0,0.0,10.0,0.00372842552611,0.0123836990689,0.00386158358061,1.0,0.0,0.0,0.0,1.0,0.0,0.0,0.0,1.0,-0.0802331542969,0.237106933594,10.0435144043,0.1,0.0,0.0,0.0,0.1,0.0,0.0,0.0,0.1
1452009323587142724,16,1452009323584042072,robocape,14.137446676,-3.71691791183,-24.9727182752,0.0,10.0,0.0,0.0,0.0,10.0,0.0,0.0,0.0,10.0,0.00452737385313,0.0127831732324,0.00412789968962,1.0,0.0,0.0,0.0,1.0,0.0,0.0,0.0,1.0,-0.0682580566406,0.256267089844,10.0447119141,0.1,0.0,0.0,0.0,0.1,0.0,0.0,0.0,0.1
1452009323619897599,17,1452009323616647958,robocape,14.1111483269,-3.69316222865,-24.8999816408,0.0,10.0,0.0,0.0,0.0,10.0,0.0,0.0,0.0,10.0,0.00466053190764,0.0131826473959,0.00412789968962,1.0,0.0,0.0,0.0,1.0,0.0,0.0,0.0,1.0,-0.086220703125,0.267044677734,10.0471069336,0.1,0.0,0.0,0.0,0.1,0.0,0.0,0.0,0.1
1452009323652026516,18,1452009323648932933,robocape,14.084511149,-3.67040606874,-24.8278036856,0.0,10.0,0.0,0.0,0.0,10.0,0.0,0.0,0.0,10.0,0.00439421579863,0.0126500151779,0.00412789968962,1.0,0.0,0.0,0.0,1.0,0.0,0.0,0.0,1.0,-0.0838256835938,0.270637207031,10.0483044434,0.1,0.0,0.0,0.0,0.1,0.0,0.0,0.0,0.1
1452009323685943016,19,1452009323682934045,robocape,14.0567708154,-3.64821705089,-24.7558469113,0.0,10.0,0.0,0.0,0.0,10.0,0.0,0.0,0.0,10.0,0.00372842552611,0.0123836990689,0.00426105774413,1.0,0.0,0.0,0.0,1.0,0.0,0.0,0.0,1.0,-0.0886157226563,0.263452148438,10.0459094238,0.1,0.0,0.0,0.0,0.1,0.0,0.0,0.0,0.1
1452009323720091808,20,1452009323716986894,robocape,14.0274487955,-3.62671548034,-24.684651133,0.0,10.0,0.0,0.0,0.0,10.0,0.0,0.0,0.0,10.0,0.00279631914458,0.0119842249054,0.00412789968962,1.0,0.0,0.0,0.0,1.0,0.0,0.0,0.0,1.0,-0.0826281738281,0.259859619141,10.0279467773,0.1,0.0,0.0,0.0,0.1,0.0,0.0,0.0,0.1
1452009323751587100,21,1452009323748291969,robocape,13.9973117763,-3.60528383899,-24.6145483661,0.0,10.0,0.0,0.0,0.0,10.0,0.0,0.0,0.0,10.0,0.00226368692657,0.0118510668509,0.00372842552611,1.0,0.0,0.0,0.0,1.0,0.0,0.0,0.0,1.0,-0.0850231933594,0.269439697266,10.080637207,0.1,0.0,0.0,0.0,0.1,0.0,0.0,0.0,0.1
1452009323784751683,22,1452009323781547069,robocape,13.9658367965,-3.5845994557,-24.5449574929,0.0,10.0,0.0,0.0,0.0,10.0,0.0,0.0,0.0,10.0,0.00146473859954,0.0114515926873,0.00372842552611,1.0,0.0,0.0,0.0,1.0,0.0,0.0,0.0,1.0,-0.09580078125,0.276624755859,10.075847168,0.1,0.0,0.0,0.0,0.1,0.0,0.0,0.0,0.1
1452009323818109433,23,1452009323815026044,robocape,13.9320514983,-3.56447582822,-24.4766068801,0.0,10.0,0.0,0.0,0.0,10.0,0.0,0.0,0.0,10.0,0.000133158054504,0.0110521185238,0.0033289513626,1.0,0.0,0.0,0.0,1.0,0.0,0.0,0.0,1.0,-0.0850231933594,0.265847167969,10.0662670898,0.1,0.0,0.0,0.0,0.1,0.0,0.0,0.0,0.1
1452009323850849475,24,1452009323847701072,robocape,13.895682867,-3.54509531709,-24.4087920717,0.0,10.0,0.0,0.0,0.0,10.0,0.0,0.0,0.0,10.0,-0.00133158054504,0.0106526443603,0.0033289513626,1.0,0.0,0.0,0.0,1.0,0.0,0.0,0.0,1.0,-0.0946032714844,0.269439697266,10.0722546387,0.1,0.0,0.0,0.0,0.1,0.0,0.0,0.0,0.1
1452009323884149891,25,1452009323881017923,robocape,13.86072808,-3.52497769286,-24.3410661451,0.0,10.0,0.0,0.0,0.0,10.0,0.0,0.0,0.0,10.0,-0.00066579027252,0.0110521185238,0.0033289513626,1.0,0.0,0.0,0.0,1.0,0.0,0.0,0.0,1.0,-0.0790356445313,0.235909423828,10.0674645996,0.1,0.0,0.0,0.0,0.1,0.0,0.0,0.0,0.1
1452009323917818683,26,1452009323914557933,robocape,13.8296472988,-3.50387681867,-24.2723082806,0.0,10.0,0.0,0.0,0.0,10.0,0.0,0.0,0.0,10.0,0.00133158054504,0.0117179087963,0.00386158358061,1.0,0.0,0.0,0.0,1.0,0.0,0.0,0.0,1.0,-0.0694555664063,0.222736816406,10.0782421875,0.1,0.0,0.0,0.0,0.1,0.0,0.0,0.0,0.1
1452009323950861600,27,1452009323947767019,robocape,13.8029566916,-3.48136723477,-24.2031561675,0.0,10.0,0.0,0.0,0.0,10.0,0.0,0.0,0.0,10.0,0.00359526747161,0.0125168571234,0.00399474163512,1.0,0.0,0.0,0.0,1.0,0.0,0.0,0.0,1.0,-0.0790356445313,0.234711914063,10.0686621094,0.1,0.0,0.0,0.0,0.1,0.0,0.0,0.0,0.1
1452009323983864100,28,1452009323980734109,robocape,13.7801319884,-3.45806861863,-24.1332630214,0.0,10.0,0.0,0.0,0.0,10.0,0.0,0.0,0.0,10.0,0.00559263828917,0.0130494893414,0.00439421579863,1.0,0.0,0.0,0.0,1.0,0.0,0.0,0.0,1.0,-0.0802331542969,0.219144287109,10.055489502,0.1,0.0,0.0,0.0,0.1,0.0,0.0,0.0,0.1
1452009324017546558,29,1452009324014247894,robocape,13.7616630871,-3.43373821554,-24.0625575895,0.0,10.0,0.0,0.0,0.0,10.0,0.0,0.0,0.0,10.0,0.00785632521573,0.0137152796139,0.00479368996214,1.0,0.0,0.0,0.0,1.0,0.0,0.0,0.0,1.0,-0.0969982910156,0.237106933594,10.0471069336,0.1,0.0,0.0,0.0,0.1,0.0,0.0,0.0,0.1
1452009324056669433,30,1452009324047606945,robocape,13.7435645313,-3.4086911847,-23.9919566806,0.0,10.0,0.0,0.0,0.0,10.0,0.0,0.0,0.0,10.0,0.00798948327024,0.0141147537774,0.00479368996214,1.0,0.0,0.0,0.0,1.0,0.0,0.0,0.0,1.0,-0.107775878906,0.255069580078,10.0578845215,0.1,0.0,0.0,0.0,0.1,0.0,0.0,0.0,0.1
1452009324085782475,31,1452009324082582950,robocape,13.7248715467,-3.38447284876,-23.9225937534,0.0,10.0,0.0,0.0,0.0,10.0,0.0,0.0,0.0,10.0,0.00759000910673,0.0135821215594,0.00439421579863,1.0,0.0,0.0,0.0,1.0,0.0,0.0,0.0,1.0,-0.101788330078,0.279019775391,10.0566870117,0.1,0.0,0.0,0.0,0.1,0.0,0.0,0.0,0.1
1452009324117692933,32,1452009324114522933,robocape,13.7063865122,-3.35992016844,-23.8559272777,0.0,10.0,0.0,0.0,0.0,10.0,0.0,0.0,0.0,10.0,0.00759000910673,0.0134489635049,0.00306263525359,1.0,0.0,0.0,0.0,1.0,0.0,0.0,0.0,1.0,-0.0898132324219,0.196391601563,10.0734521484,0.1,0.0,0.0,0.0,0.1,0.0,0.0,0.0,0.1
1452009324150712683,33,1452009324147722005,robocape,13.7910668729,-3.32013169881,-23.8509127108,0.0,10.0,0.0,0.0,0.0,10.0,0.0,0.0,0.0,10.0,0.0612527050718,0.0129163312869,-0.032756881408,1.0,0.0,0.0,0.0,1.0,0.0,0.0,0.0,1.0,-0.293389892578,0.384400634766,10.0016015625,0.1,0.0,0.0,0.0,0.1,0.0,0.0,0.0,0.1
1452009324184041808,34,1452009324180902957,robocape,13.8247408422,-3.29537385332,-23.848764674,0.0,10.0,0.0,0.0,0.0,10.0,0.0,0.0,0.0,10.0,0.0342216200075,0.00506000607115,-0.0318247750264,1.0,0.0,0.0,0.0,1.0,0.0,0.0,0.0,1.0,-0.105380859375,0.752036132813,9.90220825195,0.1,0.0,0.0,0.0,0.1,0.0,0.0,0.0,0.1
1452009324217725308,35,1452009324214718103,robocape,13.7807687655,-3.2896124105,-23.8418620451,0.0,10.0,0.0,0.0,0.0,10.0,0.0,0.0,0.0,10.0,-0.00692421883421,-0.00372842552611,-0.0259658206283,1.0,0.0,0.0,0.0,1.0,0.0,0.0,0.0,1.0,-0.179626464844,0.652642822266,9.87227050781,0.1,0.0,0.0,0.0,0.1,0.0,0.0,0.0,0.1
1452009324250841475,36,1452009324247786998,robocape,13.6596241426,-3.30776471211,-23.8456765335,0.0,10.0,0.0,0.0,0.0,10.0,0.0,0.0,0.0,10.0,-0.0482032157304,-0.0170442309765,-0.0276968753368,1.0,0.0,0.0,0.0,1.0,0.0,0.0,0.0,1.0,-0.136516113281,0.603544921875,9.86867797852,0.1,0.0,0.0,0.0,0.1,0.0,0.0,0.0,0.1
1452009324284086933,37,1452009324280944108,robocape,13.4338551615,-3.34945641258,-23.814775313,0.0,10.0,0.0,0.0,0.0,10.0,0.0,0.0,0.0,10.0,-0.103330650295,-0.0242347659197,-0.00506000607115,1.0,0.0,0.0,0.0,1.0,0.0,0.0,0.0,1.0,-0.152083740234,0.724493408203,9.95010864258,0.1,0.0,0.0,0.0,0.1,0.0,0.0,0.0,0.1
1452009324318629516,38,1452009324315618991,robocape,13.1032883852,-3.40975663022,-23.707393541,0.0,10.0,0.0,0.0,0.0,10.0,0.0,0.0,0.0,10.0,-0.157792294587,-0.0238352917562,0.0391484680242,1.0,0.0,0.0,0.0,1.0,0.0,0.0,0.0,1.0,0.354462890625,-0.0514929199219,10.2051782227,0.1,0.0,0.0,0.0,0.1,0.0,0.0,0.0,0.1
1452009324350649558,39,1452009324347594022,robocape,12.7527651181,-3.46196762428,-23.5470735656,0.0,10.0,0.0,0.0,0.0,10.0,0.0,0.0,0.0,10.0,-0.16764599062,-0.0134489635049,0.0667121853065,1.0,0.0,0.0,0.0,1.0,0.0,0.0,0.0,1.0,0.492176513672,-0.560434570312,10.4039648437,0.1,0.0,0.0,0.0,0.1,0.0,0.0,0.0,0.1
1452009324383721683,40,1452009324380671977,robocape,12.6106792585,-3.46849567645,-23.4669337327,0.0,10.0,0.0,0.0,0.0,10.0,0.0,0.0,0.0,10.0,-0.0591221761998,-0.00066579027252,0.016644756813,1.0,0.0,0.0,0.0,1.0,0.0,0.0,0.0,1.0,0.399968261719,-0.634680175781,10.4830004883,0.1,0.0,0.0,0.0,0.1,0.0,0.0,0.0,0.1
1452009324417674267,41,1452009324414293050,robocape,12.5715795112,-3.4448342886,-23.4032933936,0.0,10.0,0.0,0.0,0.0,10.0,0.0,0.0,0.0,10.0,-0.00506000607115,0.0125168571234,0.0034621094171,1.0,0.0,0.0,0.0,1.0,0.0,0.0,0.0,1.0,0.152083740234,-0.44068359375,10.3416943359,0.1,0.0,0.0,0.0,0.1,0.0,0.0,0.0,0.1
1452009324450552725,42,1452009324447455883,robocape,12.5953762546,-3.40013847879,-23.3318645963,0.0,10.0,0.0,0.0,0.0,10.0,0.0,0.0,0.0,10.0,0.0283626656093,0.0241016078652,0.00466053190764,1.0,0.0,0.0,0.0,1.0,0.0,0.0,0.0,1.0,0.0119750976563,-0.340092773437,10.2746337891,0.1,0.0,0.0,0.0,0.1,0.0,0.0,0.0,0.1
1452009324483751767,43,1452009324480679035,robocape,12.6745683538,-3.34098414795,-23.2506137342,0.0,10.0,0.0,0.0,0.0,10.0,0.0,0.0,0.0,10.0,0.0579237537092,0.0326237233535,0.00772316716123,1.0,0.0,0.0,0.0,1.0,0.0,0.0,0.0,1.0,-0.102985839844,-0.283809814453,10.2866088867,0.1,0.0,0.0,0.0,0.1,0.0,0.0,0.0,0.1
1452009324517910308,44,1452009324514389991,robocape,12.8020851636,-3.27046148589,-23.1689711475,0.0,10.0,0.0,0.0,0.0,10.0,0.0,0.0,0.0,10.0,0.0836232582285,0.0384826777516,0.00612527050718,1.0,0.0,0.0,0.0,1.0,0.0,0.0,0.0,1.0,-0.0886157226563,-0.234711914063,10.2782263184,0.1,0.0,0.0,0.0,0.1,0.0,0.0,0.0,0.1
1452009324550655517,45,1452009324547497987,robocape,12.9535368548,-3.18624931853,-23.0602492393,0.0,10.0,0.0,0.0,0.0,10.0,0.0,0.0,0.0,10.0,0.0969390636789,0.048869006003,0.0186421276306,1.0,0.0,0.0,0.0,1.0,0.0,0.0,0.0,1.0,0.102985839844,-0.390388183594,10.3117565918,0.1,0.0,0.0,0.0,0.1,0.0,0.0,0.0,0.1
1452009324583898808,46,1452009324580696105,robocape,13.1770080285,-3.08803809037,-22.960021531,0.0,10.0,0.0,0.0,0.0,10.0,0.0,0.0,0.0,10.0,0.135155425322,0.0549942765101,0.0115847507418,1.0,0.0,0.0,0.0,1.0,0.0,0.0,0.0,1.0,-0.464633789063,-0.0658630371094,10.1441052246,0.1,0.0,0.0,0.0,0.1,0.0,0.0,0.0,0.1
1452009324618135683,47,1452009324614470958,robocape,13.4874905774,-2.98097607513,-22.9441971935,0.0,10.0,0.0,0.0,0.0,10.0,0.0,0.0,0.0,10.0,0.180296005798,0.048869006003,-0.0355532005526,1.0,0.0,0.0,0.0,1.0,0.0,0.0,0.0,1.0,-0.473016357422,0.717308349609,9.8135925293,0.1,0.0,0.0,0.0,0.1,0.0,0.0,0.0,0.1
1452009324650856225,48,1452009324647464990,robocape,13.736858543,-2.90381685722,-22.9124340023,0.0,10.0,0.0,0.0,0.0,10.0,0.0,0.0,0.0,10.0,0.148604388826,0.0358195166616,-0.0231695014837,1.0,0.0,0.0,0.0,1.0,0.0,0.0,0.0,1.0,0.00718505859375,1.36995117188,9.72617431641,0.1,0.0,0.0,0.0,0.1,0.0,0.0,0.0,0.1
1452009324684146975,49,1452009324680809974,robocape,13.7537238721,-2.88253089681,-22.8944333425,0.0,10.0,0.0,0.0,0.0,10.0,0.0,0.0,0.0,10.0,0.0251668723012,0.00625842856169,-0.0209058145571,1.0,0.0,0.0,0.0,1.0,0.0,0.0,0.0,1.0,-0.610729980469,1.51005981445,9.47230224609,0.1,0.0,0.0,0.0,0.1,0.0,0.0,0.0,0.1
1452009324718040517,50,1452009324714133024,robocape,13.5619857691,-2.91671730422,-22.8788971617,0.0,10.0,0.0,0.0,0.0,10.0,0.0,0.0,0.0,10.0,-0.0857537871006,-0.0217047628841,-0.0127831732324,1.0,0.0,0.0,0.0,1.0,0.0,0.0,0.0,1.0,-0.205971679688,1.22145996094,9.68066894531,0.1,0.0,0.0,0.0,0.1,0.0,0.0,0.0,0.1
1452009324751633850,51,1452009324748318910,robocape,13.2257570939,-2.98013487444,-22.8348633739,0.0,10.0,0.0,0.0,0.0,10.0,0.0,0.0,0.0,10.0,-0.16231966844,-0.0326237233535,0.00759000910673,1.0,0.0,0.0,0.0,1.0,0.0,0.0,0.0,1.0,-0.0730480957031,0.508941650391,9.91059082031,0.1,0.0,0.0,0.0,0.1,0.0,0.0,0.0,0.1
1452009324783850225,52,1452009324780766963,robocape,12.8737142493,-3.05513510042,-22.7775657172,0.0,10.0,0.0,0.0,0.0,10.0,0.0,0.0,0.0,10.0,-0.170841783929,-0.0370179391521,0.016112124595,1.0,0.0,0.0,0.0,1.0,0.0,0.0,0.0,1.0,0.0658630371094,-0.202379150391,10.1860180664,0.1,0.0,0.0,0.0,0.1,0.0,0.0,0.0,0.1
1452009324818053642,53,1452009324814461946,robocape,12.6150360231,-3.10895635217,-22.7456629106,0.0,10.0,0.0,0.0,0.0,10.0,0.0,0.0,0.0,10.0,-0.12210593598,-0.0296942461544,-0.000932106381528,1.0,0.0,0.0,0.0,1.0,0.0,0.0,0.0,1.0,0.372425537109,-0.0598754882813,10.2686462402,0.1,0.0,0.0,0.0,0.1,0.0,0.0,0.0,0.1
1452009324850679725,54,1452009324847642898,robocape,12.4065339653,-3.14401087837,-22.7032102456,0.0,10.0,0.0,0.0,0.0,10.0,0.0,0.0,0.0,10.0,-0.0956074831338,-0.0190416017941,0.00199737081756,1.0,0.0,0.0,0.0,1.0,0.0,0.0,0.0,1.0,0.349672851562,0.0215551757813,10.208770752,0.1,0.0,0.0,0.0,0.1,0.0,0.0,0.0,0.1
1452009324884010058,55,1452009324880892038,robocape,12.237936377,-3.18584165417,-22.6467312355,0.0,10.0,0.0,0.0,0.0,10.0,0.0,0.0,0.0,10.0,-0.0744353524677,-0.0210389726116,0.00985369603329,1.0,0.0,0.0,0.0,1.0,0.0,0.0,0.0,1.0,-0.250279541016,-0.274229736328,10.4398901367,0.1,0.0,0.0,0.0,0.1,0.0,0.0,0.0,0.1
1452009324917859475,56,1452009324914185047,robocape,12.1330505169,-3.18966000799,-22.5968208882,0.0,10.0,0.0,0.0,0.0,10.0,0.0,0.0,0.0,10.0,-0.0410126807872,-0.00253000303558,0.00159789665405,1.0,0.0,0.0,0.0,1.0,0.0,0.0,0.0,1.0,-0.865799560547,-0.603544921875,10.1153649902,0.1,0.0,0.0,0.0,0.1,0.0,0.0,0.0,0.1
1452009324952374433,57,1452009324949240922,robocape,12.0462090703,-3.17376596488,-22.5232372258,0.0,10.0,0.0,0.0,0.0,10.0,0.0,0.0,0.0,10.0,-0.0311589847539,0.0102531701968,0.0119842249054,1.0,0.0,0.0,0.0,1.0,0.0,0.0,0.0,1.0,0.279019775391,-0.283809814453,10.2949914551,0.1,0.0,0.0,0.0,0.1,0.0,0.0,0.0,0.1
1452009324984907642,58,1452009324981873989,robocape,12.0152200174,-3.14902516728,-22.4510854439,0.0,10.0,0.0,0.0,0.0,10.0,0.0,0.0,0.0,10.0,-0.00173105470855,0.0145142279409,0.00985369603329,1.0,0.0,0.0,0.0,1.0,0.0,0.0,0.0,1.0,0.637075195313,-0.138911132813,10.2746337891,0.1,0.0,0.0,0.0,0.1,0.0,0.0,0.0,0.1
1452009325019239392,59,1452009325015526056,robocape,12.0032422026,-3.11851441988,-22.3651559199,0.0,10.0,0.0,0.0,0.0,10.0,0.0,0.0,0.0,10.0,0.00852211548825,0.0190416017941,0.0165115987585,1.0,0.0,0.0,0.0,1.0,0.0,0.0,0.0,1.0,0.148491210938,-0.276624755859,10.366842041,0.1,0.0,0.0,0.0,0.1,0.0,0.0,0.0,0.1
1452009325052094267,60,1452009325048938035,robocape,12.0626859254,-3.0697933489,-22.2844149204,0.0,10.0,0.0,0.0,0.0,10.0,0.0,0.0,0.0,10.0,0.0462058449129,0.0276968753368,0.0111852765783,1.0,0.0,0.0,0.0,1.0,0.0,0.0,0.0,1.0,-0.324525146484,-0.405955810547,10.2255358887,0.1,0.0,0.0,0.0,0.1,0.0,0.0,0.0,0.1
1452009325085517183,61,1452009325082369089,robocape,12.146841158,-3.00446748922,-22.1924132454,0.0,10.0,0.0,0.0,0.0,10.0,0.0,0.0,0.0,10.0,0.0595216503633,0.0375505713701,0.0151800182135,1.0,0.0,0.0,0.0,1.0,0.0,0.0,0.0,1.0,-0.0718505859375,-0.429906005859,10.326126709,0.1,0.0,0.0,0.0,0.1,0.0,0.0,0.0,0.1
1452009325119401350,62,1452009325115663051,robocape,12.2827511749,-2.92890861745,-22.1033652601,0.0,10.0,0.0,0.0,0.0,10.0,0.0,0.0,0.0,10.0,0.0869522095911,0.0424774193868,0.0119842249054,1.0,0.0,0.0,0.0,1.0,0.0,0.0,0.0,1.0,0.322130126953,-0.108973388672,10.2734362793,0.1,0.0,0.0,0.0,0.1,0.0,0.0,0.0,0.1
1452009325152957225,63,1452009325149925947,robocape,12.4571211209,-2.84785590863,-22.0150790939,0.0,10.0,0.0,0.0,0.0,10.0,0.0,0.0,0.0,10.0,0.107458549985,0.0452737385313,0.0105194863058,1.0,0.0,0.0,0.0,1.0,0.0,0.0,0.0,1.0,-0.0562829589844,-0.125738525391,10.1620678711,0.1,0.0,0.0,0.0,0.1,0.0,0.0,0.0,0.1
1452009325186401100,64,1452009325182935953,robocape,12.6642335595,-2.75593976509,-21.9251095252,0.0,10.0,0.0,0.0,0.0,10.0,0.0,0.0,0.0,10.0,0.125035413179,0.0511326929295,0.00972053797879,1.0,0.0,0.0,0.0,1.0,0.0,0.0,0.0,1.0,-0.0251477050781,0.00359252929688,10.1716479492,0.1,0.0,0.0,0.0,0.1,0.0,0.0,0.0,0.1
1452009325222162517,65,1452009325218830108,robocape,12.8189828383,-2.67649994336,-21.8265763031,0.0,10.0,0.0,0.0,0.0,10.0,0.0,0.0,0.0,10.0,0.0976048539514,0.0460726868584,0.016112124595,1.0,0.0,0.0,0.0,1.0,0.0,0.0,0.0,1.0,-0.341290283203,0.700543212891,9.90699829102,0.1,0.0,0.0,0.0,0.1,0.0,0.0,0.0,0.1
1452009325254514142,66,1452009325251355886,robocape,12.9005509342,-2.6361512145,-21.7624550122,0.0,10.0,0.0,0.0,0.0,10.0,0.0,0.0,0.0,10.0,0.0584563859272,0.0222373951022,0.0031957933081,1.0,0.0,0.0,0.0,1.0,0.0,0.0,0.0,1.0,-0.265847167969,1.10170898438,9.73455688477,0.1,0.0,0.0,0.0,0.1,0.0,0.0,0.0,0.1
1452009325287992059,67,1452009325284718990,robocape,12.8156158543,-2.63287029584,-21.7170576505,0.0,10.0,0.0,0.0,0.0,10.0,0.0,0.0,0.0,10.0,-0.0300937203179,0.00146473859954,-0.000532632218016,1.0,0.0,0.0,0.0,1.0,0.0,0.0,0.0,1.0,-0.275427246094,1.06458618164,9.79443237305,0.1,0.0,0.0,0.0,0.1,0.0,0.0,0.0,0.1
1452009325323330475,68,1452009325319622039,robocape,12.6341304121,-2.65951324125,-21.6946647771,0.0,10.0,0.0,0.0,0.0,10.0,0.0,0.0,0.0,10.0,-0.0817590454654,-0.016378440704,-0.00812264132474,1.0,0.0,0.0,0.0,1.0,0.0,0.0,0.0,1.0,-0.239501953125,0.611927490234,9.92256591797,0.1,0.0,0.0,0.0,0.1,0.0,0.0,0.0,0.1
1452009325355141642,69,1452009325351444005,robocape,12.4582621826,-2.69164590513,-21.6887269983,0.0,10.0,0.0,0.0,0.0,10.0,0.0,0.0,0.0,10.0,-0.0792290424299,-0.0211721306661,-0.0162452826495,1.0,0.0,0.0,0.0,1.0,0.0,0.0,0.0,1.0,0.00718505859375,-0.00359252929688,10.1309326172,0.1,0.0,0.0,0.0,0.1,0.0,0.0,0.0,0.1
1452009325386990350,70,1452009325383857965,robocape,12.2871308761,-2.71544825861,-21.6575879964,0.0,10.0,0.0,0.0,0.0,10.0,0.0,0.0,0.0,10.0,-0.0765658813398,-0.0139815957229,-0.00386158358061,1.0,0.0,0.0,0.0,1.0,0.0,0.0,0.0,1.0,0.0910107421875,-0.274229736328,10.2423010254,0.1,0.0,0.0,0.0,0.1,0.0,0.0,0.0,0.1
1452009325420330684,71,1452009325416471958,robocape,12.1817889544,-2.72824393931,-21.6207502576,0.0,10.0,0.0,0.0,0.0,10.0,0.0,0.0,0.0,10.0,-0.0418116291142,-0.00785632521573,-0.00266316109008,1.0,0.0,0.0,0.0,1.0,0.0,0.0,0.0,1.0,0.0431103515625,-0.028740234375,10.1800305176,0.1,0.0,0.0,0.0,0.1,0.0,0.0,0.0,0.1
1452009325455929809,72,1452009325452547073,robocape,12.1035971216,-2.72573114263,-21.5751176217,0.0,10.0,0.0,0.0,0.0,10.0,0.0,0.0,0.0,10.0,-0.0274305592278,0.000932106381528,0.000133158054504,1.0,0.0,0.0,0.0,1.0,0.0,0.0,0.0,1.0,0.047900390625,-0.186811523438,10.2746337891,0.1,0.0,0.0,0.0,0.1,0.0,0.0,0.0,0.1
1452009325488929017,73,1452009325485306978,robocape,12.0517102719,-2.71397100148,-21.5192571195,0.0,10.0,0.0,0.0,0.0,10.0,0.0,0.0,0.0,10.0,-0.0134489635049,0.0067910607797,0.00439421579863,1.0,0.0,0.0,0.0,1.0,0.0,0.0,0.0,1.0,0.0275427246094,-0.13412109375,10.2243383789,0.1,0.0,0.0,0.0,0.1,0.0,0.0,0.0,0.1
1452009325521727309,74,1452009325517401933,robocape,12.0052132614,-2.69594459378,-21.4436744168,0.0,10.0,0.0,0.0,0.0,10.0,0.0,0.0,0.0,10.0,-0.0103863282513,0.0122505410144,0.0142479118319,1.0,0.0,0.0,0.0,1.0,0.0,0.0,0.0,1.0,0.0203576660156,-0.0682580566406,10.2099682617,0.1,0.0,0.0,0.0,0.1,0.0,0.0,0.0,0.1
1452009325554272934,75,1452009325550832986,robocape,11.975337827,-2.6687730526,-21.3541528638,0.0,10.0,0.0,0.0,0.0,10.0,0.0,0.0,0.0,10.0,-0.00146473859954,0.0185089695761,0.0206394984481,1.0,0.0,0.0,0.0,1.0,0.0,0.0,0.0,1.0,0.0634680175781,-0.258662109375,10.2746337891,0.1,0.0,0.0,0.0,0.1,0.0,0.0,0.0,0.1
1452009325588754600,76,1452009325585347890,robocape,12.0139359237,-2.62338195426,-21.2817513979,0.0,10.0,0.0,0.0,0.0,10.0,0.0,0.0,0.0,10.0,0.0344879361165,0.0258326625738,0.00905474770627,1.0,0.0,0.0,0.0,1.0,0.0,0.0,0.0,1.0,0.0514929199219,-0.201181640625,10.2375109863,0.1,0.0,0.0,0.0,0.1,0.0,0.0,0.0,0.1
1452009325622577225,77,1452009325618556022,robocape,12.1017180278,-2.56743295047,-21.2076519053,0.0,10.0,0.0,0.0,0.0,10.0,0.0,0.0,0.0,10.0,0.0605869147993,0.0314253008629,0.00838895743375,1.0,0.0,0.0,0.0,1.0,0.0,0.0,0.0,1.0,0.0263452148438,-0.131726074219,10.1884130859,0.1,0.0,0.0,0.0,0.1,0.0,0.0,0.0,0.1
1452009325654228725,78,1452009325650964021,robocape,12.318951392,-2.48641622186,-21.1838886498,0.0,10.0,0.0,0.0,0.0,10.0,0.0,0.0,0.0,10.0,0.128630680651,0.0383495196971,-0.0223705531567,1.0,0.0,0.0,0.0,1.0,0.0,0.0,0.0,1.0,0.0850231933594,-0.387993164063,10.290201416,0.1,0.0,0.0,0.0,0.1,0.0,0.0,0.0,0.1
1452009325687530434,79,1452009325684350013,robocape,12.5506329322,-2.40579961699,-21.1607037645,0.0,10.0,0.0,0.0,0.0,10.0,0.0,0.0,0.0,10.0,0.136620163921,0.0380832035881,-0.0230363434292,1.0,0.0,0.0,0.0,1.0,0.0,0.0,0.0,1.0,-0.324525146484,0.874182128906,9.74413696289,0.1,0.0,0.0,0.0,0.1,0.0,0.0,0.0,0.1
1452009325721413975,80,1452009325718024969,robocape,12.5905807437,-2.37593572099,-21.1321801081,0.0,10.0,0.0,0.0,0.0,10.0,0.0,0.0,0.0,10.0,0.0352868844435,0.0131826473959,-0.0126500151779,1.0,0.0,0.0,0.0,1.0,0.0,0.0,0.0,1.0,-0.239501953125,1.31606323242,9.64354614258,0.1,0.0,0.0,0.0,0.1,0.0,0.0,0.0,0.1
1452009325754066225,81,1452009325750967979,robocape,12.4667993013,-2.38749653066,-21.1145614106,0.0,10.0,0.0,0.0,0.0,10.0,0.0,0.0,0.0,10.0,-0.0516653251475,-0.00892158965177,-0.0119842249054,1.0,0.0,0.0,0.0,1.0,0.0,0.0,0.0,1.0,-0.361647949219,0.973575439453,9.74174194336,0.1,0.0,0.0,0.0,0.1,0.0,0.0,0.0,0.1
1452009325786673975,82,1452009325783533096,robocape,12.2903757746,-2.42343034757,-21.1210603995,0.0,10.0,0.0,0.0,0.0,10.0,0.0,0.0,0.0,10.0,-0.0800279907569,-0.0241016078652,-0.0214384467751,1.0,0.0,0.0,0.0,1.0,0.0,0.0,0.0,1.0,-0.086220703125,0.184416503906,10.0423168945,0.1,0.0,0.0,0.0,0.1,0.0,0.0,0.0,0.1
1452009325820478309,83,1452009325817270040,robocape,12.1002465886,-2.45861778281,-21.1044761749,0.0,10.0,0.0,0.0,0.0,10.0,0.0,0.0,0.0,10.0,-0.0872185257001,-0.0210389726116,-0.00918790576077,1.0,0.0,0.0,0.0,1.0,0.0,0.0,0.0,1.0,-0.0598754882813,0.05748046875,10.1381176758,0.1,0.0,0.0,0.0,0.1,0.0,0.0,0.0,0.1
1452009325853506101,84,1452009325850419998,robocape,11.909162598,-2.49185198579,-21.0729548153,0.0,10.0,0.0,0.0,0.0,10.0,0.0,0.0,0.0,10.0,-0.0877511579181,-0.0183758115215,-0.00146473859954,1.0,0.0,0.0,0.0,1.0,0.0,0.0,0.0,1.0,0.0371228027344,0.00838256835938,10.177635498,0.1,0.0,0.0,0.0,0.1,0.0,0.0,0.0,0.1
1452009325886901726,85,1452009325883801937,robocape,11.7242577327,-2.5222936372,-21.0310381792,0.0,10.0,0.0,0.0,0.0,10.0,0.0,0.0,0.0,10.0,-0.08455536461,-0.015845808486,0.00372842552611,1.0,0.0,0.0,0.0,1.0,0.0,0.0,0.0,1.0,0.0431103515625,-0.0311352539063,10.1848205566,0.1,0.0,0.0,0.0,0.1,0.0,0.0,0.0,0.1
1452009325920191934,86,1452009325916934967,robocape,11.5400799818,-2.55269373149,-20.9826908801,0.0,10.0,0.0,0.0,0.0,10.0,0.0,0.0,0.0,10.0,-0.084289048501,-0.0151800182135,0.00719053494321,1.0,0.0,0.0,0.0,1.0,0.0,0.0,0.0,1.0,0.0467028808594,-0.119750976563,10.2267333984,0.1,0.0,0.0,0.0,0.1,0.0,0.0,0.0,0.1
1452009325953263309,87,1452009325950195074,robocape,11.3727266116,-2.57977402697,-20.9282703706,0.0,10.0,0.0,0.0,0.0,10.0,0.0,0.0,0.0,10.0,-0.0755006169037,-0.0129163312869,0.0099868540878,1.0,0.0,0.0,0.0,1.0,0.0,0.0,0.0,1.0,0.0826281738281,-0.1916015625,10.2458935547,0.1,0.0,0.0,0.0,0.1,0.0,0.0,0.0,0.1
1452009325985764434,88,1452009325982407093,robocape,11.2345491542,-2.59554331317,-20.8786075866,0.0,10.0,0.0,0.0,0.0,10.0,0.0,0.0,0.0,10.0,-0.0603205986903,-0.00772316716123,0.00612527050718,1.0,0.0,0.0,0.0,1.0,0.0,0.0,0.0,1.0,0.0634680175781,-0.350870361328,10.3177441406,0.1,0.0,0.0,0.0,0.1,0.0,0.0,0.0,0.1
1452009326020287601,89,1452009326017069101,robocape,11.1409558232,-2.5959731147,-20.8282079742,0.0,10.0,0.0,0.0,0.0,10.0,0.0,0.0,0.0,10.0,-0.0368847810976,0.000133158054504,0.00466053190764,1.0,0.0,0.0,0.0,1.0,0.0,0.0,0.0,1.0,0.0383203125,-0.300574951172,10.2997814941,0.1,0.0,0.0,0.0,0.1,0.0,0.0,0.0,0.1
1452009326053598392,90,1452009326050532102,robocape,11.0360942836,-2.5958508345,-20.7628152804,0.0,10.0,0.0,0.0,0.0,10.0,0.0,0.0,0.0,10.0,-0.0427437354958,0.00199737081756,0.0127831732324,1.0,0.0,0.0,0.0,1.0,0.0,0.0,0.0,1.0,0.0467028808594,-0.0886157226563,10.2423010254,0.1,0.0,0.0,0.0,0.1,0.0,0.0,0.0,0.1
1452009326086186309,91,1452009326083082914,robocape,10.9015203177,-2.59678459116,-20.6705612654,0.0,10.0,0.0,0.0,0.0,10.0,0.0,0.0,0.0,10.0,-0.0581900698182,0.00426105774413,0.0275637172823,1.0,0.0,0.0,0.0,1.0,0.0,0.0,0.0,1.0,0.0706530761719,-0.393980712891,10.3081640625,0.1,0.0,0.0,0.0,0.1,0.0,0.0,0.0,0.1
1452009326118012392,92,1452009326114965915,robocape,10.8432076212,-2.58799001068,-20.6189383776,0.0,10.0,0.0,0.0,0.0,10.0,0.0,0.0,0.0,10.0,-0.0186421276306,0.00492684801665,0.00452737385313,1.0,0.0,0.0,0.0,1.0,0.0,0.0,0.0,1.0,0.0706530761719,-0.188009033203,10.2890039063,0.1,0.0,0.0,0.0,0.1,0.0,0.0,0.0,0.1
1452009326151367392,93,1452009326148123979,robocape,10.7886249421,-2.57784152627,-20.5689568046,0.0,10.0,0.0,0.0,0.0,10.0,0.0,0.0,0.0,10.0,-0.0167779148675,0.00545948023466,0.00359526747161,1.0,0.0,0.0,0.0,1.0,0.0,0.0,0.0,1.0,0.0658630371094,-0.232316894531,10.3093615723,0.1,0.0,0.0,0.0,0.1,0.0,0.0,0.0,0.1
1452009326184286559,94,1452009326181212902,robocape,10.7438578859,-2.56571627064,-20.522402456,0.0,10.0,0.0,0.0,0.0,10.0,0.0,0.0,0.0,10.0,-0.0117179087963,0.00612527050718,0.00159789665405,1.0,0.0,0.0,0.0,1.0,0.0,0.0,0.0,1.0,0.0802331542969,-0.279019775391,10.3273242188,0.1,0.0,0.0,0.0,0.1,0.0,0.0,0.0,0.1
1452009326218165101,95,1452009326214834928,robocape,10.702598467,-2.55074925781,-20.470689571,0.0,10.0,0.0,0.0,0.0,10.0,0.0,0.0,0.0,10.0,-0.00985369603329,0.00812264132474,0.00412789968962,1.0,0.0,0.0,0.0,1.0,0.0,0.0,0.0,1.0,0.0922082519531,-0.358055419922,10.3584594727,0.1,0.0,0.0,0.0,0.1,0.0,0.0,0.0,0.1
1452009326250777601,96,1452009326247550964,robocape,10.6670358934,-2.52857957541,-20.4110020642,0.0,10.0,0.0,0.0,0.0,10.0,0.0,0.0,0.0,10.0,-0.0067910607797,0.0126500151779,0.00772316716123,1.0,0.0,0.0,0.0,1.0,0.0,0.0,0.0,1.0,0.137713623047,-0.439486083984,10.3740270996,0.1,0.0,0.0,0.0,0.1,0.0,0.0,0.0,0.1
1452009326284074642,97,1452009326281044960,robocape,10.6708705222,-2.49766070719,-20.3508104463,0.0,10.0,0.0,0.0,0.0,10.0,0.0,0.0,0.0,10.0,0.0139815957229,0.017177389031,0.00692421883421,1.0,0.0,0.0,0.0,1.0,0.0,0.0,0.0,1.0,0.107775878906,-0.337697753906,10.3117565918,0.1,0.0,0.0,0.0,0.1,0.0,0.0,0.0,0.1
1452009326317199976,98,1452009326314148902,robocape,10.6786951306,-2.46507082586,-20.2876660512,0.0,10.0,0.0,0.0,0.0,10.0,0.0,0.0,0.0,10.0,0.016112124595,0.0183758115215,0.00838895743375,1.0,0.0,0.0,0.0,1.0,0.0,0.0,0.0,1.0,0.0886157226563,-0.310155029297,10.3129541016,0.1,0.0,0.0,0.0,0.1,0.0,0.0,0.0,0.1
1452009326350501767,99,1452009326347388029,robocape,10.6921779322,-2.43117869711,-20.2276243191,0.0,10.0,0.0,0.0,0.0,10.0,0.0,0.0,0.0,10.0,0.0190416017941,0.0187752856851,0.0066579027252,1.0,0.0,0.0,0.0,1.0,0.0,0.0,0.0,1.0,0.0598754882813,-0.205971679688,10.2578686523,0.1,0.0,0.0,0.0,0.1,0.0,0.0,0.0,0.1
1452009326384036101,100,1452009326380924940,robocape,10.7088083636,-2.39709469171,-20.1716631675,0.0,10.0,0.0,0.0,0.0,10.0,0.0,0.0,0.0,10.0,0.0206394984481,0.0185089695761,0.00452737385313,1.0,0.0,0.0,0.0,1.0,0.0,0.0,0.0,1.0,0.0562829589844,-0.17244140625,10.2614611816,0.1,0.0,0.0,0.0,0.1,0.0,0.0,0.0,0.1
1452009326417331642,101,1452009326414237976,robocape,10.7229296012,-2.36516773874,-20.1157752643,0.0,10.0,0.0,0.0,0.0,10.0,0.0,0.0,0.0,10.0,0.0193079179031,0.01744370514,0.00479368996214,1.0,0.0,0.0,0.0,1.0,0.0,0.0,0.0,1.0,0.0514929199219,-0.201181640625,10.2626586914,0.1,0.0,0.0,0.0,0.1,0.0,0.0,0.0,0.1
1452009326451292101,102,1452009326448136091,robocape,10.7327870231,-2.33434682981,-20.0600507381,0.0,10.0,0.0,0.0,0.0,10.0,0.0,0.0,0.0,10.0,0.0170442309765,0.016911072922,0.00492684801665,1.0,0.0,0.0,0.0,1.0,0.0,0.0,0.0,1.0,0.047900390625,-0.203576660156,10.2734362793,0.1,0.0,0.0,0.0,0.1,0.0,0.0,0.0,0.1
1452009326484266559,103,1452009326481116056,robocape,10.7391360295,-2.3039265002,-20.004102261,0.0,10.0,0.0,0.0,0.0,10.0,0.0,0.0,0.0,10.0,0.0151800182135,0.0167779148675,0.00519316412565,1.0,0.0,0.0,0.0,1.0,0.0,0.0,0.0,1.0,0.0514929199219,-0.1916015625,10.4099523926,0.1,0.0,0.0,0.0,0.1,0.0,0.0,0.0,0.1
1452009326517283684,104,1452009326514189958,robocape,10.7435015576,-2.27410578797,-19.948197287,0.0,10.0,0.0,0.0,0.0,10.0,0.0,0.0,0.0,10.0,0.0141147537774,0.0165115987585,0.00532632218016,1.0,0.0,0.0,0.0,1.0,0.0,0.0,0.0,1.0,0.0526904296875,-0.17244140625,10.2470910645,0.1,0.0,0.0,0.0,0.1,0.0,0.0,0.0,0.1
1452009326550644768,105,1452009326547580003,robocape,10.7471790678,-2.24589184547,-19.8937562991,0.0,10.0,0.0,0.0,0.0,10.0,0.0,0.0,0.0,10.0,0.0137152796139,0.015579492377,0.00479368996214,1.0,0.0,0.0,0.0,1.0,0.0,0.0,0.0,1.0,0.0383203125,-0.161663818359,10.254276123,0.1,0.0,0.0,0.0,0.1,0.0,0.0,0.0,0.1
1452009326584251643,106,1452009326581083059,robocape,10.7496473933,-2.21787994262,-19.8400246319,0.0,10.0,0.0,0.0,0.0,10.0,0.0,0.0,0.0,10.0,0.0130494893414,0.0154463343225,0.00452737385313,1.0,0.0,0.0,0.0,1.0,0.0,0.0,0.0,1.0,0.0467028808594,-0.144898681641,10.26984375,0.1,0.0,0.0,0.0,0.1,0.0,0.0,0.0,0.1
1452009326617993518,107,1452009326614778995,robocape,10.751142473,-2.18996202858,-19.7862250093,0.0,10.0,0.0,0.0,0.0,10.0,0.0,0.0,0.0,10.0,0.0125168571234,0.0154463343225,0.00466053190764,1.0,0.0,0.0,0.0,1.0,0.0,0.0,0.0,1.0,0.0383203125,-0.165256347656,10.2578686523,0.1,0.0,0.0,0.0,0.1,0.0,0.0,0.0,0.1
1452009326651837101,108,1452009326648669958,robocape,10.752678574,-2.16208999805,-19.7325843336,0.0,10.0,0.0,0.0,0.0,10.0,0.0,0.0,0.0,10.0,0.0125168571234,0.0154463343225,0.00466053190764,1.0,0.0,0.0,0.0,1.0,0.0,0.0,0.0,1.0,0.0335302734375,-0.159268798828,10.2446960449,0.1,0.0,0.0,0.0,0.1,0.0,0.0,0.0,0.1
1452009326684010101,109,1452009326680865049,robocape,10.7305804367,-2.13821859739,-19.6671503047,0.0,10.0,0.0,0.0,0.0,10.0,0.0,0.0,0.0,10.0,0.000133158054504,0.0146473859954,0.0115847507418,1.0,0.0,0.0,0.0,1.0,0.0,0.0,0.0,1.0,0.00718505859375,-0.0395178222656,10.208770752,0.1,0.0,0.0,0.0,0.1,0.0,0.0,0.0,0.1
1452009326717302434,110,1452009326714303970,robocape,10.7423864416,-2.10905323673,-19.6167363607,0.0,10.0,0.0,0.0,0.0,10.0,0.0,0.0,0.0,10.0,0.0178431793035,0.015845808486,0.00292947719909,1.0,0.0,0.0,0.0,1.0,0.0,0.0,0.0,1.0,0.0610729980469,-0.124541015625,10.2566711426,0.1,0.0,0.0,0.0,0.1,0.0,0.0,0.0,0.1
1452009326750428143,111,1452009326747442960,robocape,10.7576390591,-2.09902185424,-19.5626388008,0.0,10.0,0.0,0.0,0.0,10.0,0.0,0.0,0.0,10.0,0.0197073920666,0.00639158661619,0.0067910607797,1.0,0.0,0.0,0.0,1.0,0.0,0.0,0.0,1.0,-0.940045166016,-0.420325927734,10.995534668,0.1,0.0,0.0,0.0,0.1,0.0,0.0,0.0,0.1
1452009326783937893,112,1452009326780936002,robocape,10.7783710179,-2.13344105271,-19.4954535528,0.0,10.0,0.0,0.0,0.0,10.0,0.0,0.0,0.0,10.0,0.0227700273202,-0.0151800182135,0.0181094954125,1.0,0.0,0.0,0.0,1.0,0.0,0.0,0.0,1.0,-4.58526489258,-1.02866088867,11.0194848633,0.1,0.0,0.0,0.0,0.1,0.0,0.0,0.0,0.1
1452009326817430768,113,1452009326814273118,robocape,10.8306891128,-2.16384486021,-19.4126695096,0.0,10.0,0.0,0.0,0.0,10.0,0.0,0.0,0.0,10.0,0.0396811002422,-0.0115847507418,0.0258326625738,1.0,0.0,0.0,0.0,1.0,0.0,0.0,0.0,1.0,-6.09891723633,-3.17579589844,8.08798095703,0.1,0.0,0.0,0.0,0.1,0.0,0.0,0.0,0.1
1452009326850345018,114,1452009326847338914,robocape,10.8078677301,-2.05811504316,-19.2637861895,0.0,10.0,0.0,0.0,0.0,10.0,0.0,0.0,0.0,10.0,0.00066579027252,0.0653806047614,0.0482032157304,1.0,0.0,0.0,0.0,1.0,0.0,0.0,0.0,1.0,-6.17795288086,-1.74237670898,10.7201074219,0.1,0.0,0.0,0.0,0.1,0.0,0.0,0.0,0.1
1452009326883742309,115,1452009326880726099,robocape,10.8038994225,-1.86928562995,-19.0888119846,0.0,10.0,0.0,0.0,0.0,10.0,0.0,0.0,0.0,10.0,0.0106526443603,0.110920659402,0.0539290120741,1.0,0.0,0.0,0.0,1.0,0.0,0.0,0.0,1.0,-3.01652709961,-0.756826171875,10.9332641602,0.1,0.0,0.0,0.0,0.1,0.0,0.0,0.0,0.1
1452009326917360684,116,1452009326914158105,robocape,10.8794058162,-1.76301322165,-18.8356847531,0.0,10.0,0.0,0.0,0.0,10.0,0.0,0.0,0.0,10.0,0.0531300637471,0.0764327232853,0.102931176132,1.0,0.0,0.0,0.0,1.0,0.0,0.0,0.0,1.0,-5.71092407227,-1.92918823242,9.39805664063,0.1,0.0,0.0,0.0,0.1,0.0,0.0,0.0,0.1
1452009326950723143,117,1452009326947438001,robocape,10.8440374287,-1.74963265462,-18.6312416259,0.0,10.0,0.0,0.0,0.0,10.0,0.0,0.0,0.0,10.0,-0.00599211245268,0.0239684498107,0.0874848418091,1.0,0.0,0.0,0.0,1.0,0.0,0.0,0.0,1.0,-8.98611328125,-3.17819091797,8.98132324219,0.1,0.0,0.0,0.0,0.1,0.0,0.0,0.0,0.1
1452009326984352934,118,1452009326980945110,robocape,10.6101349278,-1.65289750254,-18.5149251727,0.0,10.0,0.0,0.0,0.0,10.0,0.0,0.0,0.0,10.0,-0.111852765783,0.0581900698182,0.034621094171,1.0,0.0,0.0,0.0,1.0,0.0,0.0,0.0,1.0,-8.30233520508,-2.66326171875,11.3380224609,0.1,0.0,0.0,0.0,0.1,0.0,0.0,0.0,0.1
1452009327017542226,119,1452009327014095067,robocape,10.3722380486,-1.60946422801,-18.4327228132,0.0,10.0,0.0,0.0,0.0,10.0,0.0,0.0,0.0,10.0,-0.114515926873,0.0272974011733,0.0221042370477,1.0,0.0,0.0,0.0,1.0,0.0,0.0,0.0,1.0,-6.67252441406,-2.31598388672,9.60283081055,0.1,0.0,0.0,0.0,0.1,0.0,0.0,0.0,0.1
1452009327054677601,120,1452009327051326990,robocape,10.2889396797,-1.58300066591,-18.1786509369,0.0,10.0,0.0,0.0,0.0,10.0,0.0,0.0,0.0,10.0,-0.0318247750264,0.03488741028,0.113716978546,1.0,0.0,0.0,0.0,1.0,0.0,0.0,0.0,1.0,-7.65567993164,-2.92192382813,9.91059082031,0.1,0.0,0.0,0.0,0.1,0.0,0.0,0.0,0.1
1452009327083985184,121,1452009327080754041,robocape,10.0656208374,-1.70969078705,-17.9661364537,0.0,10.0,0.0,0.0,0.0,10.0,0.0,0.0,0.0,10.0,-0.10612696944,-0.0482032157304,0.10732539193,1.0,0.0,0.0,0.0,1.0,0.0,0.0,0.0,1.0,-8.91665771484,-2.37825439453,10.6362817383,0.1,0.0,0.0,0.0,0.1,0.0,0.0,0.0,0.1
1452009327117388184,122,1452009327114223957,robocape,9.60534950305,-1.72051601929,-17.8523239067,0.0,10.0,0.0,0.0,0.0,10.0,0.0,0.0,0.0,10.0,-0.232227647055,0.00213052887206,0.0463390029674,1.0,0.0,0.0,0.0,1.0,0.0,0.0,0.0,1.0,-6.65216674805,-3.66557739258,9.55612792969,0.1,0.0,0.0,0.0,0.1,0.0,0.0,0.0,0.1
1452009327150488476,123,1452009327147373914,robocape,9.05932383141,-1.71335442701,-17.8882059619,0.0,10.0,0.0,0.0,0.0,10.0,0.0,0.0,0.0,10.0,-0.279232440295,-0.00199737081756,-0.033822145844,1.0,0.0,0.0,0.0,1.0,0.0,0.0,0.0,1.0,-7.5526940918,-2.77223510742,9.62558349609,0.1,0.0,0.0,0.0,0.1,0.0,0.0,0.0,0.1
1452009327184075018,124,1452009327181036949,robocape,8.42940979889,-1.75933337397,-17.7887773135,0.0,10.0,0.0,0.0,0.0,10.0,0.0,0.0,0.0,10.0,-0.322508808009,-0.0181094954125,0.0426105774413,1.0,0.0,0.0,0.0,1.0,0.0,0.0,0.0,1.0,-7.01022216797,-2.45130249023,9.10825927734,0.1,0.0,0.0,0.0,0.1,0.0,0.0,0.0,0.1
1452009327217429768,125,1452009327214329957,robocape,7.55848813851,-1.76732840005,-17.7970020871,0.0,10.0,0.0,0.0,0.0,10.0,0.0,0.0,0.0,10.0,-0.451006330605,-0.00692421883421,-0.0162452826495,1.0,0.0,0.0,0.0,1.0,0.0,0.0,0.0,1.0,-8.3885559082,-2.46447509766,11.1164831543,0.1,0.0,0.0,0.0,0.1,0.0,0.0,0.0,0.1
1452009327252694060,126,1452009327249653100,robocape,6.8577916959,-2.10736725404,-17.8716635664,0.0,10.0,0.0,0.0,0.0,10.0,0.0,0.0,0.0,10.0,-0.362722540469,-0.184290747433,-0.0312921428084,1.0,0.0,0.0,0.0,1.0,0.0,0.0,0.0,1.0,-5.30616577148,-3.01053955078,10.1920056152,0.1,0.0,0.0,0.0,0.1,0.0,0.0,0.0,0.1
1452009327283870935,127,1452009327280832052,robocape,6.22035197764,-2.05176381969,-18.2572379343,0.0,10.0,0.0,0.0,0.0,10.0,0.0,0.0,0.0,10.0,-0.334759349023,0.00253000303558,-0.223439215458,1.0,0.0,0.0,0.0,1.0,0.0,0.0,0.0,1.0,-0.188009033203,-0.100590820313,12.0026403809,0.1,0.0,0.0,0.0,0.1,0.0,0.0,0.0,0.1
1452009327318638893,128,1452009327315361022,robocape,5.88704683117,-2.36951875589,-18.4497474065,0.0,10.0,0.0,0.0,0.0,10.0,0.0,0.0,0.0,10.0,-0.172572838637,-0.179630215526,-0.10199906975,1.0,0.0,0.0,0.0,1.0,0.0,0.0,0.0,1.0,-4.84751953125,-2.24533081055,10.1860180664,0.1,0.0,0.0,0.0,0.1,0.0,0.0,0.0,0.1
1452009327351817768,129,1452009327348721027,robocape,5.56832856628,-2.62304058807,-18.741245523,0.0,10.0,0.0,0.0,0.0,10.0,0.0,0.0,0.0,10.0,-0.16764599062,-0.151400707971,-0.159789665405,1.0,0.0,0.0,0.0,1.0,0.0,0.0,0.0,1.0,-3.03209472656,-2.08965454102,8.29754516602,0.1,0.0,0.0,0.0,0.1,0.0,0.0,0.0,0.1
1452009327385716685,130,1452009327382131099,robocape,4.94523260825,-2.78731503427,-18.9919565614,0.0,10.0,0.0,0.0,0.0,10.0,0.0,0.0,0.0,10.0,-0.327701972134,-0.101599595587,-0.142745434428,1.0,0.0,0.0,0.0,1.0,0.0,0.0,0.0,1.0,-4.64394287109,-1.62142822266,10.6350842285,0.1,0.0,0.0,0.0,0.1,0.0,0.0,0.0,0.1
1452009327419123143,131,1452009327415626049,robocape,3.96947811536,-2.92528894464,-19.1322653905,0.0,10.0,0.0,0.0,0.0,10.0,0.0,0.0,0.0,10.0,-0.511326929295,-0.0812264132474,-0.085354312937,1.0,0.0,0.0,0.0,1.0,0.0,0.0,0.0,1.0,-2.91114624023,-0.620310058594,10.5656286621,0.1,0.0,0.0,0.0,0.1,0.0,0.0,0.0,0.1
1452009327452598851,132,1452009327449428081,robocape,2.67153963591,-3.47735488887,-19.1280808797,0.0,10.0,0.0,0.0,0.0,10.0,0.0,0.0,0.0,10.0,-0.677641339371,-0.292015613527,0.00253000303558,1.0,0.0,0.0,0.0,1.0,0.0,0.0,0.0,1.0,-1.54239257813,0.290994873047,10.1105749512,0.1,0.0,0.0,0.0,0.1,0.0,0.0,0.0,0.1
1452009327485684685,133,1452009327482567071,robocape,0.793621568229,-4.30335674338,-19.1187715389,0.0,10.0,0.0,0.0,0.0,10.0,0.0,0.0,0.0,10.0,-0.982839600294,-0.436625260718,0.000133158054504,1.0,0.0,0.0,0.0,1.0,0.0,0.0,0.0,1.0,-0.481398925781,-0.173638916016,9.07113647461,0.1,0.0,0.0,0.0,0.1,0.0,0.0,0.0,0.1
1452009327522671935,134,1452009327518970966,robocape,-1.32860474988,-5.09294879252,-19.178066724,0.0,10.0,0.0,0.0,0.0,10.0,0.0,0.0,0.0,10.0,-1.11626397091,-0.419447871687,-0.0553937506736,1.0,0.0,0.0,0.0,1.0,0.0,0.0,0.0,1.0,-1.40827148438,-0.416733398438,9.28189819336,0.1,0.0,0.0,0.0,0.1,0.0,0.0,0.0,0.1
1452009327551504393,135,1452009327548434019,robocape,-3.95169777073,-5.9877313881,-19.3716446763,0.0,10.0,0.0,0.0,0.0,10.0,0.0,0.0,0.0,10.0,-1.3911021954,-0.472577935435,-0.153398078789,1.0,0.0,0.0,0.0,1.0,0.0,0.0,0.0,1.0,0.452658691406,-0.744851074219,8.44843139648,0.1,0.0,0.0,0.0,0.1,0.0,0.0,0.0,0.1
1452009327584622560,136,1452009327581594944,robocape,-6.6455978286,-6.83234671025,-20.4781059867,0.0,10.0,0.0,0.0,0.0,10.0,0.0,0.0,0.0,10.0,-1.49629705846,-0.403468905147,-0.670184488318,1.0,0.0,0.0,0.0,1.0,0.0,0.0,0.0,1.0,6.57792114258,-1.21307739258,11.7691259766,0.1,0.0,0.0,0.0,0.1,0.0,0.0,0.0,0.1
1452009327622949310,137,1452009327618674993,robocape,-7.80604784914,-7.6057366356,-22.0286986374,0.0,10.0,0.0,0.0,0.0,10.0,0.0,0.0,0.0,10.0,-0.737562463897,-0.319179856646,-0.918657418023,1.0,0.0,0.0,0.0,1.0,0.0,0.0,0.0,1.0,11.9475549316,-13.4552197266,19.6194012451,0.1,0.0,0.0,0.0,0.1,0.0,0.0,0.0,0.1
1452009327653815685,138,1452009327649327993,robocape,-5.09885713433,-6.45260476783,-24.8599118953,0.0,10.0,0.0,0.0,0.0,10.0,0.0,0.0,0.0,10.0,1.21986093731,0.754606694874,-1.45475174546,1.0,0.0,0.0,0.0,1.0,0.0,0.0,0.0,1.0,6.57672363281,-5.33610351563,16.7579516602,0.1,0.0,0.0,0.0,0.1,0.0,0.0,0.0,0.1
1452009327688711268,139,1452009327685136079,robocape,-3.51990950191,-5.99261740107,-25.728716413,0.0,10.0,0.0,0.0,0.0,10.0,0.0,0.0,0.0,10.0,0.769653555033,0.266715583171,-0.473776357925,1.0,0.0,0.0,0.0,1.0,0.0,0.0,0.0,1.0,1.04063598633,-2.43333984375,5.62829589844,0.1,0.0,0.0,0.0,0.1,0.0,0.0,0.0,0.1
1452009327722636851,140,1452009327719222068,robocape,-1.94019133924,-5.44098473204,-26.7205488155,0.0,10.0,0.0,0.0,0.0,10.0,0.0,0.0,0.0,10.0,0.769254080869,0.30479878676,-0.552073293973,1.0,0.0,0.0,0.0,1.0,0.0,0.0,0.0,1.0,-5.12773681641,-2.61176879883,11.6362023926,0.1,0.0,0.0,0.0,0.1,0.0,0.0,0.0,0.1
1452009327755311185,141,1452009327750762939,robocape,-0.483287449976,-4.79795521658,-27.870173711,0.0,10.0,0.0,0.0,0.0,10.0,0.0,0.0,0.0,10.0,0.705071898598,0.339952513149,-0.654072363723,1.0,0.0,0.0,0.0,1.0,0.0,0.0,0.0,1.0,-2.72553222656,-2.01181640625,9.16693725586,0.1,0.0,0.0,0.0,0.1,0.0,0.0,0.0,0.1
1452009327789442226,142,1452009327785846948,robocape,0.309682748573,-4.86907622652,-28.0495541288,0.0,10.0,0.0,0.0,0.0,10.0,0.0,0.0,0.0,10.0,0.405998908183,-0.0439421579863,-0.134889109213,1.0,0.0,0.0,0.0,1.0,0.0,0.0,0.0,1.0,1.74716674805,-0.554447021484,8.813671875,0.1,0.0,0.0,0.0,0.1,0.0,0.0,0.0,0.1
1452009327822794393,143,1452009327819299936,robocape,1.07786068713,-4.78774413569,-28.2787380496,0.0,10.0,0.0,0.0,0.0,10.0,0.0,0.0,0.0,10.0,0.391884154405,0.033822145844,-0.163384932876,1.0,0.0,0.0,0.0,1.0,0.0,0.0,0.0,1.0,1.23942260742,-1.07177124023,8.0125378418,0.1,0.0,0.0,0.0,0.1,0.0,0.0,0.0,0.1
1452009327854214018,144,1452009327850492000,robocape,0.974421858715,-4.9523502021,-28.3914539656,0.0,10.0,0.0,0.0,0.0,10.0,0.0,0.0,0.0,10.0,-0.0595216503633,-0.0948085348068,-0.0992027506055,1.0,0.0,0.0,0.0,1.0,0.0,0.0,0.0,1.0,-2.00702636719,-2.44291992188,7.71435791016,0.1,0.0,0.0,0.0,0.1,0.0,0.0,0.0,0.1
1452009327887347643,145,1452009327884058952,robocape,0.678281761526,-4.91973636576,-28.6381272771,0.0,10.0,0.0,0.0,0.0,10.0,0.0,0.0,0.0,10.0,-0.167113358402,0.00705737688871,-0.174969683618,1.0,0.0,0.0,0.0,1.0,0.0,0.0,0.0,1.0,2.51477050781,1.43940673828,10.4925805664,0.1,0.0,0.0,0.0,0.1,0.0,0.0,0.0,0.1
1452009327921742518,146,1452009327918240070,robocape,0.082888599211,-5.154411334,-28.9206493608,0.0,10.0,0.0,0.0,0.0,10.0,0.0,0.0,0.0,10.0,-0.326769865753,-0.132891738395,-0.196541288448,1.0,0.0,0.0,0.0,1.0,0.0,0.0,0.0,1.0,-3.60929443359,-0.649050292969,9.39685913086,0.1,0.0,0.0,0.0,0.1,0.0,0.0,0.0,0.1
1452009327955019685,147,1452009327951698064,robocape,-0.740218482172,-5.32502759128,-29.2814336124,0.0,10.0,0.0,0.0,0.0,10.0,0.0,0.0,0.0,10.0,-0.452071595041,-0.0980043281149,-0.243146607524,1.0,0.0,0.0,0.0,1.0,0.0,0.0,0.0,1.0,-0.15328125,1.07895629883,10.5021606445,0.1,0.0,0.0,0.0,0.1,0.0,0.0,0.0,0.1
1452009327987105643,148,1452009327983916997,robocape,-1.95518666486,-5.86809671334,-29.5439802713,0.0,10.0,0.0,0.0,0.0,10.0,0.0,0.0,0.0,10.0,-0.655936576487,-0.291749297418,-0.200402872028,1.0,0.0,0.0,0.0,1.0,0.0,0.0,0.0,1.0,-0.829874267578,-0.162861328125,9.02323608398,0.1,0.0,0.0,0.0,0.1,0.0,0.0,0.0,0.1
1452009328021231352,149,1452009328017889022,robocape,-3.47249304282,-6.83620526445,-29.7702810466,0.0,10.0,0.0,0.0,0.0,10.0,0.0,0.0,0.0,10.0,-0.818256244927,-0.51412324844,-0.206128668372,1.0,0.0,0.0,0.0,1.0,0.0,0.0,0.0,1.0,-2.55069580078,-2.11719726563,7.52155883789,0.1,0.0,0.0,0.0,0.1,0.0,0.0,0.0,0.1
1452009328053564977,150,1452009328050328016,robocape,-4.59295881577,-7.04065481577,-30.6619740992,0.0,10.0,0.0,0.0,0.0,10.0,0.0,0.0,0.0,10.0,-0.661262898667,-0.0910801092807,-0.557799090317,1.0,0.0,0.0,0.0,1.0,0.0,0.0,0.0,1.0,-1.48251708984,7.21499633789,12.5918151855,0.1,0.0,0.0,0.0,0.1,0.0,0.0,0.0,0.1
1452009328087269477,151,1452009328084050893,robocape,-6.49486589606,-7.04454044643,-32.4305914229,0.0,10.0,0.0,0.0,0.0,10.0,0.0,0.0,0.0,10.0,-1.14569190095,0.0632500758894,-1.05514442389,1.0,0.0,0.0,0.0,1.0,0.0,0.0,0.0,1.0,12.891192627,-8.98731079102,11.8098413086,0.1,0.0,0.0,0.0,0.1,0.0,0.0,0.0,0.1
1452009328119969560,152,1452009328116852998,robocape,-3.81264046367,-5.78659465089,-35.0646755184,0.0,10.0,0.0,0.0,0.0,10.0,0.0,0.0,0.0,10.0,1.22705147225,0.765392497289,-1.44383278499,1.0,0.0,0.0,0.0,1.0,0.0,0.0,0.0,1.0,3.73742797852,-4.40563842773,17.9758190918,0.1,0.0,0.0,0.0,0.1,0.0,0.0,0.0,0.1
1452009328153234060,153,1452009328150198936,robocape,-2.29541584206,-5.36274558483,-35.9268863767,0.0,10.0,0.0,0.0,0.0,10.0,0.0,0.0,0.0,10.0,0.740358783042,0.235556598418,-0.52743905389,1.0,0.0,0.0,0.0,1.0,0.0,0.0,0.0,1.0,0.9196875,-0.956810302734,5.60674072266,0.1,0.0,0.0,0.0,0.1,0.0,0.0,0.0,0.1
1452009328187093810,154,1452009328183959960,robocape,-1.11950906379,-4.74465940059,-36.6781565948,0.0,10.0,0.0,0.0,0.0,10.0,0.0,0.0,0.0,10.0,0.573911214912,0.325438285208,-0.474974780416,1.0,0.0,0.0,0.0,1.0,0.0,0.0,0.0,1.0,-2.12198730469,-1.60466308594,10.1632653809,0.1,0.0,0.0,0.0,0.1,0.0,0.0,0.0,0.1
1452009328220814768,155,1452009328217562913,robocape,-0.263758775528,-4.51825475245,-37.1537031502,0.0,10.0,0.0,0.0,0.0,10.0,0.0,0.0,0.0,10.0,0.423708929432,0.112119081892,-0.334226716805,1.0,0.0,0.0,0.0,1.0,0.0,0.0,0.0,1.0,-1.34240844727,-1.31366821289,7.23056396484,0.1,0.0,0.0,0.0,0.1,0.0,0.0,0.0,0.1
1452009328253462643,156,1452009328250358104,robocape,-0.342284414554,-4.55518977165,-37.3850458238,0.0,10.0,0.0,0.0,0.0,10.0,0.0,0.0,0.0,10.0,-0.0545948023466,-0.0279631914458,-0.201201820355,1.0,0.0,0.0,0.0,1.0,0.0,0.0,0.0,1.0,-4.78405151367,0.802331542969,8.83163452148,0.1,0.0,0.0,0.0,0.1,0.0,0.0,0.0,0.1
1452009328285892893,157,1452009328282768011,robocape,-1.40128878081,-4.97366235711,-37.0896278299,0.0,10.0,0.0,0.0,0.0,10.0,0.0,0.0,0.0,10.0,-0.545814865412,-0.228366063474,0.0960069572974,1.0,0.0,0.0,0.0,1.0,0.0,0.0,0.0,1.0,-0.495769042969,3.65839233398,8.17420166016,0.1,0.0,0.0,0.0,0.1,0.0,0.0,0.0,0.1
1452009328319998560,158,1452009328316894054,robocape,-3.66338895391,-5.88028857895,-36.8029726132,0.0,10.0,0.0,0.0,0.0,10.0,0.0,0.0,0.0,10.0,-1.17978036291,-0.490554272793,0.0605869147993,1.0,0.0,0.0,0.0,1.0,0.0,0.0,0.0,1.0,-0.810714111328,1.46575195313,7.57664428711,0.1,0.0,0.0,0.0,0.1,0.0,0.0,0.0,0.1
1452009328352065352,159,1452009328348932027,robocape,-6.806271971,-6.65000404266,-36.7061817831,0.0,10.0,0.0,0.0,0.0,10.0,0.0,0.0,0.0,10.0,-1.66261146854,-0.419847345851,-0.0833569421195,1.0,0.0,0.0,0.0,1.0,0.0,0.0,0.0,1.0,8.09277099609,-10.7488476563,15.711328125,0.1,0.0,0.0,0.0,0.1,0.0,0.0,0.0,0.1
1452009328384393185,160,1452009328381295919,robocape,-5.56728693254,-5.88830450801,-38.7427983081,0.0,10.0,0.0,0.0,0.0,10.0,0.0,0.0,0.0,10.0,0.498676914117,0.496413227191,-1.18031299512,1.0,0.0,0.0,0.0,1.0,0.0,0.0,0.0,1.0,11.2290490723,-14.7640979004,17.0034411621,0.1,0.0,0.0,0.0,0.1,0.0,0.0,0.0,0.1
1452009328418454852,161,1452009328415105104,robocape,-4.33692997376,-5.3165346505,-38.707951696,0.0,10.0,0.0,0.0,0.0,10.0,0.0,0.0,0.0,10.0,0.638093397183,0.292548245745,-0.00612527050718,1.0,0.0,0.0,0.0,1.0,0.0,0.0,0.0,1.0,-0.991538085938,-3.24165893555,7.49401611328,0.1,0.0,0.0,0.0,0.1,0.0,0.0,0.0,0.1
1452009328451433310,162,1452009328448153018,robocape,-4.0089709301,-4.77503957115,-39.5596230289,0.0,10.0,0.0,0.0,0.0,10.0,0.0,0.0,0.0,10.0,0.114782242982,0.305597735087,-0.545149075139,1.0,0.0,0.0,0.0,1.0,0.0,0.0,0.0,1.0,1.90643554688,0.143701171875,7.92990966797,0.1,0.0,0.0,0.0,0.1,0.0,0.0,0.0,0.1
1452009328484147268,163,1452009328481086969,robocape,-4.68411106807,-4.83818704759,-40.0959495427,0.0,10.0,0.0,0.0,0.0,10.0,0.0,0.0,0.0,10.0,-0.39587889604,-0.0215716048296,-0.404001537365,1.0,0.0,0.0,0.0,1.0,0.0,0.0,0.0,1.0,3.41290283203,-0.334105224609,10.4171374512,0.1,0.0,0.0,0.0,0.1,0.0,0.0,0.0,0.1
1452009328518848185,164,1452009328515561103,robocape,-5.64503023583,-4.96643404769,-40.4618559715,0.0,10.0,0.0,0.0,0.0,10.0,0.0,0.0,0.0,10.0,-0.540355385177,-0.0587227020362,-0.314785640847,1.0,0.0,0.0,0.0,1.0,0.0,0.0,0.0,1.0,4.77207641602,-6.62342651367,11.5475866699,0.1,0.0,0.0,0.0,0.1,0.0,0.0,0.0,0.1
1452009328551414893,165,1452009328548379898,robocape,-5.22328647731,-4.68052876202,-41.4161532935,0.0,10.0,0.0,0.0,0.0,10.0,0.0,0.0,0.0,10.0,0.154862817388,0.187752856851,-0.627041278659,1.0,0.0,0.0,0.0,1.0,0.0,0.0,0.0,1.0,4.53496948242,-5.56123535156,15.5484667969,0.1,0.0,0.0,0.0,0.1,0.0,0.0,0.0,0.1
1452009328585346435,166,1452009328582190036,robocape,-4.21661411181,-4.440549784,-42.6979355712,0.0,10.0,0.0,0.0,0.0,10.0,0.0,0.0,0.0,10.0,0.450074224223,0.171108100038,-0.830373627887,1.0,0.0,0.0,0.0,1.0,0.0,0.0,0.0,1.0,5.0163684082,0.197589111328,8.93342285156,0.1,0.0,0.0,0.0,0.1,0.0,0.0,0.0,0.1
1452009328619566060,167,1452009328615964889,robocape,-4.37669538348,-4.21806451096,-42.6434779144,0.0,10.0,0.0,0.0,0.0,10.0,0.0,0.0,0.0,10.0,-0.0934769542618,0.109056446639,-0.04966795433,1.0,0.0,0.0,0.0,1.0,0.0,0.0,0.0,1.0,-3.88232666016,-1.15679443359,9.79323486328,0.1,0.0,0.0,0.0,0.1,0.0,0.0,0.0,0.1
1452009328652598144,168,1452009328649504899,robocape,-4.22482898027,-4.72416619155,-43.5276025755,0.0,10.0,0.0,0.0,0.0,10.0,0.0,0.0,0.0,10.0,0.0213052887206,-0.240616604489,-0.650610254306,1.0,0.0,0.0,0.0,1.0,0.0,0.0,0.0,1.0,7.75986328125,0.452658691406,9.78724731445,0.1,0.0,0.0,0.0,0.1,0.0,0.0,0.0,0.1
1452009328685508769,169,1452009328682419061,robocape,-2.11824138249,-2.94052016246,-44.84365236,0.0,10.0,0.0,0.0,0.0,10.0,0.0,0.0,0.0,10.0,1.0422280926,0.96646115959,-0.805606229749,1.0,0.0,0.0,0.0,1.0,0.0,0.0,0.0,1.0,1.99145874023,-14.9125891113,15.8382641602,0.1,0.0,0.0,0.0,0.1,0.0,0.0,0.0,0.1
1452009328718675394,170,1452009328715358018,robocape,-0.744810169271,-2.05903916684,-45.7624961733,0.0,10.0,0.0,0.0,0.0,10.0,0.0,0.0,0.0,10.0,0.690957144821,0.469248984072,-0.643153403254,1.0,0.0,0.0,0.0,1.0,0.0,0.0,0.0,1.0,-1.14841186523,-2.11480224609,8.0891784668,0.1,0.0,0.0,0.0,0.1,0.0,0.0,0.0,0.1
1452009328754651810,171,1452009328751568078,robocape,0.495536767624,-1.42562945249,-46.4745020107,0.0,10.0,0.0,0.0,0.0,10.0,0.0,0.0,0.0,10.0,0.636761816638,0.328634078516,-0.54221959794,1.0,0.0,0.0,0.0,1.0,0.0,0.0,0.0,1.0,-3.58294921875,-1.48850463867,12.3618933105,0.1,0.0,0.0,0.0,0.1,0.0,0.0,0.0,0.1
1452009328786934185,172,1452009328783801078,robocape,2.02367918064,-0.724185478781,-47.3168068285,0.0,10.0,0.0,0.0,0.0,10.0,0.0,0.0,0.0,10.0,0.79735043037,0.353800950817,-0.64421866769,1.0,0.0,0.0,0.0,1.0,0.0,0.0,0.0,1.0,-1.37713623047,-1.5675402832,12.6037902832,0.1,0.0,0.0,0.0,0.1,0.0,0.0,0.0,0.1
1452009328821300935,173,1452009328816276073,robocape,3.76771883259,-0.0174427841968,-48.2097359888,0.0,10.0,0.0,0.0,0.0,10.0,0.0,0.0,0.0,10.0,0.924915846585,0.341949883966,-0.703740318053,1.0,0.0,0.0,0.0,1.0,0.0,0.0,0.0,1.0,0.580792236328,-1.62981079102,9.93573852539,0.1,0.0,0.0,0.0,0.1,0.0,0.0,0.0,0.1
1452009328854744102,174,1452009328851593017,robocape,5.88461519302,0.848397224471,-49.0733808231,0.0,10.0,0.0,0.0,0.0,10.0,0.0,0.0,0.0,10.0,1.13876768212,0.409594175654,-0.727975083973,1.0,0.0,0.0,0.0,1.0,0.0,0.0,0.0,1.0,-0.807121582031,-3.00095947266,10.3452868652,0.1,0.0,0.0,0.0,0.1,0.0,0.0,0.0,0.1
1452009328886204477,175,1452009328883043050,robocape,8.7781250703,1.66348904474,-49.6015331441,0.0,10.0,0.0,0.0,0.0,10.0,0.0,0.0,0.0,10.0,1.56247661155,0.383228880862,-0.565655415533,1.0,0.0,0.0,0.0,1.0,0.0,0.0,0.0,1.0,-2.2956262207,-3.82005615234,8.57177490234,0.1,0.0,0.0,0.0,0.1,0.0,0.0,0.0,0.1
1452009328919644394,176,1452009328916460990,robocape,12.2448864872,2.43855113904,-49.8687254492,0.0,10.0,0.0,0.0,0.0,10.0,0.0,0.0,0.0,10.0,1.88178962625,0.365785175722,-0.461925291074,1.0,0.0,0.0,0.0,1.0,0.0,0.0,0.0,1.0,-4.26792480469,-4.07512573242,7.80536865234,0.1,0.0,0.0,0.0,0.1,0.0,0.0,0.0,0.1
1452009328954166144,177,1452009328950607061,robocape,15.7311544744,3.29462572183,-49.3615583985,0.0,10.0,0.0,0.0,0.0,10.0,0.0,0.0,0.0,10.0,1.87619698796,0.490554272793,-0.051265850984,1.0,0.0,0.0,0.0,1.0,0.0,0.0,0.0,1.0,-1.19990478516,-3.99010253906,7.10602294922,0.1,0.0,0.0,0.0,0.1,0.0,0.0,0.0,0.1
1452009328988144894,178,1452009328984752893,robocape,20.3641305822,4.30214118814,-48.9997470037,0.0,10.0,0.0,0.0,0.0,10.0,0.0,0.0,0.0,10.0,2.53919094134,0.544083810703,-0.285091394693,1.0,0.0,0.0,0.0,1.0,0.0,0.0,0.0,1.0,-0.36404296875,-4.46910644531,4.0583605957,0.1,0.0,0.0,0.0,0.1,0.0,0.0,0.0,0.1
1452009329021577269,179,1452009329017999887,robocape,25.7376556496,5.76490012951,-48.1318401151,0.0,10.0,0.0,0.0,0.0,10.0,0.0,0.0,0.0,10.0,2.96582934797,0.859801557932,-0.243812397797,1.0,0.0,0.0,0.0,1.0,0.0,0.0,0.0,1.0,2.04654418945,-3.13508056641,5.60554321289,0.1,0.0,0.0,0.0,0.1,0.0,0.0,0.0,0.1
1452009329053334435,180,1452009329050126075,robocape,31.1894113363,6.53981275717,-46.6237464649,0.0,10.0,0.0,0.0,0.0,10.0,0.0,0.0,0.0,10.0,3.00364623545,0.700810840854,0.146207543845,1.0,0.0,0.0,0.0,1.0,0.0,0.0,0.0,1.0,-1.00351318359,-4.82237182617,1.12326416016,0.1,0.0,0.0,0.0,0.1,0.0,0.0,0.0,0.1
1452009329088350185,181,1452009329085026979,robocape,33.9465949952,9.20081269272,-44.6677469288,0.0,10.0,0.0,0.0,0.0,10.0,0.0,0.0,0.0,10.0,1.50042495815,1.70016203991,-0.164183881203,1.0,0.0,0.0,0.0,1.0,0.0,0.0,0.0,1.0,1.81063476563,19.6194012451,2.08486450195,0.1,0.0,0.0,0.0,0.1,0.0,0.0,0.0,0.1
1452009329121031269,182,1452009329117744922,robocape,30.9113591448,10.4333937054,-43.2402136333,0.0,10.0,0.0,0.0,0.0,10.0,0.0,0.0,0.0,10.0,-1.8359832555,0.951414299431,0.440886318463,1.0,0.0,0.0,0.0,1.0,0.0,0.0,0.0,1.0,-1.5328125,19.6194012451,7.75507324219,0.1,0.0,0.0,0.0,0.1,0.0,0.0,0.0,0.1
1452009329154623019,183,1452009329151413917,robocape,25.9430699498,9.91384659607,-41.9594994322,0.0,10.0,0.0,0.0,0.0,10.0,0.0,0.0,0.0,10.0,-2.93986352734,0.0889495804086,1.04462493758,1.0,0.0,0.0,0.0,1.0,0.0,0.0,0.0,1.0,-7.21499633789,-4.99122070313,1.93397827148,0.1,0.0,0.0,0.0,0.1,0.0,0.0,0.0,0.1
1452009329187139144,184,1452009329183842897,robocape,23.2039069327,9.77956442845,-41.3778631062,0.0,10.0,0.0,0.0,0.0,10.0,0.0,0.0,0.0,10.0,-1.53784237147,0.0609863889628,0.387623096661,1.0,0.0,0.0,0.0,1.0,0.0,0.0,0.0,1.0,-0.480201416016,-0.832269287109,8.23407714844,0.1,0.0,0.0,0.0,0.1,0.0,0.0,0.0,0.1
1452009329220406269,185,1452009329217199087,robocape,20.4421099472,9.58584497139,-41.148879673,0.0,10.0,0.0,0.0,0.0,10.0,0.0,0.0,0.0,10.0,-1.4929681071,-0.0511326929295,0.196141814284,1.0,0.0,0.0,0.0,1.0,0.0,0.0,0.0,1.0,0.258662109375,0.544866943359,9.50583251953,0.1,0.0,0.0,0.0,0.1,0.0,0.0,0.0,0.1
1452009329253901227,186,1452009329250751018,robocape,17.5358903965,8.91563127985,-40.8263191248,0.0,10.0,0.0,0.0,0.0,10.0,0.0,0.0,0.0,10.0,-1.58058610696,-0.279631914458,0.33702303595,1.0,0.0,0.0,0.0,1.0,0.0,0.0,0.0,1.0,-1.73758666992,-0.610729980469,7.10362792969,0.1,0.0,0.0,0.0,0.1,0.0,0.0,0.0,0.1
1452009329286117310,187,1452009329282968044,robocape,14.8333522346,8.36615511325,-40.7570385554,0.0,10.0,0.0,0.0,0.0,10.0,0.0,0.0,0.0,10.0,-1.42931855705,-0.267248215389,0.135155425322,1.0,0.0,0.0,0.0,1.0,0.0,0.0,0.0,1.0,0.166453857422,0.765208740234,10.1105749512,0.1,0.0,0.0,0.0,0.1,0.0,0.0,0.0,0.1
1452009329319383936,188,1452009329316214084,robocape,12.1732569004,7.76637519796,-40.7398819884,0.0,10.0,0.0,0.0,0.0,10.0,0.0,0.0,0.0,10.0,-1.39589588537,-0.303600364269,0.0864195773731,1.0,0.0,0.0,0.0,1.0,0.0,0.0,0.0,1.0,1.31366821289,0.572409667969,8.90348510742,0.1,0.0,0.0,0.0,0.1,0.0,0.0,0.0,0.1
1452009329350755436,189,1452009329347322940,robocape,9.41844315257,7.22248736161,-40.9858546876,0.0,10.0,0.0,0.0,0.0,10.0,0.0,0.0,0.0,10.0,-1.41839959658,-0.302135625669,-0.0984038022784,1.0,0.0,0.0,0.0,1.0,0.0,0.0,0.0,1.0,0.314945068359,0.323327636719,8.74182128906,0.1,0.0,0.0,0.0,0.1,0.0,0.0,0.0,0.1
1452009329384023352,190,1452009329380781888,robocape,6.42352647951,6.2533698622,-41.0109702713,0.0,10.0,0.0,0.0,0.0,10.0,0.0,0.0,0.0,10.0,-1.56460714042,-0.503870078243,0.0459395288039,1.0,0.0,0.0,0.0,1.0,0.0,0.0,0.0,1.0,1.81302978516,0.301772460938,8.71547607422,0.1,0.0,0.0,0.0,0.1,0.0,0.0,0.0,0.1
1452009329417783102,191,1452009329414489030,robocape,3.30242789959,5.18039399241,-41.2416281916,0.0,10.0,0.0,0.0,0.0,10.0,0.0,0.0,0.0,10.0,-1.6170714139,-0.567519628296,-0.11411645271,1.0,0.0,0.0,0.0,1.0,0.0,0.0,0.0,1.0,1.47054199219,0.922082519531,9.46391967773,0.1,0.0,0.0,0.0,0.1,0.0,0.0,0.0,0.1
1452009329450728936,192,1452009329447554111,robocape,-0.0509446310128,3.97627290275,-41.6311867123,0.0,10.0,0.0,0.0,0.0,10.0,0.0,0.0,0.0,10.0,-1.7367805049,-0.631701810567,-0.258726099901,1.0,0.0,0.0,0.0,1.0,0.0,0.0,0.0,1.0,4.59125244141,-0.97716796875,6.75515258789,0.1,0.0,0.0,0.0,0.1,0.0,0.0,0.0,0.1
1452009329483935186,193,1452009329480864048,robocape,-3.85899421727,2.85929267323,-42.1822209269,0.0,10.0,0.0,0.0,0.0,10.0,0.0,0.0,0.0,10.0,-1.98338922184,-0.567519628296,-0.422111032778,1.0,0.0,0.0,0.0,1.0,0.0,0.0,0.0,1.0,1.58071289063,-0.432301025391,8.27958251953,0.1,0.0,0.0,0.0,0.1,0.0,0.0,0.0,0.1
1452009329517424311,194,1452009329514276027,robocape,-6.72933655029,2.30008379503,-43.631555754,0.0,10.0,0.0,0.0,0.0,10.0,0.0,0.0,0.0,10.0,-1.49616390041,-0.202533400901,-1.00441120512,1.0,0.0,0.0,0.0,1.0,0.0,0.0,0.0,1.0,7.2078112793,-14.679074707,19.1158483887,0.1,0.0,0.0,0.0,0.1,0.0,0.0,0.0,0.1
1452009329550846019,195,1452009329547744989,robocape,-5.27806024837,3.93614168043,-46.3612327741,0.0,10.0,0.0,0.0,0.0,10.0,0.0,0.0,0.0,10.0,0.809068339166,1.04835336311,-1.65821725274,1.0,0.0,0.0,0.0,1.0,0.0,0.0,0.0,1.0,12.0637133789,-8.76098144531,13.6659814453,0.1,0.0,0.0,0.0,0.1,0.0,0.0,0.0,0.1
1452009329585260769,196,1452009329582134962,robocape,-3.39424768012,4.90635781982,-47.4191696341,0.0,10.0,0.0,0.0,0.0,10.0,0.0,0.0,0.0,10.0,1.02238754248,0.57857174682,-0.719985600703,1.0,0.0,0.0,0.0,1.0,0.0,0.0,0.0,1.0,-0.589174804688,-2.08127197266,9.02443359375,0.1,0.0,0.0,0.0,0.1,0.0,0.0,0.0,0.1
1452009329618910686,197,1452009329615648984,robocape,-1.35369020723,5.79510026591,-48.5909393063,0.0,10.0,0.0,0.0,0.0,10.0,0.0,0.0,0.0,10.0,1.13011240858,0.525175366964,-0.834767843685,1.0,0.0,0.0,0.0,1.0,0.0,0.0,0.0,1.0,2.29921875,-0.696950683594,13.0875842285,0.1,0.0,0.0,0.0,0.1,0.0,0.0,0.0,0.1
1452009329652054769,198,1452009329648936986,robocape,1.30462517049,6.72803491965,-49.7107817826,0.0,10.0,0.0,0.0,0.0,10.0,0.0,0.0,0.0,10.0,1.4768559825,0.526506947509,-0.853143655207,1.0,0.0,0.0,0.0,1.0,0.0,0.0,0.0,1.0,2.2608984375,-1.88727539063,9.16573974609,0.1,0.0,0.0,0.0,0.1,0.0,0.0,0.0,0.1
1452009329685199019,199,1452009329682087898,robocape,4.68170640161,8.06568211093,-50.7872958528,0.0,10.0,0.0,0.0,0.0,10.0,0.0,0.0,0.0,10.0,1.88831437092,0.714392962414,-0.915994256933,1.0,0.0,0.0,0.0,1.0,0.0,0.0,0.0,1.0,-1.02506835938,-2.63931152344,10.750045166,0.1,0.0,0.0,0.0,0.1,0.0,0.0,0.0,0.1
1452009329719538394,200,1452009329716008901,robocape,8.75524978925,9.23712985536,-51.3026516914,0.0,10.0,0.0,0.0,0.0,10.0,0.0,0.0,0.0,10.0,2.24757480197,0.618519163171,-0.656602366759,1.0,0.0,0.0,0.0,1.0,0.0,0.0,0.0,1.0,-1.54478759766,-2.89318359375,7.68322265625,0.1,0.0,0.0,0.0,0.1,0.0,0.0,0.0,0.1
1452009329752342061,201,1452009329749309062,robocape,13.1120658105,10.4081880285,-51.3888562996,0.0,10.0,0.0,0.0,0.0,10.0,0.0,0.0,0.0,10.0,2.39644550691,0.631435494458,-0.49934270439,1.0,0.0,0.0,0.0,1.0,0.0,0.0,0.0,1.0,-0.961600341797,-5.1768347168,3.52307373047,0.1,0.0,0.0,0.0,0.1,0.0,0.0,0.0,0.1
1452009329785393269,202,1452009329782299041,robocape,18.0734386453,11.7577106931,-50.9836731774,0.0,10.0,0.0,0.0,0.0,10.0,0.0,0.0,0.0,10.0,2.71376115079,0.774314086941,-0.368581494867,1.0,0.0,0.0,0.0,1.0,0.0,0.0,0.0,1.0,-2.68840942383,-4.9852331543,2.43573486328,0.1,0.0,0.0,0.0,0.1,0.0,0.0,0.0,0.1
1452009329819210144,203,1452009329816023111,robocape,23.3799890112,12.8062139466,-49.8231593755,0.0,10.0,0.0,0.0,0.0,10.0,0.0,0.0,0.0,10.0,2.84172604117,0.753940904601,-0.00745685105222,1.0,0.0,0.0,0.0,1.0,0.0,0.0,0.0,1.0,2.4489074707,-1.78668457031,2.91114624023,0.1,0.0,0.0,0.0,0.1,0.0,0.0,0.0,0.1
1452009329855839144,204,1452009329852792978,robocape,29.8583763971,13.3215381923,-46.4047152247,0.0,10.0,0.0,0.0,0.0,10.0,0.0,0.0,0.0,10.0,3.13214375804,1.03916545735,1.22598620782,1.0,0.0,0.0,0.0,1.0,0.0,0.0,0.0,1.0,-1.49568969727,11.2781469727,2.38184692383,0.1,0.0,0.0,0.0,0.1,0.0,0.0,0.0,0.1
1452009329887507311,205,1452009329882462024,robocape,28.3909643635,17.0558507471,-45.524090919,0.0,10.0,0.0,0.0,0.0,10.0,0.0,0.0,0.0,10.0,-0.780705673557,1.9378491672,-0.731703509499,1.0,0.0,0.0,0.0,1.0,0.0,0.0,0.0,1.0,1.41306152344,19.6194012451,4.28708496094,0.1,0.0,0.0,0.0,0.1,0.0,0.0,0.0,0.1
1452009329918365227,206,1452009329915297985,robocape,24.0050428353,18.1469495671,-43.7583362517,0.0,10.0,0.0,0.0,0.0,10.0,0.0,0.0,0.0,10.0,-2.75916804738,0.863663141513,0.836765214503,1.0,0.0,0.0,0.0,1.0,0.0,0.0,0.0,1.0,-4.57448730469,9.88185058594,5.07145385742,0.1,0.0,0.0,0.0,0.1,0.0,0.0,0.0,0.1
1452009329954281269,207,1452009329950402975,robocape,19.714634877,17.4906468252,-42.1232906859,0.0,10.0,0.0,0.0,0.0,10.0,0.0,0.0,0.0,10.0,-2.68726269794,-0.0712395591596,1.20228407412,1.0,0.0,0.0,0.0,1.0,0.0,0.0,0.0,1.0,-2.42256225586,-4.24517211914,2.71595214844,0.1,0.0,0.0,0.0,0.1,0.0,0.0,0.0,0.1
1452009329986842061,208,1452009329983686923,robocape,16.8369582586,17.1633179307,-41.2009453216,0.0,10.0,0.0,0.0,0.0,10.0,0.0,0.0,0.0,10.0,-1.71094784232,-0.0434095257683,0.60933125741,1.0,0.0,0.0,0.0,1.0,0.0,0.0,0.0,1.0,-3.3757800293,-2.19743041992,8.27239746094,0.1,0.0,0.0,0.0,0.1,0.0,0.0,0.0,0.1
1452009330021863811,209,1452009330017903089,robocape,15.3055799178,17.1128408872,-40.9211526892,0.0,10.0,0.0,0.0,0.0,10.0,0.0,0.0,0.0,10.0,-0.834767843685,0.0185089695761,0.120508039326,1.0,0.0,0.0,0.0,1.0,0.0,0.0,0.0,1.0,-2.3339465332,-0.801134033203,8.89630004883,0.1,0.0,0.0,0.0,0.1,0.0,0.0,0.0,0.1
1452009330053130228,210,1452009330050101041,robocape,13.5660392239,16.9629681853,-40.8409413165,0.0,10.0,0.0,0.0,0.0,10.0,0.0,0.0,0.0,10.0,-0.911067408916,-0.0591221761998,0.0312921428084,1.0,0.0,0.0,0.0,1.0,0.0,0.0,0.0,1.0,-2.40819213867,0.507744140625,11.6948803711,0.1,0.0,0.0,0.0,0.1,0.0,0.0,0.0,0.1
1452009330087347936,211,1452009330083971977,robocape,12.0572733174,16.5639493595,-40.763011297,0.0,10.0,0.0,0.0,0.0,10.0,0.0,0.0,0.0,10.0,-0.789760421263,-0.187486540742,0.0553937506736,1.0,0.0,0.0,0.0,1.0,0.0,0.0,0.0,1.0,-1.83817749023,-1.74357421875,8.63883544922,0.1,0.0,0.0,0.0,0.1,0.0,0.0,0.0,0.1
1452009330119564436,212,1452009330116514921,robocape,10.7888747377,16.2862220559,-40.7524860457,0.0,10.0,0.0,0.0,0.0,10.0,0.0,0.0,0.0,10.0,-0.646748670726,-0.128231206487,-0.015313176268,1.0,0.0,0.0,0.0,1.0,0.0,0.0,0.0,1.0,-0.769998779297,-1.25738525391,10.2243383789,0.1,0.0,0.0,0.0,0.1,0.0,0.0,0.0,0.1
1452009330154114019,213,1452009330149935007,robocape,9.82023249779,15.9245980204,-40.696187205,0.0,10.0,0.0,0.0,0.0,10.0,0.0,0.0,0.0,10.0,-0.496146911082,-0.166713884239,0.00865527354276,1.0,0.0,0.0,0.0,1.0,0.0,0.0,0.0,1.0,-2.21060302734,-0.713715820313,10.8973388672,0.1,0.0,0.0,0.0,0.1,0.0,0.0,0.0,0.1
1452009330187444144,214,1452009330183954954,robocape,8.89726734002,15.6895866913,-40.6427873661,0.0,10.0,0.0,0.0,0.0,10.0,0.0,0.0,0.0,10.0,-0.470713722672,-0.10053433115,-0.0129163312869,1.0,0.0,0.0,0.0,1.0,0.0,0.0,0.0,1.0,-2.53033813477,-0.864602050781,9.77048217773,0.1,0.0,0.0,0.0,0.1,0.0,0.0,0.0,0.1
1452009330221742853,215,1452009330217850923,robocape,8.03592298933,15.5504196157,-40.6070497301,0.0,10.0,0.0,0.0,0.0,10.0,0.0,0.0,0.0,10.0,-0.435027364064,-0.050733218766,-0.0374174133156,1.0,0.0,0.0,0.0,1.0,0.0,0.0,0.0,1.0,0.0203576660156,-0.431103515625,10.0135766602,0.1,0.0,0.0,0.0,0.1,0.0,0.0,0.0,0.1
1452009330255660978,216,1452009330252458095,robocape,7.23350066554,15.2441172057,-40.5461559279,0.0,10.0,0.0,0.0,0.0,10.0,0.0,0.0,0.0,10.0,-0.410526282036,-0.137685428357,-0.00852211548825,1.0,0.0,0.0,0.0,1.0,0.0,0.0,0.0,1.0,-1.53999755859,-0.323327636719,10.3764221191,0.1,0.0,0.0,0.0,0.1,0.0,0.0,0.0,0.1
1452009330287955186,217,1452009330284749984,robocape,6.26297893111,15.0593154256,-40.5690937467,0.0,10.0,0.0,0.0,0.0,10.0,0.0,0.0,0.0,10.0,-0.486559531157,-0.0781637779938,-0.06711165947,1.0,0.0,0.0,0.0,1.0,0.0,0.0,0.0,1.0,0.811911621094,0.585582275391,9.12981445313,0.1,0.0,0.0,0.0,0.1,0.0,0.0,0.0,0.1
1452009330321605436,218,1452009330318005084,robocape,5.31065223169,14.8407257863,-40.5574270178,0.0,10.0,0.0,0.0,0.0,10.0,0.0,0.0,0.0,10.0,-0.483896370067,-0.0944090606433,-0.0471379512944,1.0,0.0,0.0,0.0,1.0,0.0,0.0,0.0,1.0,2.08366699219,0.140108642578,9.64833618164,0.1,0.0,0.0,0.0,0.1,0.0,0.0,0.0,0.1
1452009330353785728,219,1452009330350518941,robocape,4.22099127103,14.4932948001,-40.594563331,0.0,10.0,0.0,0.0,0.0,10.0,0.0,0.0,0.0,10.0,-0.551407503701,-0.164450197312,-0.0664458691975,1.0,0.0,0.0,0.0,1.0,0.0,0.0,0.0,1.0,-2.80576538086,-0.348475341797,10.310559082,0.1,0.0,0.0,0.0,0.1,0.0,0.0,0.0,0.1
1452009330386401311,220,1452009330383138895,robocape,3.09386082407,14.1355748037,-40.6543939736,0.0,10.0,0.0,0.0,0.0,10.0,0.0,0.0,0.0,10.0,-0.569516999113,-0.169643361438,-0.0836232582285,1.0,0.0,0.0,0.0,1.0,0.0,0.0,0.0,1.0,0.762813720703,0.149688720703,9.77646972656,0.1,0.0,0.0,0.0,0.1,0.0,0.0,0.0,0.1
1452009330420429519,221,1452009330417049884,robocape,1.75351269797,13.5904720448,-40.7297468356,0.0,10.0,0.0,0.0,0.0,10.0,0.0,0.0,0.0,10.0,-0.682435029333,-0.269112428153,-0.0868190515366,1.0,0.0,0.0,0.0,1.0,0.0,0.0,0.0,1.0,0.986748046875,-0.352067871094,8.9286328125,0.1,0.0,0.0,0.0,0.1,0.0,0.0,0.0,0.1
1452009330453774478,222,1452009330450727939,robocape,0.286977445826,12.9635950672,-40.8170500133,0.0,10.0,0.0,0.0,0.0,10.0,0.0,0.0,0.0,10.0,-0.749679846857,-0.311190373376,-0.100268015041,1.0,0.0,0.0,0.0,1.0,0.0,0.0,0.0,1.0,-2.39142700195,-1.61903320313,11.2494067383,0.1,0.0,0.0,0.0,0.1,0.0,0.0,0.0,0.1
1452009330486069728,223,1452009330482908964,robocape,-1.29349623604,12.7701091011,-41.3512958431,0.0,10.0,0.0,0.0,0.0,10.0,0.0,0.0,0.0,10.0,-0.756071433473,-0.0669785014155,-0.382030458372,1.0,0.0,0.0,0.0,1.0,0.0,0.0,0.0,1.0,4.1805065918,0.346080322266,10.0938098145,0.1,0.0,0.0,0.0,0.1,0.0,0.0,0.0,0.1
1452009330519992644,224,1452009330516830921,robocape,-2.7306741545,12.5305143482,-42.0489335896,0.0,10.0,0.0,0.0,0.0,10.0,0.0,0.0,0.0,10.0,-0.665923430574,-0.0745685105222,-0.48869006003,1.0,0.0,0.0,0.0,1.0,0.0,0.0,0.0,1.0,1.76393188477,1.56394775391,11.1751611328,0.1,0.0,0.0,0.0,0.1,0.0,0.0,0.0,0.1
1452009330553528644,225,1452009330550482988,robocape,-4.17209939095,11.7192087891,-42.2080889629,0.0,10.0,0.0,0.0,0.0,10.0,0.0,0.0,0.0,10.0,-0.735964567243,-0.395213105768,-0.188951279341,1.0,0.0,0.0,0.0,1.0,0.0,0.0,0.0,1.0,0.0838256835938,-2.13156738281,12.2110070801,0.1,0.0,0.0,0.0,0.1,0.0,0.0,0.0,0.1
1452009330585819728,226,1452009330582740068,robocape,-5.37170124953,11.050175368,-42.8686654281,0.0,10.0,0.0,0.0,0.0,10.0,0.0,0.0,0.0,10.0,-0.561926990007,-0.283360339984,-0.498011123845,1.0,0.0,0.0,0.0,1.0,0.0,0.0,0.0,1.0,1.53999755859,0.209564208984,11.7439782715,0.1,0.0,0.0,0.0,0.1,0.0,0.0,0.0,0.1
1452009330619368478,227,1452009330616223096,robocape,-6.50284532252,10.6454310933,-43.6414933448,0.0,10.0,0.0,0.0,0.0,10.0,0.0,0.0,0.0,10.0,-0.522911680037,-0.12623383567,-0.570049631331,1.0,0.0,0.0,0.0,1.0,0.0,0.0,0.0,1.0,2.57464599609,-0.1916015625,11.9176171875,0.1,0.0,0.0,0.0,0.1,0.0,0.0,0.0,0.1
1452009330651560978,228,1452009330648427009,robocape,-7.59870824555,10.2434199509,-44.4551293599,0.0,10.0,0.0,0.0,0.0,10.0,0.0,0.0,0.0,10.0,-0.507997977933,-0.110920659402,-0.607067570484,1.0,0.0,0.0,0.0,1.0,0.0,0.0,0.0,1.0,1.27774291992,-0.0790356445313,11.6613500977,0.1,0.0,0.0,0.0,0.1,0.0,0.0,0.0,0.1
1452009330684420769,229,1452009330681387901,robocape,-8.58211913454,9.96012203756,-45.4772111143,0.0,10.0,0.0,0.0,0.0,10.0,0.0,0.0,0.0,10.0,-0.438489473482,-0.017976337358,-0.737562463897,1.0,0.0,0.0,0.0,1.0,0.0,0.0,0.0,1.0,1.62861328125,0.28740234375,12.4409289551,0.1,0.0,0.0,0.0,0.1,0.0,0.0,0.0,0.1
1452009330719030103,230,1452009330715882062,robocape,-9.22885537305,9.82944438929,-46.5419863087,0.0,10.0,0.0,0.0,0.0,10.0,0.0,0.0,0.0,10.0,-0.264052422081,0.0766990393943,-0.763528284526,1.0,0.0,0.0,0.0,1.0,0.0,0.0,0.0,1.0,1.21427490234,-0.456251220703,13.6120935059,0.1,0.0,0.0,0.0,0.1,0.0,0.0,0.0,0.1
1452009330751502853,231,1452009330748078107,robocape,-9.79179694997,9.64828891291,-47.2857985443,0.0,10.0,0.0,0.0,0.0,10.0,0.0,0.0,0.0,10.0,-0.249804510249,0.0227700273202,-0.583365436782,1.0,0.0,0.0,0.0,1.0,0.0,0.0,0.0,1.0,0.997525634766,-2.09085205078,10.8410559082,0.1,0.0,0.0,0.0,0.1,0.0,0.0,0.0,0.1
1452009330784162561,232,1452009330781114101,robocape,-9.86324587974,9.67058406176,-48.1491101037,0.0,10.0,0.0,0.0,0.0,10.0,0.0,0.0,0.0,10.0,0.015845808486,0.145541753573,-0.642887087145,1.0,0.0,0.0,0.0,1.0,0.0,0.0,0.0,1.0,2.91473876953,-3.57456665039,13.8396203613,0.1,0.0,0.0,0.0,0.1,0.0,0.0,0.0,0.1
1452009330817403603,233,1452009330814295053,robocape,-9.40391672401,9.78885890666,-49.177814747,0.0,10.0,0.0,0.0,0.0,10.0,0.0,0.0,0.0,10.0,0.309725634776,0.213718677479,-0.740625099151,1.0,0.0,0.0,0.0,1.0,0.0,0.0,0.0,1.0,2.92312133789,-0.579594726562,13.3282836914,0.1,0.0,0.0,0.0,0.1,0.0,0.0,0.0,0.1
1452009330850932020,234,1452009330847824096,robocape,-9.09086952296,10.0626418027,-49.9073474098,0.0,10.0,0.0,0.0,0.0,10.0,0.0,0.0,0.0,10.0,0.211721306661,0.260190838501,-0.558198564481,1.0,0.0,0.0,0.0,1.0,0.0,0.0,0.0,1.0,4.1733215332,-1.4908996582,9.580078125,0.1,0.0,0.0,0.0,0.1,0.0,0.0,0.0,0.1
1452009330884002270,235,1452009330880781888,robocape,-8.32350590411,10.3375360548,-50.5792567585,0.0,10.0,0.0,0.0,0.0,10.0,0.0,0.0,0.0,10.0,0.450340540332,0.252068197176,-0.527838528054,1.0,0.0,0.0,0.0,1.0,0.0,0.0,0.0,1.0,-0.207169189453,-0.991538085938,12.3044128418,0.1,0.0,0.0,0.0,0.1,0.0,0.0,0.0,0.1
1452009330917580186,236,1452009330914442062,robocape,-6.97026859273,10.9736483858,-51.7509338058,0.0,10.0,0.0,0.0,0.0,10.0,0.0,0.0,0.0,10.0,0.812530448583,0.487358479485,-0.831039418159,1.0,0.0,0.0,0.0,1.0,0.0,0.0,0.0,1.0,4.79243408203,-0.067060546875,15.8418566895,0.1,0.0,0.0,0.0,0.1,0.0,0.0,0.0,0.1
1452009330950814936,237,1452009330947701930,robocape,-5.83132244049,11.4841303468,-52.2118532456,0.0,10.0,0.0,0.0,0.0,10.0,0.0,0.0,0.0,10.0,0.641821822709,0.3488741028,-0.415719446161,1.0,0.0,0.0,0.0,1.0,0.0,0.0,0.0,1.0,-0.310155029297,-3.36260742188,10.5177282715,0.1,0.0,0.0,0.0,0.1,0.0,0.0,0.0,0.1
1452009330983972270,238,1452009330980715036,robocape,-3.55966764164,12.1646195101,-53.1314705049,0.0,10.0,0.0,0.0,0.0,10.0,0.0,0.0,0.0,10.0,1.29975577001,0.469914774344,-0.724379816502,1.0,0.0,0.0,0.0,1.0,0.0,0.0,0.0,1.0,-1.17116455078,-0.544866943359,13.7198693848,0.1,0.0,0.0,0.0,0.1,0.0,0.0,0.0,0.1
1452009331017215811,239,1452009331013968944,robocape,-1.15809802129,12.8113142673,-53.8456818653,0.0,10.0,0.0,0.0,0.0,10.0,0.0,0.0,0.0,10.0,1.36407111034,0.426771564685,-0.63889234551,1.0,0.0,0.0,0.0,1.0,0.0,0.0,0.0,1.0,5.08582397461,-1.00111816406,9.37171142578,0.1,0.0,0.0,0.0,0.1,0.0,0.0,0.0,0.1
1452009331052311895,240,1452009331048979997,robocape,1.57206569555,13.5113555427,-54.0408961559,0.0,10.0,0.0,0.0,0.0,10.0,0.0,0.0,0.0,10.0,1.48844073325,0.427703671067,-0.353667792763,1.0,0.0,0.0,0.0,1.0,0.0,0.0,0.0,1.0,0.740061035156,-1.98187866211,8.09516601563,0.1,0.0,0.0,0.0,0.1,0.0,0.0,0.0,0.1
1452009331083961228,241,1452009331080712080,robocape,4.95809515902,14.2398140309,-53.9444257172,0.0,10.0,0.0,0.0,0.0,10.0,0.0,0.0,0.0,10.0,1.81321322818,0.44288368928,-0.229165011801,1.0,0.0,0.0,0.0,1.0,0.0,0.0,0.0,1.0,0.4981640625,-1.55436767578,8.68194580078,0.1,0.0,0.0,0.0,0.1,0.0,0.0,0.0,0.1
1452009331120553145,242,1452009331117379903,robocape,8.46609463961,14.8122000598,-53.7368412238,0.0,10.0,0.0,0.0,0.0,10.0,0.0,0.0,0.0,10.0,1.88405331318,0.368448336812,-0.207726565026,1.0,0.0,0.0,0.0,1.0,0.0,0.0,0.0,1.0,5.47381713867,-1.31007568359,7.17188598633,0.1,0.0,0.0,0.0,0.1,0.0,0.0,0.0,0.1
1452009331150460186,243,1452009331147414922,robocape,11.9597857622,15.6199426349,-52.9776545734,0.0,10.0,0.0,0.0,0.0,10.0,0.0,0.0,0.0,10.0,1.80775374795,0.533564324397,0.0528637476381,1.0,0.0,0.0,0.0,1.0,0.0,0.0,0.0,1.0,2.39861206055,-0.975970458984,6.77551025391,0.1,0.0,0.0,0.0,0.1,0.0,0.0,0.0,0.1
1452009331184141895,244,1452009331180809020,robocape,15.6416642016,16.6995770285,-51.8717928892,0.0,10.0,0.0,0.0,0.0,10.0,0.0,0.0,0.0,10.0,1.8728680366,0.732236141717,0.141147537774,1.0,0.0,0.0,0.0,1.0,0.0,0.0,0.0,1.0,1.76872192383,0.360450439453,8.37538330078,0.1,0.0,0.0,0.0,0.1,0.0,0.0,0.0,0.1
1452009331217809520,245,1452009331214411020,robocape,18.7500294866,17.2691232295,-50.837963985,0.0,10.0,0.0,0.0,0.0,10.0,0.0,0.0,0.0,10.0,1.58857559023,0.482564789522,0.151533866026,1.0,0.0,0.0,0.0,1.0,0.0,0.0,0.0,1.0,4.78285400391,-1.08973388672,6.91561889648,0.1,0.0,0.0,0.0,0.1,0.0,0.0,0.0,0.1
1452009331250786020,246,1452009331247765064,robocape,22.0651872273,18.7193900809,-49.0515523551,0.0,10.0,0.0,0.0,0.0,10.0,0.0,0.0,0.0,10.0,1.58151821334,1.06872654545,0.316516695556,1.0,0.0,0.0,0.0,1.0,0.0,0.0,0.0,1.0,3.33147216797,4.57089477539,8.71906860352,0.1,0.0,0.0,0.0,0.1,0.0,0.0,0.0,0.1
1452009331284085270,247,1452009331281075954,robocape,22.3178528524,20.2691898401,-47.488883135,0.0,10.0,0.0,0.0,0.0,10.0,0.0,0.0,0.0,10.0,-0.0817590454654,1.06326706521,0.301602993451,1.0,0.0,0.0,0.0,1.0,0.0,0.0,0.0,1.0,1.58550292969,18.9841223145,11.5667468262,0.1,0.0,0.0,0.0,0.1,0.0,0.0,0.0,0.1
1452009331317648978,248,1452009331314296007,robocape,20.247626271,21.2181312913,-46.2714263004,0.0,10.0,0.0,0.0,0.0,10.0,0.0,0.0,0.0,10.0,-1.33863792193,0.667920801392,0.42810314523,1.0,0.0,0.0,0.0,1.0,0.0,0.0,0.0,1.0,-1.13883178711,5.74205932617,10.0926123047,0.1,0.0,0.0,0.0,0.1,0.0,0.0,0.0,0.1
1452009331350469436,249,1452009331347467899,robocape,18.1879801488,21.3153967406,-45.2099670818,0.0,10.0,0.0,0.0,0.0,10.0,0.0,0.0,0.0,10.0,-1.32212632317,0.198405501211,0.552339610082,1.0,0.0,0.0,0.0,1.0,0.0,0.0,0.0,1.0,3.38057006836,1.67890869141,9.66270629883,0.1,0.0,0.0,0.0,0.1,0.0,0.0,0.0,0.1
1452009331383811103,250,1452009331380805015,robocape,15.8676631833,21.2317168654,-44.6162067625,0.0,10.0,0.0,0.0,0.0,10.0,0.0,0.0,0.0,10.0,-1.35142109516,0.0296942461544,0.337821984277,1.0,0.0,0.0,0.0,1.0,0.0,0.0,0.0,1.0,-1.19870727539,0.280217285156,10.3907922363,0.1,0.0,0.0,0.0,0.1,0.0,0.0,0.0,0.1
1452009331421486520,251,1452009331418073892,robocape,13.4985830111,20.6353949424,-44.0813956317,0.0,10.0,0.0,0.0,0.0,10.0,0.0,0.0,0.0,10.0,-1.36939743252,-0.254465042157,0.39587889604,1.0,0.0,0.0,0.0,1.0,0.0,0.0,0.0,1.0,-2.17827026367,-2.91473876953,6.53481079102,0.1,0.0,0.0,0.0,0.1,0.0,0.0,0.0,0.1
1452009331454083770,252,1452009331450618982,robocape,11.8915227955,20.3127897832,-43.940962172,0.0,10.0,0.0,0.0,0.0,10.0,0.0,0.0,0.0,10.0,-0.853942603534,-0.139815957229,0.0725711397047,1.0,0.0,0.0,0.0,1.0,0.0,0.0,0.0,1.0,-2.30879882813,-0.300574951172,10.2961889648,0.1,0.0,0.0,0.0,0.1,0.0,0.0,0.0,0.1
1452009331487683728,253,1452009331484426021,robocape,10.352092482,19.5445192153,-43.3804477196,0.0,10.0,0.0,0.0,0.0,10.0,0.0,0.0,0.0,10.0,-0.91532846666,-0.349007260855,0.372043604284,1.0,0.0,0.0,0.0,1.0,0.0,0.0,0.0,1.0,-1.39629638672,-0.995130615234,6.60426635742,0.1,0.0,0.0,0.0,0.1,0.0,0.0,0.0,0.1
1452009331520147853,254,1452009331516454935,robocape,9.42696654277,19.4849897584,-43.4306837953,0.0,10.0,0.0,0.0,0.0,10.0,0.0,0.0,0.0,10.0,-0.443016847335,-0.00572579634367,-0.108257498312,1.0,0.0,0.0,0.0,1.0,0.0,0.0,0.0,1.0,1.31606323242,0.978365478516,12.278067627,0.1,0.0,0.0,0.0,0.1,0.0,0.0,0.0,0.1
1452009331552906728,255,1452009331549454927,robocape,8.08207794433,19.3252927836,-43.3763042961,0.0,10.0,0.0,0.0,0.0,10.0,0.0,0.0,0.0,10.0,-0.692821357584,-0.0579237537092,-0.0225037112112,1.0,0.0,0.0,0.0,1.0,0.0,0.0,0.0,1.0,-1.23942260742,-0.935255126953,8.41849365234,0.1,0.0,0.0,0.0,0.1,0.0,0.0,0.0,0.1
1452009331586300145,256,1452009331583080053,robocape,7.45436057706,19.0543605728,-43.2138669574,0.0,10.0,0.0,0.0,0.0,10.0,0.0,0.0,0.0,10.0,-0.333827242641,-0.105594337222,0.0284958236638,1.0,0.0,0.0,0.0,1.0,0.0,0.0,0.0,1.0,1.87649780273,1.71842651367,12.3822509766,0.1,0.0,0.0,0.0,0.1,0.0,0.0,0.0,0.1
1452009331620394937,257,1452009331616914987,robocape,6.6725567628,18.7852488868,-43.1776681298,0.0,10.0,0.0,0.0,0.0,10.0,0.0,0.0,0.0,10.0,-0.39201731246,-0.111320133565,-0.0414121549507,1.0,0.0,0.0,0.0,1.0,0.0,0.0,0.0,1.0,3.26201660156,-0.148491210938,8.7753515625,0.1,0.0,0.0,0.0,0.1,0.0,0.0,0.0,0.1
1452009331653400603,258,1452009331650371074,robocape,6.01546161071,18.4963127394,-43.0610283429,0.0,10.0,0.0,0.0,0.0,10.0,0.0,0.0,0.0,10.0,-0.342615674239,-0.119043300727,0.00226368692657,1.0,0.0,0.0,0.0,1.0,0.0,0.0,0.0,1.0,-0.0898132324219,0.935255126953,9.96807128906,0.1,0.0,0.0,0.0,0.1,0.0,0.0,0.0,0.1
1452009331686753562,259,1452009331683659076,robocape,5.55635551087,18.3008674999,-42.8551431547,0.0,10.0,0.0,0.0,0.0,10.0,0.0,0.0,0.0,10.0,-0.254198726048,-0.0661795530885,0.0398142582967,1.0,0.0,0.0,0.0,1.0,0.0,0.0,0.0,1.0,1.56993530273,0.409548339844,9.46272216797,0.1,0.0,0.0,0.0,0.1,0.0,0.0,0.0,0.1
1452009331719591937,260,1452009331716284990,robocape,5.06740575369,18.1675112458,-42.8514253421,0.0,10.0,0.0,0.0,0.0,10.0,0.0,0.0,0.0,10.0,-0.232360805109,-0.0375505713701,-0.0820253615744,1.0,0.0,0.0,0.0,1.0,0.0,0.0,0.0,1.0,1.69806884766,0.978365478516,11.4026879883,0.1,0.0,0.0,0.0,0.1,0.0,0.0,0.0,0.1
1452009331752958770,261,1452009331749929904,robocape,4.64404409506,17.7865761851,-42.7797584828,0.0,10.0,0.0,0.0,0.0,10.0,0.0,0.0,0.0,10.0,-0.21345236137,-0.168977571166,-0.0241016078652,1.0,0.0,0.0,0.0,1.0,0.0,0.0,0.0,1.0,1.46934448242,-1.23822509766,7.53592895508,0.1,0.0,0.0,0.0,0.1,0.0,0.0,0.0,0.1
1452009331785302978,262,1452009331782234907,robocape,4.32723134237,17.7251843179,-42.3124744662,0.0,10.0,0.0,0.0,0.0,10.0,0.0,0.0,0.0,10.0,-0.226501850711,0.00625842856169,0.178431793035,1.0,0.0,0.0,0.0,1.0,0.0,0.0,0.0,1.0,-4.94571533203,0.09580078125,10.8446484375,0.1,0.0,0.0,0.0,0.1,0.0,0.0,0.0,0.1
1452009331818515520,263,1452009331815399885,robocape,4.0693193498,17.6361712735,-42.3907521289,0.0,10.0,0.0,0.0,0.0,10.0,0.0,0.0,0.0,10.0,-0.0981374861694,-0.0135821215594,-0.13568805754,1.0,0.0,0.0,0.0,1.0,0.0,0.0,0.0,1.0,-2.45489501953,-1.59747802734,8.07480834961,0.1,0.0,0.0,0.0,0.1,0.0,0.0,0.0,0.1
1452009331852212770,264,1452009331849160909,robocape,3.82120588595,17.4052131687,-42.268234691,0.0,10.0,0.0,0.0,0.0,10.0,0.0,0.0,0.0,10.0,-0.130494893414,-0.0884169481906,-0.00945422186978,1.0,0.0,0.0,0.0,1.0,0.0,0.0,0.0,1.0,0.795146484375,2.45848754883,12.967833252,0.1,0.0,0.0,0.0,0.1,0.0,0.0,0.0,0.1
1452009331884964312,265,1452009331881908893,robocape,4.41627766524,17.5560723041,-42.3511689467,0.0,10.0,0.0,0.0,0.0,10.0,0.0,0.0,0.0,10.0,0.35566516358,0.120641197381,-0.171374416147,1.0,0.0,0.0,0.0,1.0,0.0,0.0,0.0,1.0,0.936452636719,0.231119384766,10.0303417969,0.1,0.0,0.0,0.0,0.1,0.0,0.0,0.0,0.1
1452009331918180062,266,1452009331914887905,robocape,4.91795684349,17.6537927813,-42.3659956824,0.0,10.0,0.0,0.0,0.0,10.0,0.0,0.0,0.0,10.0,0.295610880999,0.0921453737167,-0.128630680651,1.0,0.0,0.0,0.0,1.0,0.0,0.0,0.0,1.0,2.14114746094,-1.68489624023,11.2494067383,0.1,0.0,0.0,0.0,0.1,0.0,0.0,0.0,0.1
1452009331951373937,267,1452009331948266983,robocape,5.67096255628,18.0422933887,-42.5701620886,0.0,10.0,0.0,0.0,0.0,10.0,0.0,0.0,0.0,10.0,0.468982667963,0.247141349159,-0.270843482861,1.0,0.0,0.0,0.0,1.0,0.0,0.0,0.0,1.0,-2.89318359375,-0.883762207031,10.5105432129,0.1,0.0,0.0,0.0,0.1,0.0,0.0,0.0,0.1
1452009331984410145,268,1452009331981211900,robocape,6.82985108415,18.4606403558,-42.615359899,0.0,10.0,0.0,0.0,0.0,10.0,0.0,0.0,0.0,10.0,0.660863424503,0.270177692589,-0.198938133429,1.0,0.0,0.0,0.0,1.0,0.0,0.0,0.0,1.0,-1.15080688477,-0.433498535156,9.29028076172,0.1,0.0,0.0,0.0,0.1,0.0,0.0,0.0,0.1
1452009332017388270,269,1452009332014314889,robocape,8.58995877742,18.6476977791,-42.7942485601,0.0,10.0,0.0,0.0,0.0,10.0,0.0,0.0,0.0,10.0,1.01280016256,0.147272808281,-0.278433491968,1.0,0.0,0.0,0.0,1.0,0.0,0.0,0.0,1.0,6.52523071289,2.68721191406,10.7248974609,0.1,0.0,0.0,0.0,0.1,0.0,0.0,0.0,0.1
1452009332051735562,270,1452009332048634052,robocape,10.5077123823,19.5067588291,-42.6501458827,0.0,10.0,0.0,0.0,0.0,10.0,0.0,0.0,0.0,10.0,1.05421231751,0.523710628364,-0.198139185102,1.0,0.0,0.0,0.0,1.0,0.0,0.0,0.0,1.0,5.49058227539,-0.674197998047,9.63636108398,0.1,0.0,0.0,0.0,0.1,0.0,0.0,0.0,0.1
1452009332084856770,271,1452009332081743955,robocape,12.7581532517,19.8181596816,-42.2840558343,0.0,10.0,0.0,0.0,0.0,10.0,0.0,0.0,0.0,10.0,1.19069932337,0.25632925492,-0.0306263525359,1.0,0.0,0.0,0.0,1.0,0.0,0.0,0.0,1.0,3.28357177734,-2.62494140625,6.91921142578,0.1,0.0,0.0,0.0,0.1,0.0,0.0,0.0,0.1
1452009332117286729,272,1452009332114151000,robocape,15.2387175664,20.4276462122,-41.5171556589,0.0,10.0,0.0,0.0,0.0,10.0,0.0,0.0,0.0,10.0,1.24755781265,0.461259500802,0.113317504383,1.0,0.0,0.0,0.0,1.0,0.0,0.0,0.0,1.0,0.00119750976563,0.227526855469,7.79459106445,0.1,0.0,0.0,0.0,0.1,0.0,0.0,0.0,0.1
1452009332150488270,273,1452009332147408962,robocape,18.0192041663,21.043115244,-40.3244988889,0.0,10.0,0.0,0.0,0.0,10.0,0.0,0.0,0.0,10.0,1.3287842259,0.533963798561,0.30067088707,1.0,0.0,0.0,0.0,1.0,0.0,0.0,0.0,1.0,-0.00239501953125,0.926872558594,9.07472900391,0.1,0.0,0.0,0.0,0.1,0.0,0.0,0.0,0.1
1452009332184068604,274,1452009332180809020,robocape,20.5980844364,21.606065587,-38.9101748317,0.0,10.0,0.0,0.0,0.0,10.0,0.0,0.0,0.0,10.0,1.17751667598,0.559929619189,0.400938902111,1.0,0.0,0.0,0.0,1.0,0.0,0.0,0.0,1.0,-4.30145507813,0.193996582031,7.21140380859,0.1,0.0,0.0,0.0,0.1,0.0,0.0,0.0,0.1
1452009332217506770,275,1452009332214322090,robocape,23.2399861136,23.1664202013,-36.9573224594,0.0,10.0,0.0,0.0,0.0,10.0,0.0,0.0,0.0,10.0,1.12065818671,1.18031299512,0.391617838296,1.0,0.0,0.0,0.0,1.0,0.0,0.0,0.0,1.0,-5.92647583008,16.4454016113,6.72281982422,0.1,0.0,0.0,0.0,0.1,0.0,0.0,0.0,0.1
1452009332251291104,276,1452009332248208045,robocape,21.3605054745,24.3459275009,-36.0107588179,0.0,10.0,0.0,0.0,0.0,10.0,0.0,0.0,0.0,10.0,-1.1809787854,0.745418789113,0.181094954125,1.0,0.0,0.0,0.0,1.0,0.0,0.0,0.0,1.0,-0.884959716797,11.4769335938,7.8556640625,0.1,0.0,0.0,0.0,0.1,0.0,0.0,0.0,0.1
1452009332283994645,277,1452009332280997991,robocape,19.4210753665,24.4923391442,-35.2834472838,0.0,10.0,0.0,0.0,0.0,10.0,0.0,0.0,0.0,10.0,-1.19456090696,0.17856495109,0.330764607388,1.0,0.0,0.0,0.0,1.0,0.0,0.0,0.0,1.0,2.8740234375,-0.827479248047,8.73703125,0.1,0.0,0.0,0.0,0.1,0.0,0.0,0.0,0.1
1452009332317442479,278,1452009332314326047,robocape,18.1378978706,24.8437827927,-35.2669077477,0.0,10.0,0.0,0.0,0.0,10.0,0.0,0.0,0.0,10.0,-0.636362342474,0.205063403936,-0.11265171411,1.0,0.0,0.0,0.0,1.0,0.0,0.0,0.0,1.0,-1.45497436523,1.8046472168,11.1057055664,0.1,0.0,0.0,0.0,0.1,0.0,0.0,0.0,0.1
1452009332350462604,279,1452009332347431898,robocape,17.4823030248,24.5428938652,-34.6477115581,0.0,10.0,0.0,0.0,0.0,10.0,0.0,0.0,0.0,10.0,-0.469115826017,-0.0525974315291,0.313587218357,1.0,0.0,0.0,0.0,1.0,0.0,0.0,0.0,1.0,1.35198852539,-0.0922082519531,9.9213684082,0.1,0.0,0.0,0.0,0.1,0.0,0.0,0.0,0.1
1452009332384193520,280,1452009332381102085,robocape,16.7815611603,24.7554472534,-34.3290998657,0.0,10.0,0.0,0.0,0.0,10.0,0.0,0.0,0.0,10.0,-0.401338376275,0.179230741362,0.0557932248372,1.0,0.0,0.0,0.0,1.0,0.0,0.0,0.0,1.0,0.0167651367188,1.59149047852,10.3800146484,0.1,0.0,0.0,0.0,0.1,0.0,0.0,0.0,0.1
1452009332417600812,281,1452009332414216041,robocape,16.2237290167,24.7553387751,-33.8405813349,0.0,10.0,0.0,0.0,0.0,10.0,0.0,0.0,0.0,10.0,-0.374440449265,0.0866858934821,0.182692850779,1.0,0.0,0.0,0.0,1.0,0.0,0.0,0.0,1.0,-0.712518310547,0.401165771484,8.6951184082,0.1,0.0,0.0,0.0,0.1,0.0,0.0,0.0,0.1
1452009332451445812,282,1452009332448426961,robocape,16.1013924993,24.8093910962,-33.2986284574,0.0,10.0,0.0,0.0,0.0,10.0,0.0,0.0,0.0,10.0,-0.149270179099,0.127964890378,0.18535601187,1.0,0.0,0.0,0.0,1.0,0.0,0.0,0.0,1.0,0.259859619141,0.917292480469,10.8326733398,0.1,0.0,0.0,0.0,0.1,0.0,0.0,0.0,0.1
1452009332483945062,283,1452009332480798959,robocape,15.8538342389,24.5564816655,-32.5571379307,0.0,10.0,0.0,0.0,0.0,10.0,0.0,0.0,0.0,10.0,-0.277634543641,-0.0178431793035,0.35300200249,1.0,0.0,0.0,0.0,1.0,0.0,0.0,0.0,1.0,-1.09093139648,-1.25139770508,8.2735949707,0.1,0.0,0.0,0.0,0.1,0.0,0.0,0.0,0.1
1452009332517367354,284,1452009332514276027,robocape,15.7405603746,24.8012017571,-32.0567261337,0.0,10.0,0.0,0.0,0.0,10.0,0.0,0.0,0.0,10.0,-0.130361735359,0.222640267131,0.133024896449,1.0,0.0,0.0,0.0,1.0,0.0,0.0,0.0,1.0,-0.696950683594,2.85366577148,12.7690466309,0.1,0.0,0.0,0.0,0.1,0.0,0.0,0.0,0.1
1452009332550579895,285,1452009332547517061,robocape,15.3001322544,24.8034307353,-31.5903079679,0.0,10.0,0.0,0.0,0.0,10.0,0.0,0.0,0.0,10.0,-0.307994580068,0.0836232582285,0.173105470855,1.0,0.0,0.0,0.0,1.0,0.0,0.0,0.0,1.0,2.99377441406,0.398770751953,6.52762573242,0.1,0.0,0.0,0.0,0.1,0.0,0.0,0.0,0.1
1452009332584011812,286,1452009332580836057,robocape,14.9149493314,25.0796213073,-31.1787933351,0.0,10.0,0.0,0.0,0.0,10.0,0.0,0.0,0.0,10.0,-0.258326625738,0.223572373512,0.0956074831338,1.0,0.0,0.0,0.0,1.0,0.0,0.0,0.0,1.0,-2.53991821289,1.85135009766,11.2182714844,0.1,0.0,0.0,0.0,0.1,0.0,0.0,0.0,0.1
1452009332617107062,287,1452009332614048004,robocape,14.5144224885,25.1329810557,-30.633819036,0.0,10.0,0.0,0.0,0.0,10.0,0.0,0.0,0.0,10.0,-0.307595105904,0.115847507418,0.205196561991,1.0,0.0,0.0,0.0,1.0,0.0,0.0,0.0,1.0,1.88488037109,-1.04063598633,7.8975769043,0.1,0.0,0.0,0.0,0.1,0.0,0.0,0.0,0.1
1452009332650420604,288,1452009332647365093,robocape,14.3475266188,25.1760998062,-30.2371363735,0.0,10.0,0.0,0.0,0.0,10.0,0.0,0.0,0.0,10.0,-0.144476489137,0.10053433115,0.126100677615,1.0,0.0,0.0,0.0,1.0,0.0,0.0,0.0,1.0,-0.857416992188,1.11727661133,10.484197998,0.1,0.0,0.0,0.0,0.1,0.0,0.0,0.0,0.1
1452009332683957729,289,1452009332680787086,robocape,14.2061299743,25.397645833,-29.8543837466,0.0,10.0,0.0,0.0,0.0,10.0,0.0,0.0,0.0,10.0,-0.123703832634,0.194677075685,0.0890827384632,1.0,0.0,0.0,0.0,1.0,0.0,0.0,0.0,1.0,1.86212768555,-0.086220703125,8.42448120117,0.1,0.0,0.0,0.0,0.1,0.0,0.0,0.0,0.1
1452009332717546479,290,1452009332714405059,robocape,13.9588914677,25.3600420615,-29.4124259939,0.0,10.0,0.0,0.0,0.0,10.0,0.0,0.0,0.0,10.0,-0.203332349228,0.0587227020362,0.166847042293,1.0,0.0,0.0,0.0,1.0,0.0,0.0,0.0,1.0,-4.0272253418,0.326920166016,10.9308691406,0.1,0.0,0.0,0.0,0.1,0.0,0.0,0.0,0.1
1452009332750813395,291,1452009332747601985,robocape,13.6577246231,25.284460912,-28.699363075,0.0,10.0,0.0,0.0,0.0,10.0,0.0,0.0,0.0,10.0,-0.302268783724,0.0587227020362,0.31278827003,1.0,0.0,0.0,0.0,1.0,0.0,0.0,0.0,1.0,2.069296875,-0.572409667969,7.04015991211,0.1,0.0,0.0,0.0,0.1,0.0,0.0,0.0,0.1
1452009332784380979,292,1452009332780998945,robocape,13.1547463416,25.5255149109,-28.370602524,0.0,10.0,0.0,0.0,0.0,10.0,0.0,0.0,0.0,10.0,-0.308793528395,0.191348124322,0.0755006169037,1.0,0.0,0.0,0.0,1.0,0.0,0.0,0.0,1.0,-1.88009033203,1.22744750977,10.0985998535,0.1,0.0,0.0,0.0,0.1,0.0,0.0,0.0,0.1
1452009332817443396,293,1452009332814110040,robocape,12.9933151879,25.1625835029,-27.6705290367,0.0,10.0,0.0,0.0,0.0,10.0,0.0,0.0,0.0,10.0,-0.231295540673,-0.0984038022784,0.349273576964,1.0,0.0,0.0,0.0,1.0,0.0,0.0,0.0,1.0,0.110170898438,-0.465831298828,7.91194702148,0.1,0.0,0.0,0.0,0.1,0.0,0.0,0.0,0.1
1452009332850773521,294,1452009332847357988,robocape,12.5455551371,25.2501521958,-27.3045124429,0.0,10.0,0.0,0.0,0.0,10.0,0.0,0.0,0.0,10.0,-0.293080877963,0.110654343293,0.121173829599,1.0,0.0,0.0,0.0,1.0,0.0,0.0,0.0,1.0,-0.482596435547,2.375859375,13.6707714844,0.1,0.0,0.0,0.0,0.1,0.0,0.0,0.0,0.1
1452009332884051646,295,1452009332880686044,robocape,11.6769878579,25.3318672918,-27.6598712223,0.0,10.0,0.0,0.0,0.0,10.0,0.0,0.0,0.0,10.0,-0.342881990348,0.0470047932399,-0.228898695692,1.0,0.0,0.0,0.0,1.0,0.0,0.0,0.0,1.0,2.84288818359,-1.20589233398,6.90244628906,0.1,0.0,0.0,0.0,0.1,0.0,0.0,0.0,0.1
1452009332917487146,296,1452009332914187908,robocape,10.9521143189,25.4686743139,-27.3174162034,0.0,10.0,0.0,0.0,0.0,10.0,0.0,0.0,0.0,10.0,-0.437424209046,0.127565416215,0.110920659402,1.0,0.0,0.0,0.0,1.0,0.0,0.0,0.0,1.0,3.43924804688,3.04766235352,10.3704345703,0.1,0.0,0.0,0.0,0.1,0.0,0.0,0.0,0.1
1452009332950879062,297,1452009332947499990,robocape,10.1746802365,24.7562585603,-26.6108180204,0.0,10.0,0.0,0.0,0.0,10.0,0.0,0.0,0.0,10.0,-0.569650157168,-0.313054586139,0.407863120946,1.0,0.0,0.0,0.0,1.0,0.0,0.0,0.0,1.0,5.70733154297,-0.0598754882813,11.5894995117,0.1,0.0,0.0,0.0,0.1,0.0,0.0,0.0,0.1
1452009332984097021,298,1452009332980879068,robocape,9.03851537371,24.3419832524,-26.1425770054,0.0,10.0,0.0,0.0,0.0,10.0,0.0,0.0,0.0,10.0,-0.696017150892,-0.175502315836,0.254598200212,1.0,0.0,0.0,0.0,1.0,0.0,0.0,0.0,1.0,1.20589233398,1.16158447266,9.15735717773,0.1,0.0,0.0,0.0,0.1,0.0,0.0,0.0,0.1
1452009333017163979,299,1452009333014070987,robocape,7.73486260573,23.9648903074,-25.788891149,0.0,10.0,0.0,0.0,0.0,10.0,0.0,0.0,0.0,10.0,-0.756337749583,-0.167246516457,0.191614440431,1.0,0.0,0.0,0.0,1.0,0.0,0.0,0.0,1.0,-0.271834716797,0.633482666016,10.4925805664,0.1,0.0,0.0,0.0,0.1,0.0,0.0,0.0,0.1
1452009333051644312,300,1452009333048580884,robocape,6.57691471352,23.5034635815,-25.4464772071,0.0,10.0,0.0,0.0,0.0,10.0,0.0,0.0,0.0,10.0,-0.676043442717,-0.214783941915,0.187353382687,1.0,0.0,0.0,0.0,1.0,0.0,0.0,0.0,1.0,2.19503540039,3.18537597656,10.0926123047,0.1,0.0,0.0,0.0,0.1,0.0,0.0,0.0,0.1
1452009333084374021,301,1452009333080857038,robocape,4.20260620127,23.2710496815,-25.6858714651,0.0,10.0,0.0,0.0,0.0,10.0,0.0,0.0,0.0,10.0,-1.18843563645,-0.120241723217,-0.117711720182,1.0,0.0,0.0,0.0,1.0,0.0,0.0,0.0,1.0,5.78397216797,-1.42982666016,7.21978637695,0.1,0.0,0.0,0.0,0.1,0.0,0.0,0.0,0.1
1452009333118374229,302,1452009333114298105,robocape,2.50820920303,22.5205094932,-25.6638378155,0.0,10.0,0.0,0.0,0.0,10.0,0.0,0.0,0.0,10.0,-0.890161594359,-0.387356780552,0.0282295075548,1.0,0.0,0.0,0.0,1.0,0.0,0.0,0.0,1.0,2.23335571289,0.475411376953,7.75028320313,0.1,0.0,0.0,0.0,0.1,0.0,0.0,0.0,0.1
1452009333157902604,303,1452009333154659032,robocape,0.437767023732,21.7618334114,-25.8161205107,0.0,10.0,0.0,0.0,0.0,10.0,0.0,0.0,0.0,10.0,-1.05194863058,-0.390818889969,-0.0739027202497,1.0,0.0,0.0,0.0,1.0,0.0,0.0,0.0,1.0,4.38647827148,-1.0765612793,7.89518188477,0.1,0.0,0.0,0.0,0.1,0.0,0.0,0.0,0.1
1452009333185403562,304,1452009333181998014,robocape,-1.6708824903,20.8630389878,-26.018082688,0.0,10.0,0.0,0.0,0.0,10.0,0.0,0.0,0.0,10.0,-1.06406601354,-0.459262129984,-0.116646455745,1.0,0.0,0.0,0.0,1.0,0.0,0.0,0.0,1.0,3.01772460938,-0.518521728516,9.38248901367,0.1,0.0,0.0,0.0,0.1,0.0,0.0,0.0,0.1
1452009333219301229,305,1452009333216216087,robocape,-4.08416048002,19.9137724207,-26.3403747829,0.0,10.0,0.0,0.0,0.0,10.0,0.0,0.0,0.0,10.0,-1.20428144493,-0.473110567653,-0.202932875064,1.0,0.0,0.0,0.0,1.0,0.0,0.0,0.0,1.0,0.838256835938,-1.57831787109,8.59093505859,0.1,0.0,0.0,0.0,0.1,0.0,0.0,0.0,0.1
1452009333251369479,306,1452009333248222112,robocape,-6.06987215104,18.9945543424,-26.7661131887,0.0,10.0,0.0,0.0,0.0,10.0,0.0,0.0,0.0,10.0,-0.966993791808,-0.437157892937,-0.28322718193,1.0,0.0,0.0,0.0,1.0,0.0,0.0,0.0,1.0,-0.36404296875,-2.20940551758,11.7200280762,0.1,0.0,0.0,0.0,0.1,0.0,0.0,0.0,0.1
1452009333285462187,307,1452009333282262086,robocape,-8.26699660595,18.3328082952,-27.4576048371,0.0,10.0,0.0,0.0,0.0,10.0,0.0,0.0,0.0,10.0,-1.04116282817,-0.263652947918,-0.433962099628,1.0,0.0,0.0,0.0,1.0,0.0,0.0,0.0,1.0,0.787961425781,-0.276624755859,10.9272766113,0.1,0.0,0.0,0.0,0.1,0.0,0.0,0.0,0.1
1452009333321997854,308,1452009333317091941,robocape,-9.63984280337,17.7510247223,-28.2849467069,0.0,10.0,0.0,0.0,0.0,10.0,0.0,0.0,0.0,10.0,-0.595349661687,-0.192946020976,-0.514522722603,1.0,0.0,0.0,0.0,1.0,0.0,0.0,0.0,1.0,1.00471069336,-0.948427734375,10.6602319336,0.1,0.0,0.0,0.0,0.1,0.0,0.0,0.0,0.1
1452009333352178354,309,1452009333349138975,robocape,-10.2542835321,17.3512482727,-29.2332399662,0.0,10.0,0.0,0.0,0.0,10.0,0.0,0.0,0.0,10.0,-0.185222853815,-0.0759000910673,-0.570848579658,1.0,0.0,0.0,0.0,1.0,0.0,0.0,0.0,1.0,1.79626464844,-1.17236206055,11.6721276855,0.1,0.0,0.0,0.0,0.1,0.0,0.0,0.0,0.1
1452009333389196937,310,1452009333385083913,robocape,-11.4348199402,16.9508248045,-30.0596479205,0.0,10.0,0.0,0.0,0.0,10.0,0.0,0.0,0.0,10.0,-0.507199029606,-0.0782969360483,-0.518517464238,1.0,0.0,0.0,0.0,1.0,0.0,0.0,0.0,1.0,2.54111572266,-0.784368896484,10.4039648437,0.1,0.0,0.0,0.0,0.1,0.0,0.0,0.0,0.1
1452009333420726062,311,1452009333415785074,robocape,-11.4803395836,16.8035349345,-31.348009868,0.0,10.0,0.0,0.0,0.0,10.0,0.0,0.0,0.0,10.0,0.152465972407,0.113051188274,-0.738361412224,1.0,0.0,0.0,0.0,1.0,0.0,0.0,0.0,1.0,5.48698974609,-6.38033203125,14.2671313477,0.1,0.0,0.0,0.0,0.1,0.0,0.0,0.0,0.1
1452009333454427021,312,1452009333449481010,robocape,-11.8265589316,16.620490035,-32.9280388626,0.0,10.0,0.0,0.0,0.0,10.0,0.0,0.0,0.0,10.0,0.0331563555715,0.137685428357,-0.908137931717,1.0,0.0,0.0,0.0,1.0,0.0,0.0,0.0,1.0,7.85686157227,-2.50040039063,11.4278356934,0.1,0.0,0.0,0.0,0.1,0.0,0.0,0.0,0.1
1452009333488253521,313,1452009333484129905,robocape,-9.63674364529,17.21264928,-34.2113168418,0.0,10.0,0.0,0.0,0.0,10.0,0.0,0.0,0.0,10.0,1.32918370006,0.488157427812,-0.674578704117,1.0,0.0,0.0,0.0,1.0,0.0,0.0,0.0,1.0,3.30392944336,-5.30137573242,14.4156225586,0.1,0.0,0.0,0.0,0.1,0.0,0.0,0.0,0.1
1452009333521070563,314,1452009333517855882,robocape,-8.28864597143,17.910697061,-35.5374902936,0.0,10.0,0.0,0.0,0.0,10.0,0.0,0.0,0.0,10.0,0.906007402845,0.542352755995,-0.725844555101,1.0,0.0,0.0,0.0,1.0,0.0,0.0,0.0,1.0,3.04167480469,-2.64290405273,9.83395019531,0.1,0.0,0.0,0.0,0.1,0.0,0.0,0.0,0.1
1452009333554699271,315,1452009333550798892,robocape,-6.85302700226,18.5352345169,-36.2661334011,0.0,10.0,0.0,0.0,0.0,10.0,0.0,0.0,0.0,10.0,0.868456831475,0.437823683209,-0.42690472274,1.0,0.0,0.0,0.0,1.0,0.0,0.0,0.0,1.0,-2.3339465332,-2.45010498047,9.37650146484,0.1,0.0,0.0,0.0,0.1,0.0,0.0,0.0,0.1
1452009333587878979,316,1452009333584405899,robocape,-5.00554720577,20.6679007483,-37.0023647,0.0,10.0,0.0,0.0,0.0,10.0,0.0,0.0,0.0,10.0,1.10268184935,1.24822360292,-0.404800485692,1.0,0.0,0.0,0.0,1.0,0.0,0.0,0.0,1.0,-1.3448034668,-2.79977783203,7.3227722168,0.1,0.0,0.0,0.0,0.1,0.0,0.0,0.0,0.1
1452009333621267313,317,1452009333617902040,robocape,-2.29512409373,21.4354937424,-36.6082982222,0.0,10.0,0.0,0.0,0.0,10.0,0.0,0.0,0.0,10.0,1.35528267874,0.440087370136,0.136620163921,1.0,0.0,0.0,0.0,1.0,0.0,0.0,0.0,1.0,-0.965192871094,-4.18529663086,6.5180456543,0.1,0.0,0.0,0.0,0.1,0.0,0.0,0.0,0.1
1452009333655336771,318,1452009333651962995,robocape,0.94893807876,22.4578981843,-36.5268508113,0.0,10.0,0.0,0.0,0.0,10.0,0.0,0.0,0.0,10.0,1.7104152101,0.614258105427,-0.0802943068659,1.0,0.0,0.0,0.0,1.0,0.0,0.0,0.0,1.0,1.29570556641,0.825084228516,9.31902099609,0.1,0.0,0.0,0.0,0.1,0.0,0.0,0.0,0.1
1452009333687088646,319,1452009333683872938,robocape,3.74070141505,23.3281839084,-36.4402275867,0.0,10.0,0.0,0.0,0.0,10.0,0.0,0.0,0.0,10.0,1.4856444141,0.542885388213,-0.116513297691,1.0,0.0,0.0,0.0,1.0,0.0,0.0,0.0,1.0,2.91234375,0.235909423828,6.55995849609,0.1,0.0,0.0,0.0,0.1,0.0,0.0,0.0,0.1
1452009333721306938,320,1452009333717844009,robocape,5.87944769096,24.0707883401,-35.5446389255,0.0,10.0,0.0,0.0,0.0,10.0,0.0,0.0,0.0,10.0,0.964330630718,0.480966892868,0.302002467615,1.0,0.0,0.0,0.0,1.0,0.0,0.0,0.0,1.0,1.59508300781,3.62246704102,10.0207617188,0.1,0.0,0.0,0.0,0.1,0.0,0.0,0.0,0.1
1452009333754618063,321,1452009333751389980,robocape,7.30810600351,24.7132201526,-34.5914032557,0.0,10.0,0.0,0.0,0.0,10.0,0.0,0.0,0.0,10.0,0.573511740749,0.436225786555,0.333294610423,1.0,0.0,0.0,0.0,1.0,0.0,0.0,0.0,1.0,0.587977294922,3.87873413086,11.0170898438,0.1,0.0,0.0,0.0,0.1,0.0,0.0,0.0,0.1
1452009333787524979,322,1452009333784097909,robocape,7.98599151536,25.1681889037,-33.7130483273,0.0,10.0,0.0,0.0,0.0,10.0,0.0,0.0,0.0,10.0,0.187486540742,0.331696713769,0.318913540537,1.0,0.0,0.0,0.0,1.0,0.0,0.0,0.0,1.0,-0.607137451172,2.51357299805,9.04239624023,0.1,0.0,0.0,0.0,0.1,0.0,0.0,0.0,0.1
1452009333821264063,323,1452009333818125963,robocape,8.19851360862,25.0764940215,-32.8680384696,0.0,10.0,0.0,0.0,0.0,10.0,0.0,0.0,0.0,10.0,-0.0627174436714,0.0294279300454,0.371644130121,1.0,0.0,0.0,0.0,1.0,0.0,0.0,0.0,1.0,-4.93134521484,3.13987060547,11.4769335938,0.1,0.0,0.0,0.0,0.1,0.0,0.0,0.0,0.1
1452009333852881313,324,1452009333849392890,robocape,7.96975324984,26.3758728663,-32.4410684961,0.0,10.0,0.0,0.0,0.0,10.0,0.0,0.0,0.0,10.0,-0.174570209455,0.769254080869,0.00599211245268,1.0,0.0,0.0,0.0,1.0,0.0,0.0,0.0,1.0,5.92168579102,3.61408447266,2.72672973633,0.1,0.0,0.0,0.0,0.1,0.0,0.0,0.0,0.1
1452009333887074729,325,1452009333883804082,robocape,8.86103447841,26.3348697773,-31.9368076849,0.0,10.0,0.0,0.0,0.0,10.0,0.0,0.0,0.0,10.0,0.380565719772,0.0597879664723,0.171507574201,1.0,0.0,0.0,0.0,1.0,0.0,0.0,0.0,1.0,5.87258789063,-2.02977905273,11.0865454102,0.1,0.0,0.0,0.0,0.1,0.0,0.0,0.0,0.1
1452009333920066896,326,1452009333916919946,robocape,8.29774845532,26.5897970269,-31.8795700465,0.0,10.0,0.0,0.0,0.0,10.0,0.0,0.0,0.0,10.0,-0.277634543641,0.183092324943,-0.0603205986903,1.0,0.0,0.0,0.0,1.0,0.0,0.0,0.0,1.0,5.15288452148,-2.35430419922,9.76329711914,0.1,0.0,0.0,0.0,0.1,0.0,0.0,0.0,0.1
1452009333953783813,327,1452009333950495958,robocape,8.88583781005,26.7417449407,-31.9310567816,0.0,10.0,0.0,0.0,0.0,10.0,0.0,0.0,0.0,10.0,0.36511938545,0.142345960265,-0.129829103141,1.0,0.0,0.0,0.0,1.0,0.0,0.0,0.0,1.0,-1.42862915039,-1.609453125,10.1417102051,0.1,0.0,0.0,0.0,0.1,0.0,0.0,0.0,0.1
1452009333986296563,328,1452009333982981920,robocape,10.2563439328,26.9116660621,-31.7121150851,0.0,10.0,0.0,0.0,0.0,10.0,0.0,0.0,0.0,10.0,0.718387704049,0.177499686654,-0.0154463343225,1.0,0.0,0.0,0.0,1.0,0.0,0.0,0.0,1.0,2.25491088867,-0.752036132813,10.290201416,0.1,0.0,0.0,0.0,0.1,0.0,0.0,0.0,0.1
1452009334019990146,329,1452009334016940116,robocape,11.9693253372,26.9375406063,-31.4933860414,0.0,10.0,0.0,0.0,0.0,10.0,0.0,0.0,0.0,10.0,0.906273718954,0.109322762748,-0.0106526443603,1.0,0.0,0.0,0.0,1.0,0.0,0.0,0.0,1.0,2.83690063477,-0.815504150391,8.37179077148,0.1,0.0,0.0,0.0,0.1,0.0,0.0,0.0,0.1
1452009334054113313,330,1452009334050957918,robocape,14.5703577911,27.5442569557,-30.9150569272,0.0,10.0,0.0,0.0,0.0,10.0,0.0,0.0,0.0,10.0,1.31666684294,0.475640570688,0.0420779452233,1.0,0.0,0.0,0.0,1.0,0.0,0.0,0.0,1.0,-1.73040161133,1.24421264648,12.0349731445,0.1,0.0,0.0,0.0,0.1,0.0,0.0,0.0,0.1
1452009334086267479,331,1452009334083033084,robocape,16.4014955295,28.1964161265,-29.7720752954,0.0,10.0,0.0,0.0,0.0,10.0,0.0,0.0,0.0,10.0,0.753940904601,0.549143816774,0.309725634776,1.0,0.0,0.0,0.0,1.0,0.0,0.0,0.0,1.0,-0.746048583984,-0.108973388672,5.86540283203,0.1,0.0,0.0,0.0,0.1,0.0,0.0,0.0,0.1
1452009334118685438,332,1452009334115573883,robocape,19.407978449,29.0683815072,-28.5071544834,0.0,10.0,0.0,0.0,0.0,10.0,0.0,0.0,0.0,10.0,1.3820474477,0.733700880317,0.253532935776,1.0,0.0,0.0,0.0,1.0,0.0,0.0,0.0,1.0,1.16637451172,3.94459716797,12.2684875488,0.1,0.0,0.0,0.0,0.1,0.0,0.0,0.0,0.1
1452009334151986938,333,1452009334148688077,robocape,21.0293168086,29.3580179446,-27.5670913032,0.0,10.0,0.0,0.0,0.0,10.0,0.0,0.0,0.0,10.0,0.70187610529,0.374040975102,0.24035028838,1.0,0.0,0.0,0.0,1.0,0.0,0.0,0.0,1.0,4.89541992188,12.3559057617,4.52419189453,0.1,0.0,0.0,0.0,0.1,0.0,0.0,0.0,0.1
1452009334184616396,334,1452009334181571006,robocape,20.9917869172,29.9380861769,-26.5991200851,0.0,10.0,0.0,0.0,0.0,10.0,0.0,0.0,0.0,10.0,-0.217979735223,0.489222692248,0.240616604489,1.0,0.0,0.0,0.0,1.0,0.0,0.0,0.0,1.0,0.486188964844,15.9915454102,12.2541174316,0.1,0.0,0.0,0.0,0.1,0.0,0.0,0.0,0.1
1452009334218840480,335,1452009334215586900,robocape,17.7458659687,29.6291482964,-25.1054628204,0.0,10.0,0.0,0.0,0.0,10.0,0.0,0.0,0.0,10.0,-2.18285998748,-0.0260989786828,0.814927293564,1.0,0.0,0.0,0.0,1.0,0.0,0.0,0.0,1.0,-4.48108154297,-5.62590087891,1.90404052734,0.1,0.0,0.0,0.0,0.1,0.0,0.0,0.0,0.1
1452009334251320855,336,1452009334248028993,robocape,16.3871712274,30.0658397893,-25.7072980245,0.0,10.0,0.0,0.0,0.0,10.0,0.0,0.0,0.0,10.0,-0.503337446025,0.196141814284,-0.395479421877,1.0,0.0,0.0,0.0,1.0,0.0,0.0,0.0,1.0,2.11360473633,-2.96982421875,13.1738049316,0.1,0.0,0.0,0.0,0.1,0.0,0.0,0.0,0.1
1452009334284412855,337,1452009334281307935,robocape,16.485032813,30.2509731403,-25.0752541814,0.0,10.0,0.0,0.0,0.0,10.0,0.0,0.0,0.0,10.0,-0.0743021944132,0.221708160749,0.194410759576,1.0,0.0,0.0,0.0,1.0,0.0,0.0,0.0,1.0,-7.48802856445,-6.11208984375,4.60682006836,0.1,0.0,0.0,0.0,0.1,0.0,0.0,0.0,0.1
1452009334317597355,338,1452009334314498901,robocape,16.4128278244,30.0489781426,-24.569942433,0.0,10.0,0.0,0.0,0.0,10.0,0.0,0.0,0.0,10.0,-0.143011750537,-0.00412789968962,0.214118151642,1.0,0.0,0.0,0.0,1.0,0.0,0.0,0.0,1.0,-2.04893920898,1.46814697266,10.8027355957,0.1,0.0,0.0,0.0,0.1,0.0,0.0,0.0,0.1
1452009334350743230,339,1452009334347599983,robocape,17.2610164333,29.9473759279,-23.3847179955,0.0,10.0,0.0,0.0,0.0,10.0,0.0,0.0,0.0,10.0,0.166314410075,0.142612276374,0.490554272793,1.0,0.0,0.0,0.0,1.0,0.0,0.0,0.0,1.0,1.85135009766,0.199984130859,12.1271813965,0.1,0.0,0.0,0.0,0.1,0.0,0.0,0.0,0.1
1452009334384739480,340,1452009334381565093,robocape,18.2304059724,29.9762343695,-22.4259400559,0.0,10.0,0.0,0.0,0.0,10.0,0.0,0.0,0.0,10.0,0.304931944814,0.201201820355,0.354866215253,1.0,0.0,0.0,0.0,1.0,0.0,0.0,0.0,1.0,2.73151977539,-0.493374023438,6.67611694336,0.1,0.0,0.0,0.0,0.1,0.0,0.0,0.0,0.1
1452009334417352563,341,1452009334414237976,robocape,19.5291919174,30.5967209791,-21.4438138204,0.0,10.0,0.0,0.0,0.0,10.0,0.0,0.0,0.0,10.0,0.500940601044,0.539689594905,0.229165011801,1.0,0.0,0.0,0.0,1.0,0.0,0.0,0.0,1.0,2.34951416016,3.69431762695,13.504317627,0.1,0.0,0.0,0.0,0.1,0.0,0.0,0.0,0.1
1452009334450848771,342,1452009334447747945,robocape,20.2401558397,31.5940594731,-20.4903469464,0.0,10.0,0.0,0.0,0.0,10.0,0.0,0.0,0.0,10.0,0.198938133429,0.730638245063,0.137285954194,1.0,0.0,0.0,0.0,1.0,0.0,0.0,0.0,1.0,3.18657348633,8.60410766602,9.77407470703,0.1,0.0,0.0,0.0,0.1,0.0,0.0,0.0,0.1
1452009334483934105,343,1452009334480729103,robocape,18.5505355806,32.1285435306,-19.5778722771,0.0,10.0,0.0,0.0,0.0,10.0,0.0,0.0,0.0,10.0,-1.13330820188,0.403335747093,0.28589034302,1.0,0.0,0.0,0.0,1.0,0.0,0.0,0.0,1.0,1.36755615234,3.61767700195,9.20645507812,0.1,0.0,0.0,0.0,0.1,0.0,0.0,0.0,0.1
1452009334517173688,344,1452009334514071941,robocape,17.9308536384,32.1864008474,-18.9532963062,0.0,10.0,0.0,0.0,0.0,10.0,0.0,0.0,0.0,10.0,-0.476439519015,0.14367754081,0.230230276237,1.0,0.0,0.0,0.0,1.0,0.0,0.0,0.0,1.0,1.09811645508,7.04614746094,10.7775878906,0.1,0.0,0.0,0.0,0.1,0.0,0.0,0.0,0.1
1452009334550846146,345,1452009334547792911,robocape,16.165018284,32.7923149807,-18.6201671482,0.0,10.0,0.0,0.0,0.0,10.0,0.0,0.0,0.0,10.0,-0.998285934616,0.374973081483,0.0251668723012,1.0,0.0,0.0,0.0,1.0,0.0,0.0,0.0,1.0,-7.00303710938,-4.49425415039,4.67268310547,0.1,0.0,0.0,0.0,0.1,0.0,0.0,0.0,0.1
1452009334584020313,346,1452009334580915927,robocape,15.1894251319,32.7840738659,-18.0054176837,0.0,10.0,0.0,0.0,0.0,10.0,0.0,0.0,0.0,10.0,-0.673513439681,0.0866858934821,0.248606087759,1.0,0.0,0.0,0.0,1.0,0.0,0.0,0.0,1.0,-3.69431762695,0.724493408203,8.91546020508,0.1,0.0,0.0,0.0,0.1,0.0,0.0,0.0,0.1
1452009334617192521,347,1452009334614141941,robocape,14.4382404405,33.3289825926,-18.6972282729,0.0,10.0,0.0,0.0,0.0,10.0,0.0,0.0,0.0,10.0,-0.139150166957,0.286689291347,-0.431698412702,1.0,0.0,0.0,0.0,1.0,0.0,0.0,0.0,1.0,-0.110170898438,2.32077392578,10.2267333984,0.1,0.0,0.0,0.0,0.1,0.0,0.0,0.0,0.1
1452009334650767938,348,1452009334647737026,robocape,14.3341148465,33.54670803,-18.3607292747,0.0,10.0,0.0,0.0,0.0,10.0,0.0,0.0,0.0,10.0,-0.113184346328,0.209191303626,0.0696416625056,1.0,0.0,0.0,0.0,1.0,0.0,0.0,0.0,1.0,-1.5747253418,3.32069458008,12.5678649902,0.1,0.0,0.0,0.0,0.1,0.0,0.0,0.0,0.1
1452009334684289730,349,1452009334681262969,robocape,13.6975619414,34.1305077303,-17.8145035216,0.0,10.0,0.0,0.0,0.0,10.0,0.0,0.0,0.0,10.0,-0.457264759167,0.415053655889,0.114649084928,1.0,0.0,0.0,0.0,1.0,0.0,0.0,0.0,1.0,-2.80456787109,-2.36747680664,12.5199645996,0.1,0.0,0.0,0.0,0.1,0.0,0.0,0.0,0.1
1452009334747483271,350,1452009334715039968,robocape,13.4825850732,33.76072927,-17.2508942772,0.0,10.0,0.0,0.0,0.0,10.0,0.0,0.0,0.0,10.0,-0.262853999591,-0.105328021113,0.266715583171,1.0,0.0,0.0,0.0,1.0,0.0,0.0,0.0,1.0,-2.98060180664,1.32684082031,9.05077880859,0.1,0.0,0.0,0.0,0.1,0.0,0.0,0.0,0.1
1452009334773014271,351,1452009334769117116,robocape,13.8456819839,33.6587584361,-16.8571745274,0.0,10.0,0.0,0.0,0.0,10.0,0.0,0.0,0.0,10.0,0.10879013053,0.0456732126949,0.142345960265,1.0,0.0,0.0,0.0,1.0,0.0,0.0,0.0,1.0,0.408350830078,2.16390014648,11.4817236328,0.1,0.0,0.0,0.0,0.1,0.0,0.0,0.0,0.1
1452009334792729980,352,1452009334789621114,robocape,13.6514305366,33.5853399175,-16.4166016419,0.0,10.0,0.0,0.0,0.0,10.0,0.0,0.0,0.0,10.0,-0.204930245882,0.051265850984,0.168311780893,1.0,0.0,0.0,0.0,1.0,0.0,0.0,0.0,1.0,-1.32923583984,0.389190673828,9.54415283203,0.1,0.0,0.0,0.0,0.1,0.0,0.0,0.0,0.1
1452009334817584230,353,1452009334814471006,robocape,13.3241869882,33.6061242704,-16.0196670434,0.0,10.0,0.0,0.0,0.0,10.0,0.0,0.0,0.0,10.0,-0.261256102937,0.0961401153519,0.137685428357,1.0,0.0,0.0,0.0,1.0,0.0,0.0,0.0,1.0,-1.9962487793,0.235909423828,8.69032836914,0.1,0.0,0.0,0.0,0.1,0.0,0.0,0.0,0.1
1452009334852013396,354,1452009334848804950,robocape,12.0464313256,33.5995859729,-15.4416635063,0.0,10.0,0.0,0.0,0.0,10.0,0.0,0.0,0.0,10.0,-0.828509415124,0.067910607797,0.237154495072,1.0,0.0,0.0,0.0,1.0,0.0,0.0,0.0,1.0,-1.7974621582,1.22026245117,9.10586425781,0.1,0.0,0.0,0.0,0.1,0.0,0.0,0.0,0.1
1452009334883768230,355,1452009334880728960,robocape,12.0352259911,33.5382011041,-15.0332217269,0.0,10.0,0.0,0.0,0.0,10.0,0.0,0.0,0.0,10.0,-0.100134856987,0.0535295379106,0.153664394898,1.0,0.0,0.0,0.0,1.0,0.0,0.0,0.0,1.0,-3.99968261719,2.22138061523,11.169173584,0.1,0.0,0.0,0.0,0.1,0.0,0.0,0.0,0.1
1452009334917056397,356,1452009334914025068,robocape,11.1077087612,33.5954275794,-14.6641777274,0.0,10.0,0.0,0.0,0.0,10.0,0.0,0.0,0.0,10.0,-0.576574376002,0.0956074831338,0.13275858034,1.0,0.0,0.0,0.0,1.0,0.0,0.0,0.0,1.0,-0.261057128906,-0.451461181641,5.67260375977,0.1,0.0,0.0,0.0,0.1,0.0,0.0,0.0,0.1
1452009334950517355,357,1452009334947453022,robocape,11.3445877512,33.5345591549,-13.793767946,0.0,10.0,0.0,0.0,0.0,10.0,0.0,0.0,0.0,10.0,-0.10879013053,0.0841558904465,0.356996744125,1.0,0.0,0.0,0.0,1.0,0.0,0.0,0.0,1.0,-4.07632324219,3.01892211914,12.6780358887,0.1,0.0,0.0,0.0,0.1,0.0,0.0,0.0,0.1
1452009334983897772,358,1452009334980788946,robocape,10.0525264893,32.4834524757,-12.4184429025,0.0,10.0,0.0,0.0,0.0,10.0,0.0,0.0,0.0,10.0,-1.08896656973,-0.47657267707,0.71931981043,1.0,0.0,0.0,0.0,1.0,0.0,0.0,0.0,1.0,5.19000732422,0.0562829589844,2.78061767578,0.1,0.0,0.0,0.0,0.1,0.0,0.0,0.0,0.1
1452009335017176730,359,1452009335014105081,robocape,9.56062180009,32.8277327533,-12.4385726393,0.0,10.0,0.0,0.0,0.0,10.0,0.0,0.0,0.0,10.0,-0.226635008766,0.238352917562,-0.0689758722331,1.0,0.0,0.0,0.0,1.0,0.0,0.0,0.0,1.0,-4.10506347656,2.67763183594,13.6228710938,0.1,0.0,0.0,0.0,0.1,0.0,0.0,0.0,0.1
1452009335052499688,360,1452009335048887014,robocape,8.91053993561,33.0856813396,-11.9654314902,0.0,10.0,0.0,0.0,0.0,10.0,0.0,0.0,0.0,10.0,-0.45766423333,0.21345236137,0.16231966844,1.0,0.0,0.0,0.0,1.0,0.0,0.0,0.0,1.0,5.44028686523,-1.69687133789,4.01764526367,0.1,0.0,0.0,0.0,0.1,0.0,0.0,0.0,0.1
1452009335083991897,361,1452009335080754041,robocape,8.87292020576,33.587470407,-12.2248775323,0.0,10.0,0.0,0.0,0.0,10.0,0.0,0.0,0.0,10.0,0.0868190515366,0.326903023807,-0.190549175995,1.0,0.0,0.0,0.0,1.0,0.0,0.0,0.0,1.0,-0.886157226563,3.09795776367,13.8599780273,0.1,0.0,0.0,0.0,0.1,0.0,0.0,0.0,0.1
1452009335119353772,362,1452009335116200923,robocape,9.32782571836,33.6422424606,-11.7940248219,0.0,10.0,0.0,0.0,0.0,10.0,0.0,0.0,0.0,10.0,0.135954373649,0.117711720182,0.155129133497,1.0,0.0,0.0,0.0,1.0,0.0,0.0,0.0,1.0,1.44180175781,0.772393798828,9.32141601563,0.1,0.0,0.0,0.0,0.1,0.0,0.0,0.0,0.1
1452009335150841605,363,1452009335147449970,robocape,9.45341689754,33.6807480249,-11.6108356614,0.0,10.0,0.0,0.0,0.0,10.0,0.0,0.0,0.0,10.0,0.0350205683345,0.0913464253897,0.0503337446025,1.0,0.0,0.0,0.0,1.0,0.0,0.0,0.0,1.0,-3.37098999023,-1.149609375,8.95976806641,0.1,0.0,0.0,0.0,0.1,0.0,0.0,0.0,0.1
1452009335184267938,364,1452009335180838108,robocape,9.66303685302,33.9569407786,-11.6187857574,0.0,10.0,0.0,0.0,0.0,10.0,0.0,0.0,0.0,10.0,0.141547011938,0.217846577168,-0.0599211245268,1.0,0.0,0.0,0.0,1.0,0.0,0.0,0.0,1.0,-2.1040246582,0.587977294922,11.1667785645,0.1,0.0,0.0,0.0,0.1,0.0,0.0,0.0,0.1
1452009335218054605,365,1452009335214663028,robocape,10.0998469027,34.0357442235,-10.7244680808,0.0,10.0,0.0,0.0,0.0,10.0,0.0,0.0,0.0,10.0,-0.0125168571234,0.160721771786,0.353667792763,1.0,0.0,0.0,0.0,1.0,0.0,0.0,0.0,1.0,-0.835861816406,-0.659827880859,7.83889892578,0.1,0.0,0.0,0.0,0.1,0.0,0.0,0.0,0.1
1452009335250664480,366,1452009335247513055,robocape,11.4027856382,34.6025941593,-11.1945647442,0.0,10.0,0.0,0.0,0.0,10.0,0.0,0.0,0.0,10.0,0.873783153655,0.375505713701,-0.305597735087,1.0,0.0,0.0,0.0,1.0,0.0,0.0,0.0,1.0,-2.6476940918,4.97325805664,14.2874890137,0.1,0.0,0.0,0.0,0.1,0.0,0.0,0.0,0.1
1452009335284137188,367,1452009335280962944,robocape,11.5007080265,35.2537814752,-11.0028574236,0.0,10.0,0.0,0.0,0.0,10.0,0.0,0.0,0.0,10.0,0.0342216200075,0.445946324534,-0.0270310850643,1.0,0.0,0.0,0.0,1.0,0.0,0.0,0.0,1.0,2.67164428711,0.892144775391,6.6258215332,0.1,0.0,0.0,0.0,0.1,0.0,0.0,0.0,0.1
1452009335317240272,368,1452009335314199924,robocape,13.7426080282,35.3354023306,-10.6271219254,0.0,10.0,0.0,0.0,0.0,10.0,0.0,0.0,0.0,10.0,1.11320133565,0.186687592415,0.102664860023,1.0,0.0,0.0,0.0,1.0,0.0,0.0,0.0,1.0,-0.322130126953,3.58773925781,11.782298584,0.1,0.0,0.0,0.0,0.1,0.0,0.0,0.0,0.1
1452009335350457188,369,1452009335347419977,robocape,14.292536342,35.4721542849,-10.9215191214,0.0,10.0,0.0,0.0,0.0,10.0,0.0,0.0,0.0,10.0,0.424641035813,0.132359106177,-0.17976337358,1.0,0.0,0.0,0.0,1.0,0.0,0.0,0.0,1.0,7.16829345703,1.65735351563,4.80800170898,0.1,0.0,0.0,0.0,0.1,0.0,0.0,0.0,0.1
1452009335384149772,370,1452009335380863904,robocape,15.7038746375,35.6585385152,-10.5340875028,0.0,10.0,0.0,0.0,0.0,10.0,0.0,0.0,0.0,10.0,0.677641339371,0.242613975306,0.0886832642996,1.0,0.0,0.0,0.0,1.0,0.0,0.0,0.0,1.0,4.95888793945,0.318537597656,6.25698852539,0.1,0.0,0.0,0.0,0.1,0.0,0.0,0.0,0.1
1452009335417523938,371,1452009335414350032,robocape,17.7247214638,35.9777259543,-9.87454155555,0.0,10.0,0.0,0.0,0.0,10.0,0.0,0.0,0.0,10.0,0.931174275146,0.369913075412,0.165249145639,1.0,0.0,0.0,0.0,1.0,0.0,0.0,0.0,1.0,-0.159268798828,1.50526977539,9.82197509766,0.1,0.0,0.0,0.0,0.1,0.0,0.0,0.0,0.1
1452009335452739688,372,1452009335449614048,robocape,18.9291279565,36.5980063,-8.84868552026,0.0,10.0,0.0,0.0,0.0,10.0,0.0,0.0,0.0,10.0,0.385625725843,0.567253312187,0.258060309629,1.0,0.0,0.0,0.0,1.0,0.0,0.0,0.0,1.0,-2.73271728516,-1.32205078125,7.97182250977,0.1,0.0,0.0,0.0,0.1,0.0,0.0,0.0,0.1
1452009335484438522,373,1452009335481162071,robocape,20.8399121548,36.8692787898,-7.92110553604,0.0,10.0,0.0,0.0,0.0,10.0,0.0,0.0,0.0,10.0,0.795086743443,0.400273111839,0.264718212354,1.0,0.0,0.0,0.0,1.0,0.0,0.0,0.0,1.0,-1.26576782227,2.61176879883,10.4710253906,0.1,0.0,0.0,0.0,0.1,0.0,0.0,0.0,0.1
1452009335517527855,374,1452009335514210939,robocape,23.4646989272,37.1817798545,-6.81293518638,0.0,10.0,0.0,0.0,0.0,10.0,0.0,0.0,0.0,10.0,1.14036557877,0.494149540264,0.30333404816,1.0,0.0,0.0,0.0,1.0,0.0,0.0,0.0,1.0,-1.04901855469,9.24118286133,7.91673706055,0.1,0.0,0.0,0.0,0.1,0.0,0.0,0.0,0.1
1452009335550781522,375,1452009335547585010,robocape,23.5303685075,37.860498568,-5.98250503804,0.0,10.0,0.0,0.0,0.0,10.0,0.0,0.0,0.0,10.0,-0.157126504315,0.572047002149,0.133158054504,1.0,0.0,0.0,0.0,1.0,0.0,0.0,0.0,1.0,-0.828676757813,11.991862793,10.0183666992,0.1,0.0,0.0,0.0,0.1,0.0,0.0,0.0,0.1
1452009335584532439,376,1452009335581238985,robocape,22.61945129,38.4736607606,-4.9428866118,0.0,10.0,0.0,0.0,0.0,10.0,0.0,0.0,0.0,10.0,-0.772982506395,0.527705369999,0.245277136396,1.0,0.0,0.0,0.0,1.0,0.0,0.0,0.0,1.0,-3.98291748047,3.63204711914,10.8183032227,0.1,0.0,0.0,0.0,0.1,0.0,0.0,0.0,0.1
1452009335617357022,377,1452009335614299058,robocape,20.0149747694,37.6238793938,-5.92813516343,0.0,10.0,0.0,0.0,0.0,10.0,0.0,0.0,0.0,10.0,-1.07378655152,-0.609064941301,-0.200269713974,1.0,0.0,0.0,0.0,1.0,0.0,0.0,0.0,1.0,10.3297192383,-4.92176513672,9.27591064453,0.1,0.0,0.0,0.0,0.1,0.0,0.0,0.0,0.1
1452009335650608814,378,1452009335647377014,robocape,19.1648957591,36.3951666381,-4.66134171725,0.0,10.0,0.0,0.0,0.0,10.0,0.0,0.0,0.0,10.0,-0.871253150619,-0.476838993179,0.729706138682,1.0,0.0,0.0,0.0,1.0,0.0,0.0,0.0,1.0,3.54822143555,1.72561157227,7.44252319336,0.1,0.0,0.0,0.0,0.1,0.0,0.0,0.0,0.1
1452009335684082522,379,1452009335680948019,robocape,21.2265300158,36.1721774895,-3.76689593036,0.0,10.0,0.0,0.0,0.0,10.0,0.0,0.0,0.0,10.0,0.869122621747,0.130761209523,0.364054121014,1.0,0.0,0.0,0.0,1.0,0.0,0.0,0.0,1.0,0.538879394531,-9.82437011719,9.61720092773,0.1,0.0,0.0,0.0,0.1,0.0,0.0,0.0,0.1
1452009335717830939,380,1452009335714677095,robocape,21.1111503612,35.6643255004,-3.07982024083,0.0,10.0,0.0,0.0,0.0,10.0,0.0,0.0,0.0,10.0,-0.253133461612,-0.11265171411,0.359393589106,1.0,0.0,0.0,0.0,1.0,0.0,0.0,0.0,1.0,0.199984130859,-1.16517700195,6.48571289063,0.1,0.0,0.0,0.0,0.1,0.0,0.0,0.0,0.1
1452009335750921772,381,1452009335747787952,robocape,23.3254298616,36.3596110027,-1.67190347221,0.0,10.0,0.0,0.0,0.0,10.0,0.0,0.0,0.0,10.0,0.831971524541,0.729439822573,0.373508342884,1.0,0.0,0.0,0.0,1.0,0.0,0.0,0.0,1.0,0.954415283203,2.15671508789,13.3989367676,0.1,0.0,0.0,0.0,0.1,0.0,0.0,0.0,0.1
1452009335784103480,382,1452009335781028032,robocape,24.3565054021,37.0161856807,-1.05156229428,0.0,10.0,0.0,0.0,0.0,10.0,0.0,0.0,0.0,10.0,0.440886318463,0.565389099424,0.0639158661619,1.0,0.0,0.0,0.0,1.0,0.0,0.0,0.0,1.0,1.91721313477,2.19503540039,10.785970459,0.1,0.0,0.0,0.0,0.1,0.0,0.0,0.0,0.1
1452009335817271480,383,1452009335814217090,robocape,25.602914221,37.9795516805,-0.611863152626,0.0,10.0,0.0,0.0,0.0,10.0,0.0,0.0,0.0,10.0,0.635030761929,0.718520862103,-0.0917458995532,1.0,0.0,0.0,0.0,1.0,0.0,0.0,0.0,1.0,-1.97828613281,4.20445678711,11.2134814453,0.1,0.0,0.0,0.0,0.1,0.0,0.0,0.0,0.1
1452009335850649980,384,1452009335847570896,robocape,26.7891827707,38.4362099008,0.469809665013,0.0,10.0,0.0,0.0,0.0,10.0,0.0,0.0,0.0,10.0,0.371777288175,0.562193306116,0.259791364337,1.0,0.0,0.0,0.0,1.0,0.0,0.0,0.0,1.0,2.34352661133,9.5381652832,8.62326782227,0.1,0.0,0.0,0.0,0.1,0.0,0.0,0.0,0.1
1452009335884338314,385,1452009335881100893,robocape,25.7820064502,38.6727310994,1.31793053805,0.0,10.0,0.0,0.0,0.0,10.0,0.0,0.0,0.0,10.0,-0.772849348341,0.314519324738,0.246076084723,1.0,0.0,0.0,0.0,1.0,0.0,0.0,0.0,1.0,-3.85358642578,6.5108605957,11.439810791,0.1,0.0,0.0,0.0,0.1,0.0,0.0,0.0,0.1
1452009335917340855,386,1452009335914252042,robocape,25.4582988945,38.190731726,2.7318816028,0.0,10.0,0.0,0.0,0.0,10.0,0.0,0.0,0.0,10.0,-0.613059682936,0.050733218766,0.627573910877,1.0,0.0,0.0,0.0,1.0,0.0,0.0,0.0,1.0,-1.40348144531,-0.368833007813,9.77646972656,0.1,0.0,0.0,0.0,0.1,0.0,0.0,0.0,0.1
1452009335950831939,387,1452009335947698116,robocape,24.4897561186,38.2754041903,3.273794911,0.0,10.0,0.0,0.0,0.0,10.0,0.0,0.0,0.0,10.0,-0.654471837887,0.182826008834,0.176301264163,1.0,0.0,0.0,0.0,1.0,0.0,0.0,0.0,1.0,2.9087512207,1.07296875,9.05676635742,0.1,0.0,0.0,0.0,0.1,0.0,0.0,0.0,0.1
1452009335984052439,388,1452009335980808019,robocape,23.7901320306,38.3530821115,4.01751214578,0.0,10.0,0.0,0.0,0.0,10.0,0.0,0.0,0.0,10.0,-0.575509111566,0.220376580204,0.255263990484,1.0,0.0,0.0,0.0,1.0,0.0,0.0,0.0,1.0,0.0598754882813,0.0694555664063,9.7297668457,0.1,0.0,0.0,0.0,0.1,0.0,0.0,0.0,0.1
1452009336017202355,389,1452009336014111042,robocape,23.0910369413,38.2771754191,4.7306292874,0.0,10.0,0.0,0.0,0.0,10.0,0.0,0.0,0.0,10.0,-0.570981737713,0.130361735359,0.279898230567,1.0,0.0,0.0,0.0,1.0,0.0,0.0,0.0,1.0,-1.86691772461,0.359252929688,9.70222412109,0.1,0.0,0.0,0.0,0.1,0.0,0.0,0.0,0.1
1452009336053980314,390,1452009336050276994,robocape,22.3946425207,38.2512107811,5.37469281716,0.0,10.0,0.0,0.0,0.0,10.0,0.0,0.0,0.0,10.0,-0.545681707357,0.1448759633,0.245543452505,1.0,0.0,0.0,0.0,1.0,0.0,0.0,0.0,1.0,-1.53041748047,1.8812878418,11.9068395996,0.1,0.0,0.0,0.0,0.1,0.0,0.0,0.0,0.1
1452009336084038605,391,1452009336080765962,robocape,21.5131576863,38.0255799343,6.06254222519,0.0,10.0,0.0,0.0,0.0,10.0,0.0,0.0,0.0,10.0,-0.666322904738,0.033289513626,0.305198260923,1.0,0.0,0.0,0.0,1.0,0.0,0.0,0.0,1.0,-1.63340332031,1.23104003906,10.4398901367,0.1,0.0,0.0,0.0,0.1,0.0,0.0,0.0,0.1
1452009336117220689,392,1452009336114173889,robocape,20.6239018133,37.9577959688,6.49819795527,0.0,10.0,0.0,0.0,0.0,10.0,0.0,0.0,0.0,10.0,-0.584031227054,0.0798948327024,0.179230741362,1.0,0.0,0.0,0.0,1.0,0.0,0.0,0.0,1.0,-3.68833007813,1.70405639648,10.2303259277,0.1,0.0,0.0,0.0,0.1,0.0,0.0,0.0,0.1
