%time,field.header.seq,field.header.stamp,field.header.frame_id,field.orientation.x,field.orientation.y,field.orientation.z,field.orientation.w,field.orientation_covariance0,field.orientation_covariance1,field.orientation_covariance2,field.orientation_covariance3,field.orientation_covariance4,field.orientation_covariance5,field.orientation_covariance6,field.orientation_covariance7,field.orientation_covariance8,field.angular_velocity.x,field.angular_velocity.y,field.angular_velocity.z,field.angular_velocity_covariance0,field.angular_velocity_covariance1,field.angular_velocity_covariance2,field.angular_velocity_covariance3,field.angular_velocity_covariance4,field.angular_velocity_covariance5,field.angular_velocity_covariance6,field.angular_velocity_covariance7,field.angular_velocity_covariance8,field.linear_acceleration.x,field.linear_acceleration.y,field.linear_acceleration.z,field.linear_acceleration_covariance0,field.linear_acceleration_covariance1,field.linear_acceleration_covariance2,field.linear_acceleration_covariance3,field.linear_acceleration_covariance4,field.linear_acceleration_covariance5,field.linear_acceleration_covariance6,field.linear_acceleration_covariance7,field.linear_acceleration_covariance8
1446036367699816776,1,1446036367696398019,robocape,7.49557580039,3.77562983532,17.4971174361,0.0,10.0,0.0,0.0,0.0,10.0,0.0,0.0,0.0,10.0,-0.0565921731642,0.00705737688871,-0.0203731823391,1.0,0.0,0.0,0.0,1.0,0.0,0.0,0.0,1.0,-0.203576660156,-0.405955810547,10.1860180664,0.1,0.0,0.0,0.0,0.1,0.0,0.0,0.0,0.1
1446036367722805610,2,1446036367719907045,robocape,7.3800408552,3.78970102467,17.4114555218,0.0,10.0,0.0,0.0,0.0,10.0,0.0,0.0,0.0,10.0,-0.051532167093,0.00585895439817,-0.0300937203179,1.0,0.0,0.0,0.0,1.0,0.0,0.0,0.0,1.0,-0.158071289063,-0.252674560547,10.1716479492,0.1,0.0,0.0,0.0,0.1,0.0,0.0,0.0,0.1
1446036367754163776,3,1446036367750843048,robocape,7.19370218678,3.79419009968,17.3934114773,0.0,10.0,0.0,0.0,0.0,10.0,0.0,0.0,0.0,10.0,-0.0909469512262,0.00559263828917,0.00599211245268,1.0,0.0,0.0,0.0,1.0,0.0,0.0,0.0,1.0,-0.147293701172,-0.981958007813,10.2051782227,0.1,0.0,0.0,0.0,0.1,0.0,0.0,0.0,0.1
1446036367793951401,4,1446036367785633087,robocape,7.10329430474,3.80231055846,17.3790269492,0.0,10.0,0.0,0.0,0.0,10.0,0.0,0.0,0.0,10.0,-0.0407463646782,0.00785632521573,0.00812264132474,1.0,0.0,0.0,0.0,1.0,0.0,0.0,0.0,1.0,-0.111368408203,-1.06817871094,10.193203125,0.1,0.0,0.0,0.0,0.1,0.0,0.0,0.0,0.1
1446036367820088610,5,1446036367816633939,robocape,7.13525203951,3.81222562999,17.3819086538,0.0,10.0,0.0,0.0,0.0,10.0,0.0,0.0,0.0,10.0,0.0230363434292,0.0101200121423,0.017710021249,1.0,0.0,0.0,0.0,1.0,0.0,0.0,0.0,1.0,-0.111368408203,-0.795146484375,10.2099682617,0.1,0.0,0.0,0.0,0.1,0.0,0.0,0.0,0.1
1446036367853126818,6,1446036367849953889,robocape,7.23929788238,3.82495217998,17.3812506648,0.0,10.0,0.0,0.0,0.0,10.0,0.0,0.0,0.0,10.0,0.0611195470173,0.0114515926873,0.0159789665405,1.0,0.0,0.0,0.0,1.0,0.0,0.0,0.0,1.0,-0.167651367188,-0.726888427734,10.1656604004,0.1,0.0,0.0,0.0,0.1,0.0,0.0,0.0,0.1
1446036367886774776,7,1446036367883230924,robocape,7.34428826864,3.83929042346,17.3699859914,0.0,10.0,0.0,0.0,0.0,10.0,0.0,0.0,0.0,10.0,0.0620516533988,0.0115847507418,0.0102531701968,1.0,0.0,0.0,0.0,1.0,0.0,0.0,0.0,1.0,-0.186811523438,-0.261057128906,10.1548828125,0.1,0.0,0.0,0.0,0.1,0.0,0.0,0.0,0.1
1446036367919718360,8,1446036367916457891,robocape,7.3692325728,3.85141720072,17.3516328074,0.0,10.0,0.0,0.0,0.0,10.0,0.0,0.0,0.0,10.0,0.0202400242846,0.00985369603329,0.00625842856169,1.0,0.0,0.0,0.0,1.0,0.0,0.0,0.0,1.0,-0.197589111328,-0.136516113281,10.1740429688,0.1,0.0,0.0,0.0,0.1,0.0,0.0,0.0,0.1
1446036367953383026,9,1446036367949894905,robocape,7.29123571741,3.85980784836,17.3342644042,0.0,10.0,0.0,0.0,0.0,10.0,0.0,0.0,0.0,10.0,-0.0339553038985,0.00785632521573,0.00652474467069,1.0,0.0,0.0,0.0,1.0,0.0,0.0,0.0,1.0,-0.158071289063,-0.324525146484,10.1788330078,0.1,0.0,0.0,0.0,0.1,0.0,0.0,0.0,0.1
1446036367986648026,10,1446036367983160972,robocape,7.17076913479,3.86657298557,17.3278956533,0.0,10.0,0.0,0.0,0.0,10.0,0.0,0.0,0.0,10.0,-0.0567253312187,0.00772316716123,0.0122505410144,1.0,0.0,0.0,0.0,1.0,0.0,0.0,0.0,1.0,-0.159268798828,-0.613125,10.1848205566,0.1,0.0,0.0,0.0,0.1,0.0,0.0,0.0,0.1
1446036368020062651,11,1446036368016877889,robocape,7.14880318667,3.87743560971,17.3061517995,0.0,10.0,0.0,0.0,0.0,10.0,0.0,0.0,0.0,10.0,-0.00452737385313,0.00892158965177,0.00426105774413,1.0,0.0,0.0,0.0,1.0,0.0,0.0,0.0,1.0,-0.13412109375,-0.827479248047,10.1764379883,0.1,0.0,0.0,0.0,0.1,0.0,0.0,0.0,0.1
1446036368054549068,12,1446036368051367044,robocape,7.2092839267,3.8917309341,17.2917050086,0.0,10.0,0.0,0.0,0.0,10.0,0.0,0.0,0.0,10.0,0.0386158358061,0.0113184346328,0.00825579937925,1.0,0.0,0.0,0.0,1.0,0.0,0.0,0.0,1.0,-0.159268798828,-0.821491699219,10.1680554199,0.1,0.0,0.0,0.0,0.1,0.0,0.0,0.0,0.1
1446036368087952443,13,1446036368084522962,robocape,7.3044506764,3.90558766766,17.2797025998,0.0,10.0,0.0,0.0,0.0,10.0,0.0,0.0,0.0,10.0,0.0568584892732,0.0113184346328,0.00972053797879,1.0,0.0,0.0,0.0,1.0,0.0,0.0,0.0,1.0,-0.177231445313,-0.523311767578,10.1860180664,0.1,0.0,0.0,0.0,0.1,0.0,0.0,0.0,0.1
1446036368121954401,14,1446036368118872880,robocape,7.35758413989,3.91802641926,17.2616326201,0.0,10.0,0.0,0.0,0.0,10.0,0.0,0.0,0.0,10.0,0.0350205683345,0.0101200121423,0.00639158661619,1.0,0.0,0.0,0.0,1.0,0.0,0.0,0.0,1.0,-0.170046386719,-0.165256347656,10.1620678711,0.1,0.0,0.0,0.0,0.1,0.0,0.0,0.0,0.1
1446036368155645693,15,1446036368151880025,robocape,7.33126030439,3.92836451162,17.2490482337,0.0,10.0,0.0,0.0,0.0,10.0,0.0,0.0,0.0,10.0,-0.00692421883421,0.00932106381528,0.00905474770627,1.0,0.0,0.0,0.0,1.0,0.0,0.0,0.0,1.0,-0.179626464844,-0.235909423828,10.1752404785,0.1,0.0,0.0,0.0,0.1,0.0,0.0,0.0,0.1
1446036368189207943,16,1446036368185477018,robocape,7.25650637461,3.93719520349,17.2294548442,0.0,10.0,0.0,0.0,0.0,10.0,0.0,0.0,0.0,10.0,-0.03222424919,0.00798948327024,0.00519316412565,1.0,0.0,0.0,0.0,1.0,0.0,0.0,0.0,1.0,-0.166453857422,-0.580792236328,10.1453027344,0.1,0.0,0.0,0.0,0.1,0.0,0.0,0.0,0.1
1446036368222437026,17,1446036368219347000,robocape,7.21293865565,3.94503845028,17.2127892518,0.0,10.0,0.0,0.0,0.0,10.0,0.0,0.0,0.0,10.0,-0.0159789665405,0.00772316716123,0.00692421883421,1.0,0.0,0.0,0.0,1.0,0.0,0.0,0.0,1.0,-0.159268798828,-0.738863525391,10.1896105957,0.1,0.0,0.0,0.0,0.1,0.0,0.0,0.0,0.1
1446036368254960901,18,1446036368251785039,robocape,7.22453449452,3.95418800411,17.1948566516,0.0,10.0,0.0,0.0,0.0,10.0,0.0,0.0,0.0,10.0,0.0130494893414,0.00838895743375,0.00639158661619,1.0,0.0,0.0,0.0,1.0,0.0,0.0,0.0,1.0,-0.142503662109,-0.722098388672,10.1608703613,0.1,0.0,0.0,0.0,0.1,0.0,0.0,0.0,0.1
1446036368287208360,19,1446036368283967018,robocape,7.26488989178,3.96436570113,17.1801110592,0.0,10.0,0.0,0.0,0.0,10.0,0.0,0.0,0.0,10.0,0.0280963495003,0.00918790576077,0.00812264132474,1.0,0.0,0.0,0.0,1.0,0.0,0.0,0.0,1.0,-0.155676269531,-0.541274414062,10.1692529297,0.1,0.0,0.0,0.0,0.1,0.0,0.0,0.0,0.1
1446036368324198735,20,1446036368320043087,robocape,7.29505954508,3.97957176634,17.1698591785,0.0,10.0,0.0,0.0,0.0,10.0,0.0,0.0,0.0,10.0,0.0226368692657,0.0121173829599,0.0101200121423,1.0,0.0,0.0,0.0,1.0,0.0,0.0,0.0,1.0,-0.15328125,-0.423918457031,10.1644628906,0.1,0.0,0.0,0.0,0.1,0.0,0.0,0.0,0.1
1446036368357178526,21,1446036368352932929,robocape,7.31074390946,3.99189548641,17.146856378,0.0,10.0,0.0,0.0,0.0,10.0,0.0,0.0,0.0,10.0,0.0154463343225,0.00972053797879,0.0034621094171,1.0,0.0,0.0,0.0,1.0,0.0,0.0,0.0,1.0,-0.190404052734,-0.405955810547,10.1584753418,0.1,0.0,0.0,0.0,0.1,0.0,0.0,0.0,0.1
1446036368390866735,22,1446036368386761903,robocape,7.3121303912,4.00293877203,17.1221187853,0.0,10.0,0.0,0.0,0.0,10.0,0.0,0.0,0.0,10.0,0.00798948327024,0.00892158965177,0.00253000303558,1.0,0.0,0.0,0.0,1.0,0.0,0.0,0.0,1.0,-0.154478759766,-0.255069580078,10.1656604004,0.1,0.0,0.0,0.0,0.1,0.0,0.0,0.0,0.1
1446036368423758027,23,1446036368420310974,robocape,7.27461563325,4.01469862597,17.0983635714,0.0,10.0,0.0,0.0,0.0,10.0,0.0,0.0,0.0,10.0,-0.0125168571234,0.00932106381528,0.00279631914458,1.0,0.0,0.0,0.0,1.0,0.0,0.0,0.0,1.0,-0.158071289063,-0.578397216797,10.1704504395,0.1,0.0,0.0,0.0,0.1,0.0,0.0,0.0,0.1
1446036368456220360,24,1446036368452130079,robocape,7.25643987694,4.02572380671,17.0834520903,0.0,10.0,0.0,0.0,0.0,10.0,0.0,0.0,0.0,10.0,-0.00266316109008,0.00958737992429,0.00759000910673,1.0,0.0,0.0,0.0,1.0,0.0,0.0,0.0,1.0,-0.167651367188,-0.744851074219,10.1548828125,0.1,0.0,0.0,0.0,0.1,0.0,0.0,0.0,0.1
1446036368489784693,25,1446036368485877037,robocape,7.27837983084,4.03666402598,17.070239311,0.0,10.0,0.0,0.0,0.0,10.0,0.0,0.0,0.0,10.0,0.0183758115215,0.00972053797879,0.00865527354276,1.0,0.0,0.0,0.0,1.0,0.0,0.0,0.0,1.0,-0.130528564453,-0.688568115234,10.1500927734,0.1,0.0,0.0,0.0,0.1,0.0,0.0,0.0,0.1
1446036368522972735,26,1446036368519417047,robocape,7.32262770122,4.04967697376,17.054361357,0.0,10.0,0.0,0.0,0.0,10.0,0.0,0.0,0.0,10.0,0.0302268783724,0.0106526443603,0.00719053494321,1.0,0.0,0.0,0.0,1.0,0.0,0.0,0.0,1.0,-0.179626464844,-0.562829589844,10.172845459,0.1,0.0,0.0,0.0,0.1,0.0,0.0,0.0,0.1
1446036368556684860,27,1446036368553191900,robocape,7.3637401348,4.06232325426,17.0259476807,0.0,10.0,0.0,0.0,0.0,10.0,0.0,0.0,0.0,10.0,0.0290284558819,0.00958737992429,0.000532632218016,1.0,0.0,0.0,0.0,1.0,0.0,0.0,0.0,1.0,-0.178428955078,-0.316142578125,10.2027832031,0.1,0.0,0.0,0.0,0.1,0.0,0.0,0.0,0.1
1446036368590732277,28,1446036368587008953,robocape,7.33318774047,4.07249806387,17.0056907602,0.0,10.0,0.0,0.0,0.0,10.0,0.0,0.0,0.0,10.0,-0.00892158965177,0.00878843159726,0.00466053190764,1.0,0.0,0.0,0.0,1.0,0.0,0.0,0.0,1.0,-0.171243896484,-0.426313476563,10.1836230469,0.1,0.0,0.0,0.0,0.1,0.0,0.0,0.0,0.1
1446036368622960110,29,1446036368619399070,robocape,7.27740039698,4.08089800528,16.9895012027,0.0,10.0,0.0,0.0,0.0,10.0,0.0,0.0,0.0,10.0,-0.0223705531567,0.00812264132474,0.0067910607797,1.0,0.0,0.0,0.0,1.0,0.0,0.0,0.0,1.0,-0.180823974609,-0.531694335938,10.1680554199,0.1,0.0,0.0,0.0,0.1,0.0,0.0,0.0,0.1
1446036368658248860,30,1446036368654352903,robocape,7.223793413,4.08827287618,16.9943024018,0.0,10.0,0.0,0.0,0.0,10.0,0.0,0.0,0.0,10.0,-0.0219710789932,0.00905474770627,0.017976337358,1.0,0.0,0.0,0.0,1.0,0.0,0.0,0.0,1.0,-0.143701171875,-0.577199707031,10.1704504395,0.1,0.0,0.0,0.0,0.1,0.0,0.0,0.0,0.1
1446036368691297943,31,1446036368687336921,robocape,7.26323883799,4.09856798785,16.9926442235,0.0,10.0,0.0,0.0,0.0,10.0,0.0,0.0,0.0,10.0,0.0271642431188,0.0102531701968,0.0147805440499,1.0,0.0,0.0,0.0,1.0,0.0,0.0,0.0,1.0,-0.105380859375,-1.00351318359,10.157277832,0.1,0.0,0.0,0.0,0.1,0.0,0.0,0.0,0.1
1446036368723544527,32,1446036368719955921,robocape,7.35706950562,4.11191167268,16.9841240629,0.0,10.0,0.0,0.0,0.0,10.0,0.0,0.0,0.0,10.0,0.0560595409462,0.0114515926873,0.0111852765783,1.0,0.0,0.0,0.0,1.0,0.0,0.0,0.0,1.0,-0.178428955078,-0.638272705078,10.1764379883,0.1,0.0,0.0,0.0,0.1,0.0,0.0,0.0,0.1
1446036368757514568,33,1446036368754255056,robocape,7.42982790707,4.12328007822,16.97328704,0.0,10.0,0.0,0.0,0.0,10.0,0.0,0.0,0.0,10.0,0.0451405804768,0.0102531701968,0.0099868540878,1.0,0.0,0.0,0.0,1.0,0.0,0.0,0.0,1.0,-0.180823974609,-0.250279541016,10.1692529297,0.1,0.0,0.0,0.0,0.1,0.0,0.0,0.0,0.1
1446036368790433402,34,1446036368786824941,robocape,7.42630341679,4.13256697975,16.9583397176,0.0,10.0,0.0,0.0,0.0,10.0,0.0,0.0,0.0,10.0,0.00519316412565,0.00878843159726,0.00759000910673,1.0,0.0,0.0,0.0,1.0,0.0,0.0,0.0,1.0,-0.161663818359,-0.168848876953,10.1608703613,0.1,0.0,0.0,0.0,0.1,0.0,0.0,0.0,0.1
1446036368824216068,35,1446036368821043014,robocape,7.33929006192,4.14162074677,16.9390925616,0.0,10.0,0.0,0.0,0.0,10.0,0.0,0.0,0.0,10.0,-0.0386158358061,0.00825579937925,0.00492684801665,1.0,0.0,0.0,0.0,1.0,0.0,0.0,0.0,1.0,-0.161663818359,-0.410745849609,10.1393151855,0.1,0.0,0.0,0.0,0.1,0.0,0.0,0.0,0.1
1446036368856401902,36,1446036368853240966,robocape,7.26342644401,4.15093931869,16.9175710696,0.0,10.0,0.0,0.0,0.0,10.0,0.0,0.0,0.0,10.0,-0.032756881408,0.00825579937925,0.00372842552611,1.0,0.0,0.0,0.0,1.0,0.0,0.0,0.0,1.0,-0.166453857422,-0.710123291016,10.1393151855,0.1,0.0,0.0,0.0,0.1,0.0,0.0,0.0,0.1
1446036368890227027,37,1446036368886807918,robocape,7.26482947786,4.15477586629,16.950798433,0.0,10.0,0.0,0.0,0.0,10.0,0.0,0.0,0.0,10.0,0.00599211245268,0.00932106381528,0.0334226716805,1.0,0.0,0.0,0.0,1.0,0.0,0.0,0.0,1.0,-0.168848876953,-0.889749755859,10.1764379883,0.1,0.0,0.0,0.0,0.1,0.0,0.0,0.0,0.1
1446036368922541693,38,1446036368919466018,robocape,7.32446321524,4.17442650096,16.878137516,0.0,10.0,0.0,0.0,0.0,10.0,0.0,0.0,0.0,10.0,0.0402137324602,0.0102531701968,-0.0234358175927,1.0,0.0,0.0,0.0,1.0,0.0,0.0,0.0,1.0,-0.165256347656,-0.216749267578,10.1967956543,0.1,0.0,0.0,0.0,0.1,0.0,0.0,0.0,0.1
1446036368955825693,39,1446036368952800989,robocape,7.36744569005,4.18689548029,16.8591692074,0.0,10.0,0.0,0.0,0.0,10.0,0.0,0.0,0.0,10.0,0.0296942461544,0.0102531701968,0.00532632218016,1.0,0.0,0.0,0.0,1.0,0.0,0.0,0.0,1.0,-0.162861328125,-0.310155029297,10.1752404785,0.1,0.0,0.0,0.0,0.1,0.0,0.0,0.0,0.1
1446036368989495860,40,1446036368986351013,robocape,7.37380228833,4.19862115555,16.8462393887,0.0,10.0,0.0,0.0,0.0,10.0,0.0,0.0,0.0,10.0,0.0102531701968,0.0102531701968,0.00838895743375,1.0,0.0,0.0,0.0,1.0,0.0,0.0,0.0,1.0,-0.188009033203,-0.692160644531,10.157277832,0.1,0.0,0.0,0.0,0.1,0.0,0.0,0.0,0.1
1446036369022535027,41,1446036369019428014,robocape,7.36824085762,4.2075761396,16.8368697998,0.0,10.0,0.0,0.0,0.0,10.0,0.0,0.0,0.0,10.0,0.00386158358061,0.00905474770627,0.0103863282513,1.0,0.0,0.0,0.0,1.0,0.0,0.0,0.0,1.0,-0.190404052734,-0.484991455078,10.1560803223,0.1,0.0,0.0,0.0,0.1,0.0,0.0,0.0,0.1
1446036369055269110,42,1446036369052243947,robocape,7.35247861447,4.21805450829,16.8182486061,0.0,10.0,0.0,0.0,0.0,10.0,0.0,0.0,0.0,10.0,-0.00119842249054,0.00918790576077,0.00532632218016,1.0,0.0,0.0,0.0,1.0,0.0,0.0,0.0,1.0,-0.0359252929688,-0.32572265625,10.1704504395,0.1,0.0,0.0,0.0,0.1,0.0,0.0,0.0,0.1
1446036369088166777,43,1446036369085171937,robocape,7.33699043512,4.2300874093,16.7955909945,0.0,10.0,0.0,0.0,0.0,10.0,0.0,0.0,0.0,10.0,-0.000932106381528,0.00972053797879,0.00306263525359,1.0,0.0,0.0,0.0,1.0,0.0,0.0,0.0,1.0,-0.140108642578,-0.443078613281,10.2051782227,0.1,0.0,0.0,0.0,0.1,0.0,0.0,0.0,0.1
1446036369122750694,44,1446036369119549036,robocape,7.33072511656,4.24113250873,16.7780695045,0.0,10.0,0.0,0.0,0.0,10.0,0.0,0.0,0.0,10.0,0.00372842552611,0.00958737992429,0.00585895439817,1.0,0.0,0.0,0.0,1.0,0.0,0.0,0.0,1.0,-0.185614013672,-0.595162353516,10.157277832,0.1,0.0,0.0,0.0,0.1,0.0,0.0,0.0,0.1
1446036369154617277,45,1446036369151420116,robocape,7.32499872792,4.25005343915,16.7723903517,0.0,10.0,0.0,0.0,0.0,10.0,0.0,0.0,0.0,10.0,0.00359526747161,0.00932106381528,0.0122505410144,1.0,0.0,0.0,0.0,1.0,0.0,0.0,0.0,1.0,-0.182021484375,-0.667012939453,10.1441052246,0.1,0.0,0.0,0.0,0.1,0.0,0.0,0.0,0.1
1446036369187552360,46,1446036369184087991,robocape,7.35322654934,4.26109949642,16.7596665638,0.0,10.0,0.0,0.0,0.0,10.0,0.0,0.0,0.0,10.0,0.0217047628841,0.0099868540878,0.00852211548825,1.0,0.0,0.0,0.0,1.0,0.0,0.0,0.0,1.0,-0.150886230469,-0.546064453125,10.1548828125,0.1,0.0,0.0,0.0,0.1,0.0,0.0,0.0,0.1
1446036369220896569,47,1446036369217820882,robocape,7.37608230073,4.2693638306,16.7429045392,0.0,10.0,0.0,0.0,0.0,10.0,0.0,0.0,0.0,10.0,0.0190416017941,0.00825579937925,0.00652474467069,1.0,0.0,0.0,0.0,1.0,0.0,0.0,0.0,1.0,-0.167651367188,-0.438288574219,10.1752404785,0.1,0.0,0.0,0.0,0.1,0.0,0.0,0.0,0.1
1446036369253771985,48,1446036369250387907,robocape,7.371162493,4.27827311272,16.7237282754,0.0,10.0,0.0,0.0,0.0,10.0,0.0,0.0,0.0,10.0,0.00452737385313,0.00838895743375,0.00506000607115,1.0,0.0,0.0,0.0,1.0,0.0,0.0,0.0,1.0,-0.192799072266,-0.391585693359,10.1680554199,0.1,0.0,0.0,0.0,0.1,0.0,0.0,0.0,0.1
1446036369286633819,49,1446036369283559083,robocape,7.34020065397,4.28748884024,16.704604072,0.0,10.0,0.0,0.0,0.0,10.0,0.0,0.0,0.0,10.0,-0.00918790576077,0.00852211548825,0.00492684801665,1.0,0.0,0.0,0.0,1.0,0.0,0.0,0.0,1.0,-0.174836425781,-0.489781494141,10.1620678711,0.1,0.0,0.0,0.0,0.1,0.0,0.0,0.0,0.1
1446036369320298319,50,1446036369317054033,robocape,7.30794855485,4.29610461177,16.6879801821,0.0,10.0,0.0,0.0,0.0,10.0,0.0,0.0,0.0,10.0,-0.0099868540878,0.00838895743375,0.00625842856169,1.0,0.0,0.0,0.0,1.0,0.0,0.0,0.0,1.0,-0.15328125,-0.599952392578,10.172845459,0.1,0.0,0.0,0.0,0.1,0.0,0.0,0.0,0.1
1446036369353125152,51,1446036369350055932,robocape,7.29784158545,4.30680366749,16.6724757606,0.0,10.0,0.0,0.0,0.0,10.0,0.0,0.0,0.0,10.0,0.00159789665405,0.00958737992429,0.0067910607797,1.0,0.0,0.0,0.0,1.0,0.0,0.0,0.0,1.0,-0.156873779297,-0.663420410156,10.1860180664,0.1,0.0,0.0,0.0,0.1,0.0,0.0,0.0,0.1
1446036369386541652,52,1446036369383501052,robocape,7.31256771876,4.319681152,16.6610935713,0.0,10.0,0.0,0.0,0.0,10.0,0.0,0.0,0.0,10.0,0.0145142279409,0.0110521185238,0.00892158965177,1.0,0.0,0.0,0.0,1.0,0.0,0.0,0.0,1.0,-0.135318603516,-0.673000488281,10.1979931641,0.1,0.0,0.0,0.0,0.1,0.0,0.0,0.0,0.1
1446036369420472319,53,1446036369417392969,robocape,7.35550592371,4.33214800636,16.6368862431,0.0,10.0,0.0,0.0,0.0,10.0,0.0,0.0,0.0,10.0,0.0298274042089,0.0099868540878,0.00226368692657,1.0,0.0,0.0,0.0,1.0,0.0,0.0,0.0,1.0,-0.184416503906,-0.542471923828,10.1848205566,0.1,0.0,0.0,0.0,0.1,0.0,0.0,0.0,0.1
1446036369452936319,54,1446036369449899911,robocape,7.34483504949,4.34020062698,16.6292311888,0.0,10.0,0.0,0.0,0.0,10.0,0.0,0.0,0.0,10.0,0.00106526443603,0.00878843159726,0.0110521185238,1.0,0.0,0.0,0.0,1.0,0.0,0.0,0.0,1.0,-0.182021484375,-0.360450439453,10.1584753418,0.1,0.0,0.0,0.0,0.1,0.0,0.0,0.0,0.1
1446036369486271360,55,1446036369483272075,robocape,7.31470012833,4.34804870414,16.6139372127,0.0,10.0,0.0,0.0,0.0,10.0,0.0,0.0,0.0,10.0,-0.00892158965177,0.00812264132474,0.00692421883421,1.0,0.0,0.0,0.0,1.0,0.0,0.0,0.0,1.0,-0.159268798828,-0.461041259766,10.1836230469,0.1,0.0,0.0,0.0,0.1,0.0,0.0,0.0,0.1
1446036369520001360,56,1446036369516947031,robocape,7.28424141118,4.35639801054,16.5929637076,0.0,10.0,0.0,0.0,0.0,10.0,0.0,0.0,0.0,10.0,-0.00892158965177,0.00798948327024,0.00386158358061,1.0,0.0,0.0,0.0,1.0,0.0,0.0,0.0,1.0,-0.15328125,-0.511336669922,10.1812280273,0.1,0.0,0.0,0.0,0.1,0.0,0.0,0.0,0.1
1446036369553182569,57,1446036369550180912,robocape,7.26574942651,4.3646862968,16.5759617352,0.0,10.0,0.0,0.0,0.0,10.0,0.0,0.0,0.0,10.0,-0.00279631914458,0.00825579937925,0.00599211245268,1.0,0.0,0.0,0.0,1.0,0.0,0.0,0.0,1.0,-0.160466308594,-0.619112548828,10.2003881836,0.1,0.0,0.0,0.0,0.1,0.0,0.0,0.0,0.1
1446036369586515194,58,1446036369583479881,robocape,7.28311937194,4.37685444335,16.5425851925,0.0,10.0,0.0,0.0,0.0,10.0,0.0,0.0,0.0,10.0,0.016644756813,0.00918790576077,-0.00279631914458,1.0,0.0,0.0,0.0,1.0,0.0,0.0,0.0,1.0,-0.158071289063,-0.675395507813,10.1608703613,0.1,0.0,0.0,0.0,0.1,0.0,0.0,0.0,0.1
1446036369621671985,59,1446036369618629932,robocape,7.36212217794,4.3982864404,16.452570295,0.0,10.0,0.0,0.0,0.0,10.0,0.0,0.0,0.0,10.0,0.0511326929295,0.0101200121423,-0.0331563555715,1.0,0.0,0.0,0.0,1.0,0.0,0.0,0.0,1.0,-0.15328125,-0.360450439453,10.1596728516,0.1,0.0,0.0,0.0,0.1,0.0,0.0,0.0,0.1
1446036369653642485,60,1446036369650043964,robocape,7.38607699514,4.42332543711,16.3110445955,0.0,10.0,0.0,0.0,0.0,10.0,0.0,0.0,0.0,10.0,0.0241016078652,0.00825579937925,-0.0609863889628,1.0,0.0,0.0,0.0,1.0,0.0,0.0,0.0,1.0,-0.226329345703,-0.265847167969,10.1441052246,0.1,0.0,0.0,0.0,0.1,0.0,0.0,0.0,0.1
1446036369686287152,61,1446036369683254957,robocape,7.3664521911,4.45765162271,16.0416214458,0.0,10.0,0.0,0.0,0.0,10.0,0.0,0.0,0.0,10.0,0.00585895439817,0.00399474163512,-0.129562787032,1.0,0.0,0.0,0.0,1.0,0.0,0.0,0.0,1.0,-0.15328125,0.0514929199219,10.1488952637,0.1,0.0,0.0,0.0,0.1,0.0,0.0,0.0,0.1
1446036369720354652,62,1446036369717149019,robocape,7.2133244651,4.49304780243,15.6667434821,0.0,10.0,0.0,0.0,0.0,10.0,0.0,0.0,0.0,10.0,-0.0604537567448,-0.00279631914458,-0.186154960197,1.0,0.0,0.0,0.0,1.0,0.0,0.0,0.0,1.0,-0.243094482422,0.725690917969,10.1393151855,0.1,0.0,0.0,0.0,0.1,0.0,0.0,0.0,0.1
1446036369754397069,63,1446036369751394033,robocape,6.63065918836,4.48010869763,15.5376922648,0.0,10.0,0.0,0.0,0.0,10.0,0.0,0.0,0.0,10.0,-0.295610880999,-0.0110521185238,-0.0553937506736,1.0,0.0,0.0,0.0,1.0,0.0,0.0,0.0,1.0,-0.292192382813,-0.279019775391,10.1345251465,0.1,0.0,0.0,0.0,0.1,0.0,0.0,0.0,0.1
1446036369786185611,64,1446036369783117055,robocape,6.02684173466,4.44979290301,15.5451715985,0.0,10.0,0.0,0.0,0.0,10.0,0.0,0.0,0.0,10.0,-0.312255637812,-0.0111852765783,0.0175768631945,1.0,0.0,0.0,0.0,1.0,0.0,0.0,0.0,1.0,-0.0443078613281,-1.23583007813,10.136920166,0.1,0.0,0.0,0.0,0.1,0.0,0.0,0.0,0.1
1446036369820139152,65,1446036369817059993,robocape,5.65938934625,4.43261567355,15.5480701475,0.0,10.0,0.0,0.0,0.0,10.0,0.0,0.0,0.0,10.0,-0.188285489069,-0.00439421579863,0.015313176268,1.0,0.0,0.0,0.0,1.0,0.0,0.0,0.0,1.0,-0.152083740234,-1.68609375,10.0914147949,0.1,0.0,0.0,0.0,0.1,0.0,0.0,0.0,0.1
1446036369852859527,66,1446036369849796056,robocape,5.64541216234,4.44287847411,15.5360676706,0.0,10.0,0.0,0.0,0.0,10.0,0.0,0.0,0.0,10.0,-0.00226368692657,0.00945422186978,0.00719053494321,1.0,0.0,0.0,0.0,1.0,0.0,0.0,0.0,1.0,0.067060546875,-1.69926635742,10.2602636719,0.1,0.0,0.0,0.0,0.1,0.0,0.0,0.0,0.1
1446036369886930944,67,1446036369883932113,robocape,5.7502836385,4.45452293942,15.6197791205,0.0,10.0,0.0,0.0,0.0,10.0,0.0,0.0,0.0,10.0,0.0565921731642,0.015579492377,0.0581900698182,1.0,0.0,0.0,0.0,1.0,0.0,0.0,0.0,1.0,-0.0814306640625,-1.38911132813,10.1812280273,0.1,0.0,0.0,0.0,0.1,0.0,0.0,0.0,0.1
1446036369919789694,68,1446036369916759014,robocape,6.12991676913,4.49849218557,15.599541382,0.0,10.0,0.0,0.0,0.0,10.0,0.0,0.0,0.0,10.0,0.205063403936,0.0270310850643,0.00239684498107,1.0,0.0,0.0,0.0,1.0,0.0,0.0,0.0,1.0,-0.0742456054688,-0.798739013672,10.1716479492,0.1,0.0,0.0,0.0,0.1,0.0,0.0,0.0,0.1
1446036369953599236,69,1446036369950588941,robocape,6.47124380726,4.52743640245,15.61403736,0.0,10.0,0.0,0.0,0.0,10.0,0.0,0.0,0.0,10.0,0.184024431324,0.0213052887206,0.0214384467751,1.0,0.0,0.0,0.0,1.0,0.0,0.0,0.0,1.0,-0.186811523438,-0.336500244141,10.1429077148,0.1,0.0,0.0,0.0,0.1,0.0,0.0,0.0,0.1
1446036369986306986,70,1446036369983256101,robocape,6.58980427814,4.52973821002,15.7652110302,0.0,10.0,0.0,0.0,0.0,10.0,0.0,0.0,0.0,10.0,0.0620516533988,0.015845808486,0.0945422186978,1.0,0.0,0.0,0.0,1.0,0.0,0.0,0.0,1.0,-0.267044677734,-0.0347277832031,10.1908081055,0.1,0.0,0.0,0.0,0.1,0.0,0.0,0.0,0.1
1446036370019506444,71,1446036370016510963,robocape,6.64925634175,4.53602409609,15.8549226299,0.0,10.0,0.0,0.0,0.0,10.0,0.0,0.0,0.0,10.0,0.0334226716805,0.0141147537774,0.0617853372898,1.0,0.0,0.0,0.0,1.0,0.0,0.0,0.0,1.0,-0.205971679688,-0.535286865234,10.1824255371,0.1,0.0,0.0,0.0,0.1,0.0,0.0,0.0,0.1
1446036370053067652,72,1446036370049957036,robocape,6.73577303728,4.54964278556,15.8438763744,0.0,10.0,0.0,0.0,0.0,10.0,0.0,0.0,0.0,10.0,0.051532167093,0.0115847507418,0.00825579937925,1.0,0.0,0.0,0.0,1.0,0.0,0.0,0.0,1.0,-0.202379150391,-0.353265380859,10.1644628906,0.1,0.0,0.0,0.0,0.1,0.0,0.0,0.0,0.1
1446036370086664736,73,1446036370083359003,robocape,6.67165038722,4.55652180911,15.8487749323,0.0,10.0,0.0,0.0,0.0,10.0,0.0,0.0,0.0,10.0,-0.0282295075548,0.00892158965177,0.0165115987585,1.0,0.0,0.0,0.0,1.0,0.0,0.0,0.0,1.0,-0.207169189453,-0.0790356445313,10.1441052246,0.1,0.0,0.0,0.0,0.1,0.0,0.0,0.0,0.1
1446036370120075402,74,1446036370116641044,robocape,6.45906645134,4.5401425842,15.9414903455,0.0,10.0,0.0,0.0,0.0,10.0,0.0,0.0,0.0,10.0,-0.109722236911,0.00213052887206,0.0637827081074,1.0,0.0,0.0,0.0,1.0,0.0,0.0,0.0,1.0,-0.0706530761719,-0.765208740234,10.1704504395,0.1,0.0,0.0,0.0,0.1,0.0,0.0,0.0,0.1
1446036370153773111,75,1446036370149934053,robocape,6.27263961186,4.51655759078,16.1501572528,0.0,10.0,0.0,0.0,0.0,10.0,0.0,0.0,0.0,10.0,-0.10053433115,0.00532632218016,0.125834361506,1.0,0.0,0.0,0.0,1.0,0.0,0.0,0.0,1.0,-0.209564208984,-1.38551879883,10.208770752,0.1,0.0,0.0,0.0,0.1,0.0,0.0,0.0,0.1
1446036370186576111,76,1446036370183203935,robocape,6.19713903094,4.48483378548,16.5506510262,0.0,10.0,0.0,0.0,0.0,10.0,0.0,0.0,0.0,10.0,-0.0495347962755,0.0125168571234,0.228765537638,1.0,0.0,0.0,0.0,1.0,0.0,0.0,0.0,1.0,-0.0562829589844,-1.19750976562,10.1381176758,0.1,0.0,0.0,0.0,0.1,0.0,0.0,0.0,0.1
1446036370219873611,77,1446036370216485023,robocape,6.35103113661,4.48790933362,16.7930166411,0.0,10.0,0.0,0.0,0.0,10.0,0.0,0.0,0.0,10.0,0.0770985135578,0.0215716048296,0.144476489137,1.0,0.0,0.0,0.0,1.0,0.0,0.0,0.0,1.0,0.0742456054688,-2.44052490234,10.0530944824,0.1,0.0,0.0,0.0,0.1,0.0,0.0,0.0,0.1
1446036370253236486,78,1446036370250112056,robocape,6.97210505646,4.52107885298,16.7715288129,0.0,10.0,0.0,0.0,0.0,10.0,0.0,0.0,0.0,10.0,0.33289513626,0.0218379209386,0.00479368996214,1.0,0.0,0.0,0.0,1.0,0.0,0.0,0.0,1.0,-0.322130126953,-0.279019775391,10.3093615723,0.1,0.0,0.0,0.0,0.1,0.0,0.0,0.0,0.1
1446036370286257777,79,1446036370283174991,robocape,7.50787656998,4.54554879629,16.7024418589,0.0,10.0,0.0,0.0,0.0,10.0,0.0,0.0,0.0,10.0,0.290550874928,0.0139815957229,-0.0201068662301,1.0,0.0,0.0,0.0,1.0,0.0,0.0,0.0,1.0,-0.305364990234,0.168848876953,10.2171533203,0.1,0.0,0.0,0.0,0.1,0.0,0.0,0.0,0.1
1446036370319945819,80,1446036370316658020,robocape,7.79158762534,4.55731858815,16.6845264838,0.0,10.0,0.0,0.0,0.0,10.0,0.0,0.0,0.0,10.0,0.156593872097,0.0106526443603,0.0067910607797,1.0,0.0,0.0,0.0,1.0,0.0,0.0,0.0,1.0,-0.131726074219,0.308957519531,10.152487793,0.1,0.0,0.0,0.0,0.1,0.0,0.0,0.0,0.1
1446036370353357611,81,1446036370350101947,robocape,7.86986885483,4.56839050543,16.6556659625,0.0,10.0,0.0,0.0,0.0,10.0,0.0,0.0,0.0,10.0,0.049135322112,0.00918790576077,0.000133158054504,1.0,0.0,0.0,0.0,1.0,0.0,0.0,0.0,1.0,-0.239501953125,0.482596435547,10.1345251465,0.1,0.0,0.0,0.0,0.1,0.0,0.0,0.0,0.1
1446036370386428152,82,1446036370383348941,robocape,7.77054773796,4.5873042767,16.5670055907,0.0,10.0,0.0,0.0,0.0,10.0,0.0,0.0,0.0,10.0,-0.0420779452233,0.00852211548825,-0.0328900394625,1.0,0.0,0.0,0.0,1.0,0.0,0.0,0.0,1.0,-0.228724365234,-0.028740234375,10.1057849121,0.1,0.0,0.0,0.0,0.1,0.0,0.0,0.0,0.1
1446036370419908652,83,1446036370416688919,robocape,7.67391054824,4.62711156628,16.3015900691,0.0,10.0,0.0,0.0,0.0,10.0,0.0,0.0,0.0,10.0,-0.034088461953,0.00639158661619,-0.127831732324,1.0,0.0,0.0,0.0,1.0,0.0,0.0,0.0,1.0,-0.262254638672,0.0311352539063,10.1716479492,0.1,0.0,0.0,0.0,0.1,0.0,0.0,0.0,0.1
1446036370454444736,84,1446036370451322078,robocape,7.29912162435,4.64896102527,16.0868789363,0.0,10.0,0.0,0.0,0.0,10.0,0.0,0.0,0.0,10.0,-0.18242653467,0.000798948327024,-0.101333279478,1.0,0.0,0.0,0.0,1.0,0.0,0.0,0.0,1.0,-0.135318603516,0.829874267578,10.1608703613,0.1,0.0,0.0,0.0,0.1,0.0,0.0,0.0,0.1
1446036370486915111,85,1446036370483632087,robocape,6.53856097572,4.63009948081,16.1035591117,0.0,10.0,0.0,0.0,0.0,10.0,0.0,0.0,0.0,10.0,-0.394547315495,-0.00452737385313,0.0217047628841,1.0,0.0,0.0,0.0,1.0,0.0,0.0,0.0,1.0,-0.189206542969,-1.01309326172,10.1884130859,0.1,0.0,0.0,0.0,0.1,0.0,0.0,0.0,0.1
1446036370520789028,86,1446036370517502069,robocape,5.89416079727,4.61130063976,16.0549519865,0.0,10.0,0.0,0.0,0.0,10.0,0.0,0.0,0.0,10.0,-0.33143039766,-0.00838895743375,-0.0122505410144,1.0,0.0,0.0,0.0,1.0,0.0,0.0,0.0,1.0,-0.160466308594,-1.47173950195,10.2578686523,0.1,0.0,0.0,0.0,0.1,0.0,0.0,0.0,0.1
1446036370554799403,87,1446036370551765918,robocape,5.50795980634,4.58884117427,16.0658398596,0.0,10.0,0.0,0.0,0.0,10.0,0.0,0.0,0.0,10.0,-0.198538659265,-0.00652474467069,0.0203731823391,1.0,0.0,0.0,0.0,1.0,0.0,0.0,0.0,1.0,-0.0610729980469,-2.1112097168,10.1129699707,0.1,0.0,0.0,0.0,0.1,0.0,0.0,0.0,0.1
1446036370588020528,88,1446036370584692001,robocape,5.43812151838,4.59511746039,16.0598272432,0.0,10.0,0.0,0.0,0.0,10.0,0.0,0.0,0.0,10.0,-0.031957933081,0.00785632521573,0.0110521185238,1.0,0.0,0.0,0.0,1.0,0.0,0.0,0.0,1.0,0.107775878906,-1.88248535156,10.0878222656,0.1,0.0,0.0,0.0,0.1,0.0,0.0,0.0,0.1
1446036370621651069,89,1446036370618413925,robocape,5.63715051003,4.62203172695,16.0388578292,0.0,10.0,0.0,0.0,0.0,10.0,0.0,0.0,0.0,10.0,0.109855394966,0.0181094954125,0.00292947719909,1.0,0.0,0.0,0.0,1.0,0.0,0.0,0.0,1.0,-0.119750976563,-1.48371459961,10.1165625,0.1,0.0,0.0,0.0,0.1,0.0,0.0,0.0,0.1
1446036370655550819,90,1446036370651808023,robocape,6.01171518612,4.65716100687,16.0162207419,0.0,10.0,0.0,0.0,0.0,10.0,0.0,0.0,0.0,10.0,0.202400242846,0.0225037112112,0.00213052887206,1.0,0.0,0.0,0.0,1.0,0.0,0.0,0.0,1.0,-0.108973388672,-0.930465087891,10.1536853027,0.1,0.0,0.0,0.0,0.1,0.0,0.0,0.0,0.1
1446036370690816694,91,1446036370687280893,robocape,6.33628085919,4.6841398803,16.002655715,0.0,10.0,0.0,0.0,0.0,10.0,0.0,0.0,0.0,10.0,0.176168106109,0.0187752856851,0.00719053494321,1.0,0.0,0.0,0.0,1.0,0.0,0.0,0.0,1.0,-0.171243896484,-0.331710205078,10.1596728516,0.1,0.0,0.0,0.0,0.1,0.0,0.0,0.0,0.1
1446036370721262486,92,1446036370717689990,robocape,6.53080842437,4.70068353411,15.9926059717,0.0,10.0,0.0,0.0,0.0,10.0,0.0,0.0,0.0,10.0,0.107991182203,0.0134489635049,0.00918790576077,1.0,0.0,0.0,0.0,1.0,0.0,0.0,0.0,1.0,-0.384400634766,0.0275427246094,10.1297351074,0.1,0.0,0.0,0.0,0.1,0.0,0.0,0.0,0.1
1446036370756895694,93,1446036370753768920,robocape,6.55210760337,4.71174639797,15.9801340504,0.0,10.0,0.0,0.0,0.0,10.0,0.0,0.0,0.0,10.0,0.017177389031,0.0102531701968,0.00759000910673,1.0,0.0,0.0,0.0,1.0,0.0,0.0,0.0,1.0,-0.126936035156,0.0969982910156,10.177635498,0.1,0.0,0.0,0.0,0.1,0.0,0.0,0.0,0.1
1446036370789383444,94,1446036370786161899,robocape,6.41400712332,4.71406326117,15.9628277311,0.0,10.0,0.0,0.0,0.0,10.0,0.0,0.0,0.0,10.0,-0.0664458691975,0.00519316412565,0.00492684801665,1.0,0.0,0.0,0.0,1.0,0.0,0.0,0.0,1.0,-0.216749267578,-0.286204833984,10.1764379883,0.1,0.0,0.0,0.0,0.1,0.0,0.0,0.0,0.1
1446036370824691278,95,1446036370821413040,robocape,6.22107818024,4.71602779607,15.9474092983,0.0,10.0,0.0,0.0,0.0,10.0,0.0,0.0,0.0,10.0,-0.0954743250793,0.00506000607115,0.00572579634367,1.0,0.0,0.0,0.0,1.0,0.0,0.0,0.0,1.0,-0.217946777344,-0.759221191406,10.177635498,0.1,0.0,0.0,0.0,0.1,0.0,0.0,0.0,0.1
1446036370855867986,96,1446036370852535009,robocape,6.09677680701,4.72229122979,15.9242019435,0.0,10.0,0.0,0.0,0.0,10.0,0.0,0.0,0.0,10.0,-0.0592553342543,0.00692421883421,0.00159789665405,1.0,0.0,0.0,0.0,1.0,0.0,0.0,0.0,1.0,-0.0838256835938,-1.01788330078,10.1764379883,0.1,0.0,0.0,0.0,0.1,0.0,0.0,0.0,0.1
1446036370890925319,97,1446036370887772083,robocape,6.07747181942,4.73062217386,15.9098749815,0.0,10.0,0.0,0.0,0.0,10.0,0.0,0.0,0.0,10.0,-0.00452737385313,0.00865527354276,0.00652474467069,1.0,0.0,0.0,0.0,1.0,0.0,0.0,0.0,1.0,-0.128133544922,-1.19870727539,10.1476977539,0.1,0.0,0.0,0.0,0.1,0.0,0.0,0.0,0.1
1446036370924071028,98,1446036370919997930,robocape,6.1876227497,4.7478167384,15.875541033,0.0,10.0,0.0,0.0,0.0,10.0,0.0,0.0,0.0,10.0,0.0643153403254,0.0122505410144,-0.00412789968962,1.0,0.0,0.0,0.0,1.0,0.0,0.0,0.0,1.0,-0.0981958007813,-1.13404174805,10.1453027344,0.1,0.0,0.0,0.0,0.1,0.0,0.0,0.0,0.1
1446036370957993736,99,1446036370954329013,robocape,6.38746155769,4.77624483362,15.7847779251,0.0,10.0,0.0,0.0,0.0,10.0,0.0,0.0,0.0,10.0,0.113850136601,0.0147805440499,-0.034354778062,1.0,0.0,0.0,0.0,1.0,0.0,0.0,0.0,1.0,-0.156873779297,-0.320932617188,10.193203125,0.1,0.0,0.0,0.0,0.1,0.0,0.0,0.0,0.1
1446036370990286403,100,1446036370986844062,robocape,6.41534128054,4.78566979771,15.7683097529,0.0,10.0,0.0,0.0,0.0,10.0,0.0,0.0,0.0,10.0,0.0206394984481,0.00918790576077,0.00532632218016,1.0,0.0,0.0,0.0,1.0,0.0,0.0,0.0,1.0,-0.258662109375,-0.252674560547,10.1620678711,0.1,0.0,0.0,0.0,0.1,0.0,0.0,0.0,0.1
1446036371024818986,101,1446036371020989894,robocape,6.35541006293,4.79275840503,15.7300740467,0.0,10.0,0.0,0.0,0.0,10.0,0.0,0.0,0.0,10.0,-0.0246342400832,0.00652474467069,-0.00639158661619,1.0,0.0,0.0,0.0,1.0,0.0,0.0,0.0,1.0,-0.147293701172,-0.500559082031,10.1500927734,0.1,0.0,0.0,0.0,0.1,0.0,0.0,0.0,0.1
1446036371058364861,102,1446036371054918050,robocape,6.33622983603,4.8126531174,15.5948385386,0.0,10.0,0.0,0.0,0.0,10.0,0.0,0.0,0.0,10.0,0.00066579027252,0.00732369299772,-0.0583232278727,1.0,0.0,0.0,0.0,1.0,0.0,0.0,0.0,1.0,-0.165256347656,-0.530496826172,10.1512902832,0.1,0.0,0.0,0.0,0.1,0.0,0.0,0.0,0.1
1446036371090332361,103,1446036371087099075,robocape,6.28714960434,4.83282601312,15.4069688735,0.0,10.0,0.0,0.0,0.0,10.0,0.0,0.0,0.0,10.0,-0.0129163312869,0.00426105774413,-0.0864195773731,1.0,0.0,0.0,0.0,1.0,0.0,0.0,0.0,1.0,-0.182021484375,-0.311352539063,10.1644628906,0.1,0.0,0.0,0.0,0.1,0.0,0.0,0.0,0.1
1446036371124871903,104,1446036371121185064,robocape,6.14656084775,4.84712335006,15.2275020753,0.0,10.0,0.0,0.0,0.0,10.0,0.0,0.0,0.0,10.0,-0.0613858631263,0.00173105470855,-0.0821585196289,1.0,0.0,0.0,0.0,1.0,0.0,0.0,0.0,1.0,-0.176033935547,-0.387993164063,10.1704504395,0.1,0.0,0.0,0.0,0.1,0.0,0.0,0.0,0.1
1446036371156596528,105,1446036371152892112,robocape,5.91397458271,4.85008512676,15.1193714998,0.0,10.0,0.0,0.0,0.0,10.0,0.0,0.0,0.0,10.0,-0.112784872165,0.000133158054504,-0.0443416321498,1.0,0.0,0.0,0.0,1.0,0.0,0.0,0.0,1.0,-0.193996582031,-0.419128417969,10.1453027344,0.1,0.0,0.0,0.0,0.1,0.0,0.0,0.0,0.1
1446036371190096028,106,1446036371187021017,robocape,5.63854215001,4.84105861119,15.106020869,0.0,10.0,0.0,0.0,0.0,10.0,0.0,0.0,0.0,10.0,-0.139416483066,-0.00066579027252,0.00612527050718,1.0,0.0,0.0,0.0,1.0,0.0,0.0,0.0,1.0,-0.143701171875,-1.3376184082,10.1836230469,0.1,0.0,0.0,0.0,0.1,0.0,0.0,0.0,0.1
1446036371222551403,107,1446036371219415903,robocape,5.52209986655,4.83830798483,15.1077193524,0.0,10.0,0.0,0.0,0.0,10.0,0.0,0.0,0.0,10.0,-0.0567253312187,0.00359526747161,0.0142479118319,1.0,0.0,0.0,0.0,1.0,0.0,0.0,0.0,1.0,-0.0299377441406,-1.4525793457,10.1453027344,0.1,0.0,0.0,0.0,0.1,0.0,0.0,0.0,0.1
1446036371255774070,108,1446036371252670049,robocape,5.57826235662,4.85220582164,15.0979020553,0.0,10.0,0.0,0.0,0.0,10.0,0.0,0.0,0.0,10.0,0.034354778062,0.0118510668509,0.00785632521573,1.0,0.0,0.0,0.0,1.0,0.0,0.0,0.0,1.0,-0.0443078613281,-1.3759387207,10.1656604004,0.1,0.0,0.0,0.0,0.1,0.0,0.0,0.0,0.1
1446036371289034570,109,1446036371285811901,robocape,5.75839541388,4.87491422649,15.08397556,0.0,10.0,0.0,0.0,0.0,10.0,0.0,0.0,0.0,10.0,0.0997353828235,0.016378440704,0.00559263828917,1.0,0.0,0.0,0.0,1.0,0.0,0.0,0.0,1.0,-0.119750976563,-0.984353027344,10.1668579102,0.1,0.0,0.0,0.0,0.1,0.0,0.0,0.0,0.1
1446036371322538903,110,1446036371319515943,robocape,5.96449472474,4.89679463023,15.0696117561,0.0,10.0,0.0,0.0,0.0,10.0,0.0,0.0,0.0,10.0,0.113583820492,0.0159789665405,0.00545948023466,1.0,0.0,0.0,0.0,1.0,0.0,0.0,0.0,1.0,-0.150886230469,-0.617915039063,10.1644628906,0.1,0.0,0.0,0.0,0.1,0.0,0.0,0.0,0.1
1446036371355758361,111,1446036371352741956,robocape,6.09746264047,4.90920437808,15.0930499762,0.0,10.0,0.0,0.0,0.0,10.0,0.0,0.0,0.0,10.0,0.0737695621952,0.0131826473959,0.0256995045193,1.0,0.0,0.0,0.0,1.0,0.0,0.0,0.0,1.0,-0.209564208984,-0.0634680175781,10.1692529297,0.1,0.0,0.0,0.0,0.1,0.0,0.0,0.0,0.1
1446036371389544195,112,1446036371386451005,robocape,6.07036207436,4.90638619924,15.1546564613,0.0,10.0,0.0,0.0,0.0,10.0,0.0,0.0,0.0,10.0,-0.0118510668509,0.00732369299772,0.0462058449129,1.0,0.0,0.0,0.0,1.0,0.0,0.0,0.0,1.0,-0.198786621094,-1.14122680664,10.0794396973,0.1,0.0,0.0,0.0,0.1,0.0,0.0,0.0,0.1
1446036371422226945,113,1446036371419220924,robocape,6.03086058157,4.90845971091,15.1776370303,0.0,10.0,0.0,0.0,0.0,10.0,0.0,0.0,0.0,10.0,-0.0167779148675,0.00759000910673,0.0255663464648,1.0,0.0,0.0,0.0,1.0,0.0,0.0,0.0,1.0,-0.141306152344,-0.220341796875,10.2051782227,0.1,0.0,0.0,0.0,0.1,0.0,0.0,0.0,0.1
1446036371454748070,114,1446036371451699972,robocape,5.97314656883,4.91136383627,15.1937043613,0.0,10.0,0.0,0.0,0.0,10.0,0.0,0.0,0.0,10.0,-0.0260989786828,0.00759000910673,0.0218379209386,1.0,0.0,0.0,0.0,1.0,0.0,0.0,0.0,1.0,-0.234711914063,-0.876577148438,10.2003881836,0.1,0.0,0.0,0.0,0.1,0.0,0.0,0.0,0.1
1446036371487858028,115,1446036371484602928,robocape,5.9434109017,4.91748841489,15.1940166768,0.0,10.0,0.0,0.0,0.0,10.0,0.0,0.0,0.0,10.0,-0.0107858024148,0.00838895743375,0.0134489635049,1.0,0.0,0.0,0.0,1.0,0.0,0.0,0.0,1.0,-0.123343505859,-0.780776367188,10.1955981445,0.1,0.0,0.0,0.0,0.1,0.0,0.0,0.0,0.1
1446036371520442195,116,1446036371517338991,robocape,5.93112986737,4.9227272361,15.1996769043,0.0,10.0,0.0,0.0,0.0,10.0,0.0,0.0,0.0,10.0,-0.00186421276306,0.00825579937925,0.016378440704,1.0,0.0,0.0,0.0,1.0,0.0,0.0,0.0,1.0,-0.152083740234,-0.979562988281,10.1704504395,0.1,0.0,0.0,0.0,0.1,0.0,0.0,0.0,0.1
1446036371553744070,117,1446036371550653934,robocape,5.96098744713,4.93460551793,15.1903634906,0.0,10.0,0.0,0.0,0.0,10.0,0.0,0.0,0.0,10.0,0.0209058145571,0.0109189604693,0.00825579937925,1.0,0.0,0.0,0.0,1.0,0.0,0.0,0.0,1.0,-0.141306152344,-0.767603759766,10.1584753418,0.1,0.0,0.0,0.0,0.1,0.0,0.0,0.0,0.1
1446036371587189820,118,1446036371584017992,robocape,6.00277189347,4.94607766386,15.1819681063,0.0,10.0,0.0,0.0,0.0,10.0,0.0,0.0,0.0,10.0,0.0271642431188,0.0107858024148,0.00878843159726,1.0,0.0,0.0,0.0,1.0,0.0,0.0,0.0,1.0,-0.185614013672,-0.661025390625,10.1704504395,0.1,0.0,0.0,0.0,0.1,0.0,0.0,0.0,0.1
1446036371620951070,119,1446036371617870092,robocape,5.940479141,4.9450222174,15.2633878748,0.0,10.0,0.0,0.0,0.0,10.0,0.0,0.0,0.0,10.0,-0.0312921428084,0.00932106381528,0.0565921731642,1.0,0.0,0.0,0.0,1.0,0.0,0.0,0.0,1.0,-0.120948486328,-0.760418701172,10.1860180664,0.1,0.0,0.0,0.0,0.1,0.0,0.0,0.0,0.1
1446036371653968445,120,1446036371650860071,robocape,6.00523725646,4.95582049186,15.2694736198,0.0,10.0,0.0,0.0,0.0,10.0,0.0,0.0,0.0,10.0,0.0386158358061,0.0113184346328,0.016644756813,1.0,0.0,0.0,0.0,1.0,0.0,0.0,0.0,1.0,-0.113763427734,-1.12326416016,10.1512902832,0.1,0.0,0.0,0.0,0.1,0.0,0.0,0.0,0.1
1446036371686767236,121,1446036371683672904,robocape,6.08414154435,4.96570299263,15.2670571496,0.0,10.0,0.0,0.0,0.0,10.0,0.0,0.0,0.0,10.0,0.0464721610219,0.0103863282513,0.0122505410144,1.0,0.0,0.0,0.0,1.0,0.0,0.0,0.0,1.0,-0.155676269531,-0.615520019531,10.1704504395,0.1,0.0,0.0,0.0,0.1,0.0,0.0,0.0,0.1
1446036371719835486,122,1446036371716681957,robocape,6.10389519146,4.96692164986,15.2993899505,0.0,10.0,0.0,0.0,0.0,10.0,0.0,0.0,0.0,10.0,0.0139815957229,0.00785632521573,0.0308926686449,1.0,0.0,0.0,0.0,1.0,0.0,0.0,0.0,1.0,-0.171243896484,-0.657432861328,10.1716479492,0.1,0.0,0.0,0.0,0.1,0.0,0.0,0.0,0.1
1446036371753172986,123,1446036371750092029,robocape,6.12670538299,4.97423065725,15.3136019182,0.0,10.0,0.0,0.0,0.0,10.0,0.0,0.0,0.0,10.0,0.016378440704,0.0099868540878,0.0210389726116,1.0,0.0,0.0,0.0,1.0,0.0,0.0,0.0,1.0,-0.154478759766,-0.694555664063,10.1824255371,0.1,0.0,0.0,0.0,0.1,0.0,0.0,0.0,0.1
1446036371786643945,124,1446036371783402919,robocape,6.13869688376,4.98280491871,15.3166405035,0.0,10.0,0.0,0.0,0.0,10.0,0.0,0.0,0.0,10.0,0.0111852765783,0.0099868540878,0.0150468601589,1.0,0.0,0.0,0.0,1.0,0.0,0.0,0.0,1.0,-0.158071289063,-0.658630371094,10.1596728516,0.1,0.0,0.0,0.0,0.1,0.0,0.0,0.0,0.1
1446036371819600778,125,1446036371816476106,robocape,6.14623051727,4.9927293781,15.3054791552,0.0,10.0,0.0,0.0,0.0,10.0,0.0,0.0,0.0,10.0,0.00945422186978,0.00985369603329,0.00745685105222,1.0,0.0,0.0,0.0,1.0,0.0,0.0,0.0,1.0,-0.148491210938,-0.655037841797,10.1560803223,0.1,0.0,0.0,0.0,0.1,0.0,0.0,0.0,0.1
1446036371853153153,126,1446036371850099086,robocape,6.13378590312,5.00135172146,15.2948382324,0.0,10.0,0.0,0.0,0.0,10.0,0.0,0.0,0.0,10.0,-0.00106526443603,0.00918790576077,0.00772316716123,1.0,0.0,0.0,0.0,1.0,0.0,0.0,0.0,1.0,-0.154478759766,-0.688568115234,10.1656604004,0.1,0.0,0.0,0.0,0.1,0.0,0.0,0.0,0.1
1446036371886387070,127,1446036371883325099,robocape,6.1180051982,5.01489471258,15.283479849,0.0,10.0,0.0,0.0,0.0,10.0,0.0,0.0,0.0,10.0,-0.00279631914458,0.0117179087963,0.00705737688871,1.0,0.0,0.0,0.0,1.0,0.0,0.0,0.0,1.0,-0.147293701172,-0.7280859375,10.1465002441,0.1,0.0,0.0,0.0,0.1,0.0,0.0,0.0,0.1
1446036371919858487,128,1446036371916841030,robocape,6.13683848365,5.02564084496,15.2487275425,0.0,10.0,0.0,0.0,0.0,10.0,0.0,0.0,0.0,10.0,0.016378440704,0.00892158965177,-0.00506000607115,1.0,0.0,0.0,0.0,1.0,0.0,0.0,0.0,1.0,-0.113763427734,-0.869392089844,10.1908081055,0.1,0.0,0.0,0.0,0.1,0.0,0.0,0.0,0.1
1446036371953326195,129,1446036371950346946,robocape,6.10325295782,5.02975395198,15.2487229122,0.0,10.0,0.0,0.0,0.0,10.0,0.0,0.0,0.0,10.0,-0.0126500151779,0.00745685105222,0.0134489635049,1.0,0.0,0.0,0.0,1.0,0.0,0.0,0.0,1.0,-0.17244140625,-0.698148193359,10.193203125,0.1,0.0,0.0,0.0,0.1,0.0,0.0,0.0,0.1
1446036371986696487,130,1446036371983685970,robocape,6.09704643791,5.03923184673,15.239014044,0.0,10.0,0.0,0.0,0.0,10.0,0.0,0.0,0.0,10.0,0.00213052887206,0.00972053797879,0.00812264132474,1.0,0.0,0.0,0.0,1.0,0.0,0.0,0.0,1.0,-0.15328125,-0.626297607422,10.1848205566,0.1,0.0,0.0,0.0,0.1,0.0,0.0,0.0,0.1
1446036372019739570,131,1446036372016741037,robocape,6.09675938034,5.04977933807,15.2241078852,0.0,10.0,0.0,0.0,0.0,10.0,0.0,0.0,0.0,10.0,0.00545948023466,0.0099868540878,0.00532632218016,1.0,0.0,0.0,0.0,1.0,0.0,0.0,0.0,1.0,-0.159268798828,-0.810714111328,10.1213525391,0.1,0.0,0.0,0.0,0.1,0.0,0.0,0.0,0.1
1446036372052956070,132,1446036372049956083,robocape,6.11451627617,5.06069963589,15.2099188036,0.0,10.0,0.0,0.0,0.0,10.0,0.0,0.0,0.0,10.0,0.0149137021044,0.0102531701968,0.00572579634367,1.0,0.0,0.0,0.0,1.0,0.0,0.0,0.0,1.0,-0.167651367188,-0.852626953125,9.98483642578,0.1,0.0,0.0,0.0,0.1,0.0,0.0,0.0,0.1
1446036372086556362,133,1446036372083419084,robocape,6.17119660607,5.07490383416,15.1704083274,0.0,10.0,0.0,0.0,0.0,10.0,0.0,0.0,0.0,10.0,0.0364853069341,0.0105194863058,-0.00772316716123,1.0,0.0,0.0,0.0,1.0,0.0,0.0,0.0,1.0,-0.13412109375,-0.803529052734,10.1596728516,0.1,0.0,0.0,0.0,0.1,0.0,0.0,0.0,0.1
1446036372119904820,134,1446036372116882085,robocape,6.22589050716,5.09320857231,15.1019268396,0.0,10.0,0.0,0.0,0.0,10.0,0.0,0.0,0.0,10.0,0.0367516230431,0.0109189604693,-0.0233026595382,1.0,0.0,0.0,0.0,1.0,0.0,0.0,0.0,1.0,-0.195194091797,-0.341290283203,10.1800305176,0.1,0.0,0.0,0.0,0.1,0.0,0.0,0.0,0.1
1446036372153096112,135,1446036372150099039,robocape,6.16307944843,5.09678223395,15.0930570138,0.0,10.0,0.0,0.0,0.0,10.0,0.0,0.0,0.0,10.0,-0.0275637172823,0.0066579027252,0.00852211548825,1.0,0.0,0.0,0.0,1.0,0.0,0.0,0.0,1.0,-0.160466308594,-0.635877685547,10.1620678711,0.1,0.0,0.0,0.0,0.1,0.0,0.0,0.0,0.1
1446036372186651987,136,1446036372183577060,robocape,6.08861369482,5.10079894713,15.0828128731,0.0,10.0,0.0,0.0,0.0,10.0,0.0,0.0,0.0,10.0,-0.0336889877895,0.0067910607797,0.00772316716123,1.0,0.0,0.0,0.0,1.0,0.0,0.0,0.0,1.0,-0.137713623047,-0.789158935547,10.1656604004,0.1,0.0,0.0,0.0,0.1,0.0,0.0,0.0,0.1
1446036372219437028,137,1446036372216422080,robocape,6.03768151129,5.10623313017,15.079899549,0.0,10.0,0.0,0.0,0.0,10.0,0.0,0.0,0.0,10.0,-0.0217047628841,0.00798948327024,0.0115847507418,1.0,0.0,0.0,0.0,1.0,0.0,0.0,0.0,1.0,-0.152083740234,-0.841849365234,10.1848205566,0.1,0.0,0.0,0.0,0.1,0.0,0.0,0.0,0.1
1446036372252913862,138,1446036372249857902,robocape,6.05340446939,5.11634138281,15.0702538407,0.0,10.0,0.0,0.0,0.0,10.0,0.0,0.0,0.0,10.0,0.0135821215594,0.0101200121423,0.00798948327024,1.0,0.0,0.0,0.0,1.0,0.0,0.0,0.0,1.0,-0.108973388672,-1.00590820312,10.1812280273,0.1,0.0,0.0,0.0,0.1,0.0,0.0,0.0,0.1
1446036372286385737,139,1446036372283328056,robocape,6.11298476051,5.12912986572,15.0583684769,0.0,10.0,0.0,0.0,0.0,10.0,0.0,0.0,0.0,10.0,0.0367516230431,0.0114515926873,0.0067910607797,1.0,0.0,0.0,0.0,1.0,0.0,0.0,0.0,1.0,-0.131726074219,-0.779578857422,10.172845459,0.1,0.0,0.0,0.0,0.1,0.0,0.0,0.0,0.1
1446036372319827112,140,1446036372316737890,robocape,6.17806140025,5.14040023439,15.0438017976,0.0,10.0,0.0,0.0,0.0,10.0,0.0,0.0,0.0,10.0,0.0398142582967,0.0105194863058,0.00545948023466,1.0,0.0,0.0,0.0,1.0,0.0,0.0,0.0,1.0,-0.170046386719,-0.634680175781,10.1560803223,0.1,0.0,0.0,0.0,0.1,0.0,0.0,0.0,0.1
1446036372352968445,141,1446036372349736928,robocape,6.20749141213,5.15106419093,15.0284118768,0.0,10.0,0.0,0.0,0.0,10.0,0.0,0.0,0.0,10.0,0.0211721306661,0.0101200121423,0.00492684801665,1.0,0.0,0.0,0.0,1.0,0.0,0.0,0.0,1.0,-0.190404052734,-0.525706787109,10.1441052246,0.1,0.0,0.0,0.0,0.1,0.0,0.0,0.0,0.1
1446036372386690695,142,1446036372383398056,robocape,6.17491706642,5.15661037007,15.0232499658,0.0,10.0,0.0,0.0,0.0,10.0,0.0,0.0,0.0,10.0,-0.0118510668509,0.00798948327024,0.0103863282513,1.0,0.0,0.0,0.0,1.0,0.0,0.0,0.0,1.0,-0.174836425781,-0.536484375,10.1740429688,0.1,0.0,0.0,0.0,0.1,0.0,0.0,0.0,0.1
1446036372419870987,143,1446036372416492938,robocape,6.12502760413,5.16334385771,15.0102582502,0.0,10.0,0.0,0.0,0.0,10.0,0.0,0.0,0.0,10.0,-0.0206394984481,0.00812264132474,0.00612527050718,1.0,0.0,0.0,0.0,1.0,0.0,0.0,0.0,1.0,-0.17244140625,-0.696950683594,10.1764379883,0.1,0.0,0.0,0.0,0.1,0.0,0.0,0.0,0.1
1446036372453693528,144,1446036372450159072,robocape,6.07933681541,5.16896309496,15.0069896181,0.0,10.0,0.0,0.0,0.0,10.0,0.0,0.0,0.0,10.0,-0.0189084437396,0.00812264132474,0.0113184346328,1.0,0.0,0.0,0.0,1.0,0.0,0.0,0.0,1.0,-0.146096191406,-0.795146484375,10.1512902832,0.1,0.0,0.0,0.0,0.1,0.0,0.0,0.0,0.1
1446036372486600695,145,1446036372483129024,robocape,6.08840105557,5.17891589098,14.9912284482,0.0,10.0,0.0,0.0,0.0,10.0,0.0,0.0,0.0,10.0,0.0103863282513,0.00972053797879,0.00466053190764,1.0,0.0,0.0,0.0,1.0,0.0,0.0,0.0,1.0,-0.143701171875,-0.851429443359,10.1632653809,0.1,0.0,0.0,0.0,0.1,0.0,0.0,0.0,0.1
1446036372519660070,146,1446036372516506910,robocape,6.13782320214,5.19058166153,14.9706435211,0.0,10.0,0.0,0.0,0.0,10.0,0.0,0.0,0.0,10.0,0.0318247750264,0.0103863282513,0.00213052887206,1.0,0.0,0.0,0.0,1.0,0.0,0.0,0.0,1.0,-0.147293701172,-0.840651855469,10.1393151855,0.1,0.0,0.0,0.0,0.1,0.0,0.0,0.0,0.1
1446036372553169320,147,1446036372549840927,robocape,6.17189091722,5.19878294768,14.9672432545,0.0,10.0,0.0,0.0,0.0,10.0,0.0,0.0,0.0,10.0,0.0230363434292,0.00958737992429,0.0113184346328,1.0,0.0,0.0,0.0,1.0,0.0,0.0,0.0,1.0,-0.129331054688,-0.749641113281,10.1872155762,0.1,0.0,0.0,0.0,0.1,0.0,0.0,0.0,0.1
1446036372586459445,148,1446036372583185911,robocape,6.16295554696,5.2039277421,14.9801900132,0.0,10.0,0.0,0.0,0.0,10.0,0.0,0.0,0.0,10.0,-0.000266316109008,0.00892158965177,0.0199737081756,1.0,0.0,0.0,0.0,1.0,0.0,0.0,0.0,1.0,-0.147293701172,-0.758023681641,10.1824255371,0.1,0.0,0.0,0.0,0.1,0.0,0.0,0.0,0.1
1446036372621435820,149,1446036372618410110,robocape,6.17297072316,5.21258763638,14.9774622879,0.0,10.0,0.0,0.0,0.0,10.0,0.0,0.0,0.0,10.0,0.0103863282513,0.00985369603329,0.0115847507418,1.0,0.0,0.0,0.0,1.0,0.0,0.0,0.0,1.0,-0.138911132813,-0.798739013672,10.177635498,0.1,0.0,0.0,0.0,0.1,0.0,0.0,0.0,0.1
1446036372652926279,150,1446036372649841070,robocape,6.17859001418,5.22024385858,14.9678555748,0.0,10.0,0.0,0.0,0.0,10.0,0.0,0.0,0.0,10.0,0.00838895743375,0.00892158965177,0.00798948327024,1.0,0.0,0.0,0.0,1.0,0.0,0.0,0.0,1.0,-0.143701171875,-0.690963134766,10.1752404785,0.1,0.0,0.0,0.0,0.1,0.0,0.0,0.0,0.1
1446036372687132445,151,1446036372684027910,robocape,6.17220530098,5.22871512488,14.960191516,0.0,10.0,0.0,0.0,0.0,10.0,0.0,0.0,0.0,10.0,0.00199737081756,0.00945422186978,0.00892158965177,1.0,0.0,0.0,0.0,1.0,0.0,0.0,0.0,1.0,-0.162861328125,-0.706530761719,10.193203125,0.1,0.0,0.0,0.0,0.1,0.0,0.0,0.0,0.1
1446036372719951362,152,1446036372716821908,robocape,6.16808949819,5.23788098921,14.9462962201,0.0,10.0,0.0,0.0,0.0,10.0,0.0,0.0,0.0,10.0,0.0034621094171,0.00945422186978,0.00559263828917,1.0,0.0,0.0,0.0,1.0,0.0,0.0,0.0,1.0,-0.162861328125,-0.713715820313,10.1955981445,0.1,0.0,0.0,0.0,0.1,0.0,0.0,0.0,0.1
1446036372754270862,153,1446036372751063108,robocape,6.18394789235,5.24772940063,14.916995221,0.0,10.0,0.0,0.0,0.0,10.0,0.0,0.0,0.0,10.0,0.0146473859954,0.00892158965177,-0.00253000303558,1.0,0.0,0.0,0.0,1.0,0.0,0.0,0.0,1.0,-0.162861328125,-0.742456054688,10.1453027344,0.1,0.0,0.0,0.0,0.1,0.0,0.0,0.0,0.1
1446036372787516654,154,1446036372784487962,robocape,6.20115103602,5.25606974636,14.8918846045,0.0,10.0,0.0,0.0,0.0,10.0,0.0,0.0,0.0,10.0,0.0151800182135,0.00838895743375,-0.000266316109008,1.0,0.0,0.0,0.0,1.0,0.0,0.0,0.0,1.0,-0.142503662109,-0.554447021484,10.1273400879,0.1,0.0,0.0,0.0,0.1,0.0,0.0,0.0,0.1
1446036372820352987,155,1446036372817318916,robocape,6.17651729071,5.26434978574,14.8814560548,0.0,10.0,0.0,0.0,0.0,10.0,0.0,0.0,0.0,10.0,-0.00745685105222,0.00918790576077,0.00732369299772,1.0,0.0,0.0,0.0,1.0,0.0,0.0,0.0,1.0,-0.124541015625,-0.8047265625,10.1656604004,0.1,0.0,0.0,0.0,0.1,0.0,0.0,0.0,0.1
1446036372854960320,156,1446036372851211071,robocape,6.15136568851,5.26948566386,14.8851118563,0.0,10.0,0.0,0.0,0.0,10.0,0.0,0.0,0.0,10.0,-0.00838895743375,0.00838895743375,0.0149137021044,1.0,0.0,0.0,0.0,1.0,0.0,0.0,0.0,1.0,-0.126936035156,-0.892144775391,10.1441052246,0.1,0.0,0.0,0.0,0.1,0.0,0.0,0.0,0.1
1446036372888529945,157,1446036372885123968,robocape,6.17121510866,5.27806038423,14.8754682052,0.0,10.0,0.0,0.0,0.0,10.0,0.0,0.0,0.0,10.0,0.015845808486,0.00945422186978,0.00785632521573,1.0,0.0,0.0,0.0,1.0,0.0,0.0,0.0,1.0,-0.125738525391,-0.815504150391,10.1740429688,0.1,0.0,0.0,0.0,0.1,0.0,0.0,0.0,0.1
1446036372921870154,158,1446036372918544054,robocape,6.20536206706,5.28884145495,14.8616961203,0.0,10.0,0.0,0.0,0.0,10.0,0.0,0.0,0.0,10.0,0.0235689756472,0.0103863282513,0.00559263828917,1.0,0.0,0.0,0.0,1.0,0.0,0.0,0.0,1.0,-0.15328125,-0.698148193359,10.1476977539,0.1,0.0,0.0,0.0,0.1,0.0,0.0,0.0,0.1
1446036372954949654,159,1446036372951582908,robocape,6.22753316249,5.29905486791,14.8507436173,0.0,10.0,0.0,0.0,0.0,10.0,0.0,0.0,0.0,10.0,0.017177389031,0.0102531701968,0.00705737688871,1.0,0.0,0.0,0.0,1.0,0.0,0.0,0.0,1.0,-0.160466308594,-0.673000488281,10.1668579102,0.1,0.0,0.0,0.0,0.1,0.0,0.0,0.0,0.1
1446036372991451654,160,1446036372988182067,robocape,6.22699408519,5.30744588193,14.8382514502,0.0,10.0,0.0,0.0,0.0,10.0,0.0,0.0,0.0,10.0,0.00532632218016,0.00918790576077,0.00625842856169,1.0,0.0,0.0,0.0,1.0,0.0,0.0,0.0,1.0,-0.156873779297,-0.658630371094,10.157277832,0.1,0.0,0.0,0.0,0.1,0.0,0.0,0.0,0.1
1446036373024107320,161,1446036373018767118,robocape,6.20886293256,5.31492593333,14.8273141061,0.0,10.0,0.0,0.0,0.0,10.0,0.0,0.0,0.0,10.0,-0.00399474163512,0.00878843159726,0.00705737688871,1.0,0.0,0.0,0.0,1.0,0.0,0.0,0.0,1.0,-0.170046386719,-0.674197998047,10.1500927734,0.1,0.0,0.0,0.0,0.1,0.0,0.0,0.0,0.1
1446036373056988945,162,1446036373053769111,robocape,6.18653378166,5.32112039771,14.8142761689,0.0,10.0,0.0,0.0,0.0,10.0,0.0,0.0,0.0,10.0,-0.00612527050718,0.00798948327024,0.00599211245268,1.0,0.0,0.0,0.0,1.0,0.0,0.0,0.0,1.0,-0.165256347656,-0.774788818359,10.1704504395,0.1,0.0,0.0,0.0,0.1,0.0,0.0,0.0,0.1
1446036373090033070,163,1446036373084476947,robocape,6.17841828245,5.32822661105,14.8040506633,0.0,10.0,0.0,0.0,0.0,10.0,0.0,0.0,0.0,10.0,0.00119842249054,0.00865527354276,0.00745685105222,1.0,0.0,0.0,0.0,1.0,0.0,0.0,0.0,1.0,-0.137713623047,-0.787961425781,10.1536853027,0.1,0.0,0.0,0.0,0.1,0.0,0.0,0.0,0.1
1446036373123988154,164,1446036373120768070,robocape,6.18659266574,5.33596291535,14.794571345,0.0,10.0,0.0,0.0,0.0,10.0,0.0,0.0,0.0,10.0,0.00972053797879,0.00905474770627,0.00785632521573,1.0,0.0,0.0,0.0,1.0,0.0,0.0,0.0,1.0,-0.136516113281,-0.793948974609,10.1393151855,0.1,0.0,0.0,0.0,0.1,0.0,0.0,0.0,0.1
1446036373157778779,165,1446036373153881072,robocape,6.20026465152,5.3445165419,14.7844062586,0.0,10.0,0.0,0.0,0.0,10.0,0.0,0.0,0.0,10.0,0.0126500151779,0.00945422186978,0.00745685105222,1.0,0.0,0.0,0.0,1.0,0.0,0.0,0.0,1.0,-0.168848876953,-0.861009521484,10.1393151855,0.1,0.0,0.0,0.0,0.1,0.0,0.0,0.0,0.1
1446036373190713029,166,1446036373186691045,robocape,6.2257982119,5.35441634072,14.7798822607,0.0,10.0,0.0,0.0,0.0,10.0,0.0,0.0,0.0,10.0,0.0186421276306,0.0105194863058,0.0103863282513,1.0,0.0,0.0,0.0,1.0,0.0,0.0,0.0,1.0,-0.138911132813,-0.658630371094,10.2015856934,0.1,0.0,0.0,0.0,0.1,0.0,0.0,0.0,0.1
1446036373224134695,167,1446036373220546960,robocape,6.23383732252,5.36344687177,14.7698313666,0.0,10.0,0.0,0.0,0.0,10.0,0.0,0.0,0.0,10.0,0.00972053797879,0.00972053797879,0.00745685105222,1.0,0.0,0.0,0.0,1.0,0.0,0.0,0.0,1.0,-0.176033935547,-0.639470214844,10.1500927734,0.1,0.0,0.0,0.0,0.1,0.0,0.0,0.0,0.1
1446036373258083570,168,1446036373254487991,robocape,6.2360148694,5.37155799687,14.7478803104,0.0,10.0,0.0,0.0,0.0,10.0,0.0,0.0,0.0,10.0,0.00719053494321,0.00852211548825,0.00119842249054,1.0,0.0,0.0,0.0,1.0,0.0,0.0,0.0,1.0,-0.178428955078,-0.737666015625,10.157277832,0.1,0.0,0.0,0.0,0.1,0.0,0.0,0.0,0.1
1446036373290183654,169,1446036373286684989,robocape,6.21446479414,5.37825821298,14.7297622868,0.0,10.0,0.0,0.0,0.0,10.0,0.0,0.0,0.0,10.0,-0.00545948023466,0.00798948327024,0.0031957933081,1.0,0.0,0.0,0.0,1.0,0.0,0.0,0.0,1.0,-0.138911132813,-0.490979003906,10.1465002441,0.1,0.0,0.0,0.0,0.1,0.0,0.0,0.0,0.1
1446036373324485487,170,1446036373320919036,robocape,6.18180275308,5.38544120314,14.7231597952,0.0,10.0,0.0,0.0,0.0,10.0,0.0,0.0,0.0,10.0,-0.0118510668509,0.00892158965177,0.00918790576077,1.0,0.0,0.0,0.0,1.0,0.0,0.0,0.0,1.0,-0.154478759766,-0.778381347656,10.1764379883,0.1,0.0,0.0,0.0,0.1,0.0,0.0,0.0,0.1
1446036373357642196,171,1446036373354219913,robocape,6.18548307552,5.39343656498,14.7086121177,0.0,10.0,0.0,0.0,0.0,10.0,0.0,0.0,0.0,10.0,0.00759000910673,0.00892158965177,0.00506000607115,1.0,0.0,0.0,0.0,1.0,0.0,0.0,0.0,1.0,-0.155676269531,-0.887354736328,10.1596728516,0.1,0.0,0.0,0.0,0.1,0.0,0.0,0.0,0.1
1446036373390460446,172,1446036373387015104,robocape,6.21656408821,5.40222843824,14.6975485457,0.0,10.0,0.0,0.0,0.0,10.0,0.0,0.0,0.0,10.0,0.0218379209386,0.00958737992429,0.00692421883421,1.0,0.0,0.0,0.0,1.0,0.0,0.0,0.0,1.0,-0.131726074219,-0.831071777344,10.172845459,0.1,0.0,0.0,0.0,0.1,0.0,0.0,0.0,0.1
1446036373423921487,173,1446036373420696973,robocape,6.23809406543,5.41078186093,14.6908327532,0.0,10.0,0.0,0.0,0.0,10.0,0.0,0.0,0.0,10.0,0.016644756813,0.00972053797879,0.00918790576077,1.0,0.0,0.0,0.0,1.0,0.0,0.0,0.0,1.0,-0.158071289063,-0.556842041016,10.1680554199,0.1,0.0,0.0,0.0,0.1,0.0,0.0,0.0,0.1
1446036373456404779,174,1446036373453146934,robocape,6.23156709479,5.41918834927,14.6880714814,0.0,10.0,0.0,0.0,0.0,10.0,0.0,0.0,0.0,10.0,0.00173105470855,0.00985369603329,0.0111852765783,1.0,0.0,0.0,0.0,1.0,0.0,0.0,0.0,1.0,-0.159268798828,-0.564027099609,10.1632653809,0.1,0.0,0.0,0.0,0.1,0.0,0.0,0.0,0.1
1446036373489473821,175,1446036373486032009,robocape,6.22888396157,5.42758137003,14.6741825939,0.0,10.0,0.0,0.0,0.0,10.0,0.0,0.0,0.0,10.0,0.00426105774413,0.00918790576077,0.00532632218016,1.0,0.0,0.0,0.0,1.0,0.0,0.0,0.0,1.0,-0.173638916016,-0.696950683594,10.1345251465,0.1,0.0,0.0,0.0,0.1,0.0,0.0,0.0,0.1
1446036373522580821,176,1446036373519252061,robocape,6.22660866235,5.43569385514,14.6648375734,0.0,10.0,0.0,0.0,0.0,10.0,0.0,0.0,0.0,10.0,0.00426105774413,0.00932106381528,0.00772316716123,1.0,0.0,0.0,0.0,1.0,0.0,0.0,0.0,1.0,-0.160466308594,-0.856219482422,10.1692529297,0.1,0.0,0.0,0.0,0.1,0.0,0.0,0.0,0.1
1446036373556466154,177,1446036373553411960,robocape,6.23234616168,5.44197221999,14.6600736065,0.0,10.0,0.0,0.0,0.0,10.0,0.0,0.0,0.0,10.0,0.00825579937925,0.00865527354276,0.0102531701968,1.0,0.0,0.0,0.0,1.0,0.0,0.0,0.0,1.0,-0.171243896484,-0.627495117188,10.1788330078,0.1,0.0,0.0,0.0,0.1,0.0,0.0,0.0,0.1
1446036373589549112,178,1446036373586123943,robocape,6.2337674399,5.45079365552,14.6553548476,0.0,10.0,0.0,0.0,0.0,10.0,0.0,0.0,0.0,10.0,0.00599211245268,0.0099868540878,0.0101200121423,1.0,0.0,0.0,0.0,1.0,0.0,0.0,0.0,1.0,-0.164058837891,-0.698148193359,10.1680554199,0.1,0.0,0.0,0.0,0.1,0.0,0.0,0.0,0.1
1446036373621804821,179,1446036373618658065,robocape,6.24044475802,5.45974098248,14.6470925492,0.0,10.0,0.0,0.0,0.0,10.0,0.0,0.0,0.0,10.0,0.00892158965177,0.00985369603329,0.00825579937925,1.0,0.0,0.0,0.0,1.0,0.0,0.0,0.0,1.0,-0.141306152344,-0.753233642578,10.1429077148,0.1,0.0,0.0,0.0,0.1,0.0,0.0,0.0,0.1
1446036373655933196,180,1446036373652813911,robocape,6.25860649047,5.46866646238,14.6342319323,0.0,10.0,0.0,0.0,0.0,10.0,0.0,0.0,0.0,10.0,0.0151800182135,0.00958737992429,0.00585895439817,1.0,0.0,0.0,0.0,1.0,0.0,0.0,0.0,1.0,-0.15328125,-0.741258544922,10.1465002441,0.1,0.0,0.0,0.0,0.1,0.0,0.0,0.0,0.1
1446036373689416862,181,1446036373686167001,robocape,6.27139325237,5.47660695784,14.6210770502,0.0,10.0,0.0,0.0,0.0,10.0,0.0,0.0,0.0,10.0,0.0123836990689,0.00905474770627,0.00572579634367,1.0,0.0,0.0,0.0,1.0,0.0,0.0,0.0,1.0,-0.158071289063,-0.686173095703,10.1860180664,0.1,0.0,0.0,0.0,0.1,0.0,0.0,0.0,0.1
1446036373721816862,182,1446036373718712091,robocape,6.26477663182,5.48392052899,14.6092653174,0.0,10.0,0.0,0.0,0.0,10.0,0.0,0.0,0.0,10.0,0.00213052887206,0.00878843159726,0.00639158661619,1.0,0.0,0.0,0.0,1.0,0.0,0.0,0.0,1.0,-0.160466308594,-0.681383056641,10.1584753418,0.1,0.0,0.0,0.0,0.1,0.0,0.0,0.0,0.1
1446036373755321279,183,1446036373752228021,robocape,6.24953874872,5.49026012277,14.5971781878,0.0,10.0,0.0,0.0,0.0,10.0,0.0,0.0,0.0,10.0,-0.00239684498107,0.00825579937925,0.00625842856169,1.0,0.0,0.0,0.0,1.0,0.0,0.0,0.0,1.0,-0.158071289063,-0.716110839844,10.1668579102,0.1,0.0,0.0,0.0,0.1,0.0,0.0,0.0,0.1
1446036373787737321,184,1446036373784532070,robocape,6.2387352339,5.49797784915,14.5862437016,0.0,10.0,0.0,0.0,0.0,10.0,0.0,0.0,0.0,10.0,-0.000133158054504,0.00905474770627,0.0067910607797,1.0,0.0,0.0,0.0,1.0,0.0,0.0,0.0,1.0,-0.152083740234,-0.76640625,10.1656604004,0.1,0.0,0.0,0.0,0.1,0.0,0.0,0.0,0.1
1446036373820927654,185,1446036373817859888,robocape,6.24461546887,5.50171799788,14.5717929212,0.0,10.0,0.0,0.0,0.0,10.0,0.0,0.0,0.0,10.0,0.00878843159726,0.0067910607797,0.00519316412565,1.0,0.0,0.0,0.0,1.0,0.0,0.0,0.0,1.0,-0.384400634766,-0.789158935547,10.1836230469,0.1,0.0,0.0,0.0,0.1,0.0,0.0,0.0,0.1
1446036373854581571,186,1446036373851480007,robocape,6.24575161589,5.5418208449,14.5646877098,0.0,10.0,0.0,0.0,0.0,10.0,0.0,0.0,0.0,10.0,0.00599211245268,0.0262321367373,0.00705737688871,1.0,0.0,0.0,0.0,1.0,0.0,0.0,0.0,1.0,-0.554447021484,-0.550854492188,10.3919897461,0.1,0.0,0.0,0.0,0.1,0.0,0.0,0.0,0.1
1446036373887569112,187,1446036373884298086,robocape,6.25309559652,5.77855765499,14.5770885558,0.0,10.0,0.0,0.0,0.0,10.0,0.0,0.0,0.0,10.0,0.00852211548825,0.130228577305,0.0066579027252,1.0,0.0,0.0,0.0,1.0,0.0,0.0,0.0,1.0,-4.08350830078,-1.15080688477,12.3283630371,0.1,0.0,0.0,0.0,0.1,0.0,0.0,0.0,0.1
1446036373920508071,188,1446036373917248964,robocape,6.26607259735,5.7954572266,14.4403471374,0.0,10.0,0.0,0.0,0.0,10.0,0.0,0.0,0.0,10.0,0.0186421276306,0.00652474467069,-0.0599211245268,1.0,0.0,0.0,0.0,1.0,0.0,0.0,0.0,1.0,-10.6422692871,-1.94834838867,9.86149291992,0.1,0.0,0.0,0.0,0.1,0.0,0.0,0.0,0.1
1446036373953696987,189,1446036373950670957,robocape,6.28775821631,5.74336072085,14.0796772877,0.0,10.0,0.0,0.0,0.0,10.0,0.0,0.0,0.0,10.0,0.0342216200075,-0.0431432096593,-0.174170735291,1.0,0.0,0.0,0.0,1.0,0.0,0.0,0.0,1.0,-6.99345703125,-0.549656982422,11.3164672852,0.1,0.0,0.0,0.0,0.1,0.0,0.0,0.0,0.1
1446036373986776988,190,1446036373983611106,robocape,5.98314015751,5.88259798362,13.1642472196,0.0,10.0,0.0,0.0,0.0,10.0,0.0,0.0,0.0,10.0,-0.109056446639,0.0238352917562,-0.477371625397,1.0,0.0,0.0,0.0,1.0,0.0,0.0,0.0,1.0,-8.32269287109,-1.40348144531,11.7248181152,0.1,0.0,0.0,0.0,0.1,0.0,0.0,0.0,0.1
1446036374020096071,191,1446036374016990900,robocape,6.29617067567,6.01281400896,12.1745634819,0.0,10.0,0.0,0.0,0.0,10.0,0.0,0.0,0.0,10.0,0.22024342215,0.0157126504315,-0.514256406494,1.0,0.0,0.0,0.0,1.0,0.0,0.0,0.0,1.0,-10.1189575195,-1.49928222656,11.2206665039,0.1,0.0,0.0,0.0,0.1,0.0,0.0,0.0,0.1
1446036374053238279,192,1446036374050189971,robocape,7.06745716067,6.21147800084,11.150089928,0.0,10.0,0.0,0.0,0.0,10.0,0.0,0.0,0.0,10.0,0.464854768273,0.0452737385313,-0.53542853716,1.0,0.0,0.0,0.0,1.0,0.0,0.0,0.0,1.0,-6.20669311523,-0.676593017578,10.8769812012,0.1,0.0,0.0,0.0,0.1,0.0,0.0,0.0,0.1
1446036374086636446,193,1446036374083436012,robocape,8.51148643016,6.09072222066,10.0142636165,0.0,10.0,0.0,0.0,0.0,10.0,0.0,0.0,0.0,10.0,0.825579937925,-0.138084902521,-0.570449105495,1.0,0.0,0.0,0.0,1.0,0.0,0.0,0.0,1.0,-9.84233276367,-0.694555664063,8.96216308594,0.1,0.0,0.0,0.0,0.1,0.0,0.0,0.0,0.1
1446036374120284529,194,1446036374116911888,robocape,10.4672547742,6.13977147126,8.8771506088,0.0,10.0,0.0,0.0,0.0,10.0,0.0,0.0,0.0,10.0,1.09815447549,-0.0652474467069,-0.579370695147,1.0,0.0,0.0,0.0,1.0,0.0,0.0,0.0,1.0,-11.015892334,-0.929267578125,10.8135131836,0.1,0.0,0.0,0.0,0.1,0.0,0.0,0.0,0.1
1446036374153049946,195,1446036374150029897,robocape,13.2716649469,6.55969958553,7.70517075993,0.0,10.0,0.0,0.0,0.0,10.0,0.0,0.0,0.0,10.0,1.55834871186,0.101732753641,-0.630370230022,1.0,0.0,0.0,0.0,1.0,0.0,0.0,0.0,1.0,-14.4359802246,-1.89086791992,12.5295446777,0.1,0.0,0.0,0.0,0.1,0.0,0.0,0.0,0.1
1446036374186876446,196,1446036374183664083,robocape,16.9949780863,6.62085578634,7.05189074781,0.0,10.0,0.0,0.0,0.0,10.0,0.0,0.0,0.0,10.0,2.03372296644,-0.0383495196971,-0.319845646919,1.0,0.0,0.0,0.0,1.0,0.0,0.0,0.0,1.0,-9.53936279297,-1.15918945312,7.52395385742,0.1,0.0,0.0,0.0,0.1,0.0,0.0,0.0,0.1
1446036374220539321,197,1446036374217169046,robocape,21.3939911993,6.44822802258,7.30321088395,0.0,10.0,0.0,0.0,0.0,10.0,0.0,0.0,0.0,10.0,2.37274337321,-0.0123836990689,0.178431793035,1.0,0.0,0.0,0.0,1.0,0.0,0.0,0.0,1.0,-8.96575561523,0.744851074219,9.2316027832,0.1,0.0,0.0,0.0,0.1,0.0,0.0,0.0,0.1
1446036374253421029,198,1446036374250369071,robocape,25.0662231584,6.6002781959,8.82821654428,0.0,10.0,0.0,0.0,0.0,10.0,0.0,0.0,0.0,10.0,1.94717023101,0.425972616358,0.732369299772,1.0,0.0,0.0,0.0,1.0,0.0,0.0,0.0,1.0,-10.6278991699,3.47637084961,14.6563220215,0.1,0.0,0.0,0.0,0.1,0.0,0.0,0.0,0.1
1446036374286567529,199,1446036374283494949,robocape,26.5251265002,6.76193429864,10.5912502495,0.0,10.0,0.0,0.0,0.0,10.0,0.0,0.0,0.0,10.0,0.741157731369,0.505867449061,0.8174572966,1.0,0.0,0.0,0.0,1.0,0.0,0.0,0.0,1.0,-6.92280395508,2.38783447266,10.0854272461,0.1,0.0,0.0,0.0,0.1,0.0,0.0,0.0,0.1
1446036374319958654,200,1446036374316754102,robocape,27.2993285836,7.26967013287,12.7575522718,0.0,10.0,0.0,0.0,0.0,10.0,0.0,0.0,0.0,10.0,0.346610415874,0.77844198663,0.915461624715,1.0,0.0,0.0,0.0,1.0,0.0,0.0,0.0,1.0,-9.88544311523,4.9397277832,15.0970056152,0.1,0.0,0.0,0.0,0.1,0.0,0.0,0.0,0.1
1446036374353473071,201,1446036374350465059,robocape,26.5775239078,6.72283102063,13.569062118,0.0,10.0,0.0,0.0,0.0,10.0,0.0,0.0,0.0,10.0,-0.407596804837,-0.0555269087282,0.515854303148,1.0,0.0,0.0,0.0,1.0,0.0,0.0,0.0,1.0,-7.77423339844,-1.02506835938,9.9213684082,0.1,0.0,0.0,0.0,0.1,0.0,0.0,0.0,0.1
1446036374386739071,202,1446036374383512020,robocape,26.9967532565,6.57426296158,14.0773018513,0.0,10.0,0.0,0.0,0.0,10.0,0.0,0.0,0.0,10.0,0.241948185034,0.0697748205601,0.296143513217,1.0,0.0,0.0,0.0,1.0,0.0,0.0,0.0,1.0,-6.97908691406,-0.627495117188,9.39925415039,0.1,0.0,0.0,0.0,0.1,0.0,0.0,0.0,0.1
1446036374419939321,203,1446036374416889905,robocape,27.4064891757,6.42910198909,14.0451679008,0.0,10.0,0.0,0.0,0.0,10.0,0.0,0.0,0.0,10.0,0.264185580136,-0.0579237537092,0.0420779452233,1.0,0.0,0.0,0.0,1.0,0.0,0.0,0.0,1.0,-6.50487304688,-0.621507568359,11.2925170898,0.1,0.0,0.0,0.0,0.1,0.0,0.0,0.0,0.1
1446036374453869071,204,1446036374450814008,robocape,28.9373623275,6.63329667133,13.9765967592,0.0,10.0,0.0,0.0,0.0,10.0,0.0,0.0,0.0,10.0,0.892425281286,0.107724866094,-0.0444747902043,1.0,0.0,0.0,0.0,1.0,0.0,0.0,0.0,1.0,-9.580078125,-0.329315185547,11.9523449707,0.1,0.0,0.0,0.0,0.1,0.0,0.0,0.0,0.1
1446036374486457904,205,1446036374483299970,robocape,31.3542358132,6.78252332665,13.8546468438,0.0,10.0,0.0,0.0,0.0,10.0,0.0,0.0,0.0,10.0,1.40321957836,0.0788295682663,-0.0434095257683,1.0,0.0,0.0,0.0,1.0,0.0,0.0,0.0,1.0,-6.45338012695,-1.15439941406,10.0423168945,0.1,0.0,0.0,0.0,0.1,0.0,0.0,0.0,0.1
1446036374519753779,206,1446036374516568899,robocape,34.1989631204,6.8691845927,13.9795770627,0.0,10.0,0.0,0.0,0.0,10.0,0.0,0.0,0.0,10.0,1.65888304301,0.129429628978,0.0925448478803,1.0,0.0,0.0,0.0,1.0,0.0,0.0,0.0,1.0,-2.34472412109,1.48131958008,9.83395019531,0.1,0.0,0.0,0.0,0.1,0.0,0.0,0.0,0.1
1446036374552953571,207,1446036374549920082,robocape,36.3635796616,7.19799963717,15.4744563357,0.0,10.0,0.0,0.0,0.0,10.0,0.0,0.0,0.0,10.0,1.23384253303,0.655803418432,0.604670725502,1.0,0.0,0.0,0.0,1.0,0.0,0.0,0.0,1.0,-3.30392944336,5.3301159668,13.6336486816,0.1,0.0,0.0,0.0,0.1,0.0,0.0,0.0,0.1
1446036374586341738,208,1446036374583170890,robocape,37.0270167265,6.87480724127,17.660000464,0.0,10.0,0.0,0.0,0.0,10.0,0.0,0.0,0.0,10.0,0.351803579999,0.595216503633,1.07099023238,1.0,0.0,0.0,0.0,1.0,0.0,0.0,0.0,1.0,-4.0200402832,4.70860839844,10.88296875,0.1,0.0,0.0,0.0,0.1,0.0,0.0,0.0,0.1
1446036374621978738,209,1446036374618436098,robocape,35.9188070468,6.19451576218,20.4537601981,0.0,10.0,0.0,0.0,0.0,10.0,0.0,0.0,0.0,10.0,-0.677108707153,0.604803883557,1.4160027516,1.0,0.0,0.0,0.0,1.0,0.0,0.0,0.0,1.0,-7.71316040039,5.98994384766,14.311439209,0.1,0.0,0.0,0.0,0.1,0.0,0.0,0.0,0.1
1446036374652976154,210,1446036374649820089,robocape,32.8053356665,5.70892041557,23.3383250309,0.0,10.0,0.0,0.0,0.0,10.0,0.0,0.0,0.0,10.0,-1.80082952911,0.632633916948,1.37565586108,1.0,0.0,0.0,0.0,1.0,0.0,0.0,0.0,1.0,-6.0198815918,3.87753662109,12.7929968262,0.1,0.0,0.0,0.0,0.1,0.0,0.0,0.0,0.1
1446036374686320113,211,1446036374683298110,robocape,29.183946223,5.24095514334,25.3030935248,0.0,10.0,0.0,0.0,0.0,10.0,0.0,0.0,0.0,10.0,-2.02719822177,0.302668257888,0.977912752277,1.0,0.0,0.0,0.0,1.0,0.0,0.0,0.0,1.0,-6.19950805664,0.748443603516,9.75491455078,0.1,0.0,0.0,0.0,0.1,0.0,0.0,0.0,0.1
1446036374719522780,212,1446036374716423988,robocape,26.2521412317,4.87484063798,25.9699803114,0.0,10.0,0.0,0.0,0.0,10.0,0.0,0.0,0.0,10.0,-1.590439803,-0.0191747598486,0.373508342884,1.0,0.0,0.0,0.0,1.0,0.0,0.0,0.0,1.0,-2.29802124023,-2.19862792969,7.79219604492,0.1,0.0,0.0,0.0,0.1,0.0,0.0,0.0,0.1
1446036374753271280,213,1446036374749953985,robocape,24.9708271398,5.07456070362,25.7844189183,0.0,10.0,0.0,0.0,0.0,10.0,0.0,0.0,0.0,10.0,-0.65899921174,0.0540621701286,-0.12889699676,1.0,0.0,0.0,0.0,1.0,0.0,0.0,0.0,1.0,0.669407958984,-2.09444458008,11.0326574707,0.1,0.0,0.0,0.0,0.1,0.0,0.0,0.0,0.1
1446036374786859863,214,1446036374783461093,robocape,25.2967622939,4.78890988366,25.05847187,0.0,10.0,0.0,0.0,0.0,10.0,0.0,0.0,0.0,10.0,0.232493963164,-0.284026130257,-0.250203984413,1.0,0.0,0.0,0.0,1.0,0.0,0.0,0.0,1.0,4.50622924805,-2.0273840332,8.71906860352,0.1,0.0,0.0,0.0,0.1,0.0,0.0,0.0,0.1
1446036374819929571,215,1446036374816523075,robocape,26.9264072542,4.81904141795,24.4083665194,0.0,10.0,0.0,0.0,0.0,10.0,0.0,0.0,0.0,10.0,0.948884296395,-0.109056446639,-0.25100293274,1.0,0.0,0.0,0.0,1.0,0.0,0.0,0.0,1.0,5.10737915039,0.308957519531,9.07951904297,0.1,0.0,0.0,0.0,0.1,0.0,0.0,0.0,0.1
1446036374853174488,216,1446036374849952936,robocape,28.3756447759,5.29478247395,25.1285121545,0.0,10.0,0.0,0.0,0.0,10.0,0.0,0.0,0.0,10.0,0.830906260105,0.438622631536,0.308260896177,1.0,0.0,0.0,0.0,1.0,0.0,0.0,0.0,1.0,10.653046875,4.1733215332,9.81119750977,0.1,0.0,0.0,0.0,0.1,0.0,0.0,0.0,0.1
1446036374886521571,217,1446036374883162021,robocape,28.06313418,4.93377531398,26.8669654554,0.0,10.0,0.0,0.0,0.0,10.0,0.0,0.0,0.0,10.0,-0.161653878168,0.299472464579,0.967126949862,1.0,0.0,0.0,0.0,1.0,0.0,0.0,0.0,1.0,1.9890637207,4.16134643555,9.92376342773,0.1,0.0,0.0,0.0,0.1,0.0,0.0,0.0,0.1
1446036374919599405,218,1446036374916441917,robocape,25.8743632716,4.7679534213,29.1335718712,0.0,10.0,0.0,0.0,0.0,10.0,0.0,0.0,0.0,10.0,-1.20348249661,0.480833734814,1.14222979153,1.0,0.0,0.0,0.0,1.0,0.0,0.0,0.0,1.0,-3.05484741211,3.09077270508,11.2470117188,0.1,0.0,0.0,0.0,0.1,0.0,0.0,0.0,0.1
1446036374953068863,219,1446036374949986934,robocape,22.1460735632,4.78834806747,31.3803203832,0.0,10.0,0.0,0.0,0.0,10.0,0.0,0.0,0.0,10.0,-2.03838349835,0.494549014428,1.08550446032,1.0,0.0,0.0,0.0,1.0,0.0,0.0,0.0,1.0,-3.88472167969,3.69910766602,14.0336169434,0.1,0.0,0.0,0.0,0.1,0.0,0.0,0.0,0.1
1446036374986362196,220,1446036374983161926,robocape,17.1236833857,3.59245382313,33.0653190345,0.0,10.0,0.0,0.0,0.0,10.0,0.0,0.0,0.0,10.0,-2.70191008394,-0.298274042089,1.02798018077,1.0,0.0,0.0,0.0,1.0,0.0,0.0,0.0,1.0,-1.44180175781,1.41904907227,4.91937011719,0.1,0.0,0.0,0.0,0.1,0.0,0.0,0.0,0.1
1446036375019873446,221,1446036375016856908,robocape,11.5451502032,3.72518269537,34.3720570324,0.0,10.0,0.0,0.0,0.0,10.0,0.0,0.0,0.0,10.0,-2.96889198322,0.235023966199,0.63889234551,1.0,0.0,0.0,0.0,1.0,0.0,0.0,0.0,1.0,-2.39621704102,0.120948486328,12.758269043,0.1,0.0,0.0,0.0,0.1,0.0,0.0,0.0,0.1
1446036375053131863,222,1446036375050106048,robocape,7.40510644592,3.92174486108,34.1477655999,0.0,10.0,0.0,0.0,0.0,10.0,0.0,0.0,0.0,10.0,-2.16328575347,0.0793622004844,-0.146207543845,1.0,0.0,0.0,0.0,1.0,0.0,0.0,0.0,1.0,-5.32173339844,-4.09069335937,7.64490234375,0.1,0.0,0.0,0.0,0.1,0.0,0.0,0.0,0.1
1446036375087684613,223,1446036375084444999,robocape,5.94264103847,4.03812807403,32.5265960003,0.0,10.0,0.0,0.0,0.0,10.0,0.0,0.0,0.0,10.0,-0.711862959378,-0.0442084740953,-0.882571585252,1.0,0.0,0.0,0.0,1.0,0.0,0.0,0.0,1.0,-3.6751574707,-5.57800048828,11.5691418457,0.1,0.0,0.0,0.0,0.1,0.0,0.0,0.0,0.1
1446036375120760196,224,1446036375117053031,robocape,6.97765615088,4.33407596438,30.3869242378,0.0,10.0,0.0,0.0,0.0,10.0,0.0,0.0,0.0,10.0,0.617054424571,0.0217047628841,-1.16273613193,1.0,0.0,0.0,0.0,1.0,0.0,0.0,0.0,1.0,-0.296982421875,-5.22832763672,8.64003295898,0.1,0.0,0.0,0.0,0.1,0.0,0.0,0.0,0.1
1446036375153693280,225,1446036375150167942,robocape,10.2204387425,5.46587224763,28.8496640979,0.0,10.0,0.0,0.0,0.0,10.0,0.0,0.0,0.0,10.0,1.77020317658,0.468583193799,-0.87245157311,1.0,0.0,0.0,0.0,1.0,0.0,0.0,0.0,1.0,-3.3685949707,-1.51005981445,11.6421899414,0.1,0.0,0.0,0.0,0.1,0.0,0.0,0.0,0.1
1446036375187654780,226,1446036375184662103,robocape,13.2141051088,5.83390099407,28.5058471587,0.0,10.0,0.0,0.0,0.0,10.0,0.0,0.0,0.0,10.0,1.61001403701,0.169643361438,-0.15579492377,1.0,0.0,0.0,0.0,1.0,0.0,0.0,0.0,1.0,-1.25139770508,2.34472412109,9.60283081055,0.1,0.0,0.0,0.0,0.1,0.0,0.0,0.0,0.1
1446036375221479863,227,1446036375218417882,robocape,14.3494206646,5.6355904416,29.4948462198,0.0,10.0,0.0,0.0,0.0,10.0,0.0,0.0,0.0,10.0,0.581767540128,0.0500674284935,0.614790737645,1.0,0.0,0.0,0.0,1.0,0.0,0.0,0.0,1.0,-1.56394775391,3.24285644531,10.2913989258,0.1,0.0,0.0,0.0,0.1,0.0,0.0,0.0,0.1
1446036375253987280,228,1446036375250966072,robocape,13.3710369653,5.68134406288,30.7014484879,0.0,10.0,0.0,0.0,0.0,10.0,0.0,0.0,0.0,10.0,-0.546480655684,0.197073920666,0.677375023262,1.0,0.0,0.0,0.0,1.0,0.0,0.0,0.0,1.0,0.0227526855469,2.91234375,9.41242675781,0.1,0.0,0.0,0.0,0.1,0.0,0.0,0.0,0.1
1446036375288198363,229,1446036375284873962,robocape,10.8265648788,5.13535226516,31.7544812667,0.0,10.0,0.0,0.0,0.0,10.0,0.0,0.0,0.0,10.0,-1.37046269695,-0.150734917698,0.645417090181,1.0,0.0,0.0,0.0,1.0,0.0,0.0,0.0,1.0,-2.79139526367,2.66565673828,9.29147827148,0.1,0.0,0.0,0.0,0.1,0.0,0.0,0.0,0.1
1446036375321567321,230,1446036375318468093,robocape,7.15633300237,4.93922659717,32.8322811674,0.0,10.0,0.0,0.0,0.0,10.0,0.0,0.0,0.0,10.0,-1.96368182977,-0.00146473859954,0.620649692043,1.0,0.0,0.0,0.0,1.0,0.0,0.0,0.0,1.0,-5.76840454102,1.1076965332,9.14657958984,0.1,0.0,0.0,0.0,0.1,0.0,0.0,0.0,0.1
1446036375355449696,231,1446036375351881027,robocape,2.87845723754,5.06173542878,33.4410756937,0.0,10.0,0.0,0.0,0.0,10.0,0.0,0.0,0.0,10.0,-2.26688271988,0.101599595587,0.357396218289,1.0,0.0,0.0,0.0,1.0,0.0,0.0,0.0,1.0,-2.42256225586,-0.403560791016,12.9343029785,0.1,0.0,0.0,0.0,0.1,0.0,0.0,0.0,0.1
1446036375390407197,232,1446036375386698961,robocape,-1.14338263174,5.56454129443,33.3997433035,0.0,10.0,0.0,0.0,0.0,10.0,0.0,0.0,0.0,10.0,-2.10829147696,0.271775589243,0.0207726565026,1.0,0.0,0.0,0.0,1.0,0.0,0.0,0.0,1.0,-5.68577636719,-2.70756958008,8.44364135742,0.1,0.0,0.0,0.0,0.1,0.0,0.0,0.0,0.1
1446036375423313363,233,1446036375419765949,robocape,-3.77468667192,5.62608534159,32.2453898412,0.0,10.0,0.0,0.0,0.0,10.0,0.0,0.0,0.0,10.0,-1.32039526846,0.0593884923088,-0.591221761998,1.0,0.0,0.0,0.0,1.0,0.0,0.0,0.0,1.0,-4.15416137695,-3.44164306641,11.8625317383,0.1,0.0,0.0,0.0,0.1,0.0,0.0,0.0,0.1
1446036375456820988,234,1446036375452296018,robocape,-4.92671792628,4.77456622677,31.233854641,0.0,10.0,0.0,0.0,0.0,10.0,0.0,0.0,0.0,10.0,-0.556201193663,-0.404001537365,-0.554869613118,1.0,0.0,0.0,0.0,1.0,0.0,0.0,0.0,1.0,-2.95904663086,-2.05851928711,6.80544799805,0.1,0.0,0.0,0.0,0.1,0.0,0.0,0.0,0.1
1446036375491138863,235,1446036375487521886,robocape,-5.22034624944,6.24082423497,29.850043206,0.0,10.0,0.0,0.0,0.0,10.0,0.0,0.0,0.0,10.0,-0.084821680719,0.829042047342,-0.647547619053,1.0,0.0,0.0,0.0,1.0,0.0,0.0,0.0,1.0,4.58286987305,-3.57217163086,16.7088537598,0.1,0.0,0.0,0.0,0.1,0.0,0.0,0.0,0.1
1446036375524181863,236,1446036375519886016,robocape,-4.21747494953,7.38202832998,28.4272321133,0.0,10.0,0.0,0.0,0.0,10.0,0.0,0.0,0.0,10.0,0.615190211808,0.654604995941,-0.696949257274,1.0,0.0,0.0,0.0,1.0,0.0,0.0,0.0,1.0,-8.78493164063,-4.38168823242,10.8159082031,0.1,0.0,0.0,0.0,0.1,0.0,0.0,0.0,0.1
1446036375557562363,237,1446036375553323984,robocape,-1.55954505374,7.37852986922,26.7552527271,0.0,10.0,0.0,0.0,0.0,10.0,0.0,0.0,0.0,10.0,1.50854759948,0.033822145844,-0.902545293428,1.0,0.0,0.0,0.0,1.0,0.0,0.0,0.0,1.0,-7.47485595703,-2.94826904297,10.8027355957,0.1,0.0,0.0,0.0,0.1,0.0,0.0,0.0,0.1
1446036375590253363,238,1446036375586922883,robocape,2.17244772871,8.19108800811,25.2567738284,0.0,10.0,0.0,0.0,0.0,10.0,0.0,0.0,0.0,10.0,2.0607540515,0.416385236434,-0.797217272315,1.0,0.0,0.0,0.0,1.0,0.0,0.0,0.0,1.0,-5.57919799805,-2.02139648438,9.74054443359,0.1,0.0,0.0,0.0,0.1,0.0,0.0,0.0,0.1
1446036375621726988,239,1446036375618650913,robocape,6.5317967251,8.28064317007,24.2272558883,0.0,10.0,0.0,0.0,0.0,10.0,0.0,0.0,0.0,10.0,2.36209072885,0.00825579937925,-0.530368531089,1.0,0.0,0.0,0.0,1.0,0.0,0.0,0.0,1.0,-2.81295043945,-0.409548339844,10.3321142578,0.1,0.0,0.0,0.0,0.1,0.0,0.0,0.0,0.1
1446036375655652280,240,1446036375652532100,robocape,11.2142460579,8.04308427259,23.2983282,0.0,10.0,0.0,0.0,0.0,10.0,0.0,0.0,0.0,10.0,2.53293251277,-0.186953908524,-0.431032622429,1.0,0.0,0.0,0.0,1.0,0.0,0.0,0.0,1.0,-3.59731933594,0.658630371094,6.61863647461,0.1,0.0,0.0,0.0,0.1,0.0,0.0,0.0,0.1
1446036375689943155,241,1446036375686001062,robocape,14.4633244131,8.36910100291,23.7338682682,0.0,10.0,0.0,0.0,0.0,10.0,0.0,0.0,0.0,10.0,1.70628731041,0.248073455541,0.249671352195,1.0,0.0,0.0,0.0,1.0,0.0,0.0,0.0,1.0,-1.18194213867,4.23199951172,12.5954077148,0.1,0.0,0.0,0.0,0.1,0.0,0.0,0.0,0.1
1446036375724498738,242,1446036375720941066,robocape,16.1841325435,7.9358645648,24.48827358,0.0,10.0,0.0,0.0,0.0,10.0,0.0,0.0,0.0,10.0,0.884702114124,-0.08455536461,0.502804813807,1.0,0.0,0.0,0.0,1.0,0.0,0.0,0.0,1.0,-0.846639404297,2.71595214844,8.44843139648,0.1,0.0,0.0,0.0,0.1,0.0,0.0,0.0,0.1
1446036375756854113,243,1446036375753557920,robocape,16.2065126503,7.60829360526,25.3964191318,0.0,10.0,0.0,0.0,0.0,10.0,0.0,0.0,0.0,10.0,-0.0217047628841,-0.00892158965177,0.553005400355,1.0,0.0,0.0,0.0,1.0,0.0,0.0,0.0,1.0,-5.20916748047,2.52195556641,10.305769043,0.1,0.0,0.0,0.0,0.1,0.0,0.0,0.0,0.1
1446036375790531155,244,1446036375787341117,robocape,14.6470079082,6.7361370596,26.5056913354,0.0,10.0,0.0,0.0,0.0,10.0,0.0,0.0,0.0,10.0,-0.871253150619,-0.272041905352,0.713194539923,1.0,0.0,0.0,0.0,1.0,0.0,0.0,0.0,1.0,-8.93462036133,3.07640258789,11.991862793,0.1,0.0,0.0,0.0,0.1,0.0,0.0,0.0,0.1
1446036375822953197,245,1446036375819752931,robocape,11.7265482495,6.28852423007,27.6675093906,0.0,10.0,0.0,0.0,0.0,10.0,0.0,0.0,0.0,10.0,-1.58884190634,-0.0806937810294,0.66845343361,1.0,0.0,0.0,0.0,1.0,0.0,0.0,0.0,1.0,-4.1805065918,1.76991943359,11.358380127,0.1,0.0,0.0,0.0,0.1,0.0,0.0,0.0,0.1
1446036375855952363,246,1446036375852745056,robocape,8.31259296093,5.96366327018,28.237648264,0.0,10.0,0.0,0.0,0.0,10.0,0.0,0.0,0.0,10.0,-1.81640902149,-0.111186975511,0.336889877895,1.0,0.0,0.0,0.0,1.0,0.0,0.0,0.0,1.0,-4.6331652832,-0.979562988281,8.2807800293,0.1,0.0,0.0,0.0,0.1,0.0,0.0,0.0,0.1
1446036375889815613,247,1446036375886508941,robocape,6.28281871891,6.47509395242,27.6074508791,0.0,10.0,0.0,0.0,0.0,10.0,0.0,0.0,0.0,10.0,-1.02638228412,0.225303428221,-0.355132531362,1.0,0.0,0.0,0.0,1.0,0.0,0.0,0.0,1.0,0.8047265625,-3.73383544922,12.630135498,0.1,0.0,0.0,0.0,0.1,0.0,0.0,0.0,0.1
1446036375922849072,248,1446036375919717073,robocape,6.13777030882,6.68251181081,26.372126563,0.0,10.0,0.0,0.0,0.0,10.0,0.0,0.0,0.0,10.0,-0.00213052887206,0.0379500455336,-0.65220815096,1.0,0.0,0.0,0.0,1.0,0.0,0.0,0.0,1.0,-3.6368371582,-3.77455078125,9.97046630859,0.1,0.0,0.0,0.0,0.1,0.0,0.0,0.0,0.1
1446036375955302572,249,1446036375952250003,robocape,8.10164877888,6.92036121556,24.9178924951,0.0,10.0,0.0,0.0,0.0,10.0,0.0,0.0,0.0,10.0,1.11932660616,0.0307595105904,-0.763128810362,1.0,0.0,0.0,0.0,1.0,0.0,0.0,0.0,1.0,-1.13883178711,-2.46806762695,9.88185058594,0.1,0.0,0.0,0.0,0.1,0.0,0.0,0.0,0.1
1446036375990292488,250,1446036375987067937,robocape,10.9745117689,7.22842057011,24.2154622396,0.0,10.0,0.0,0.0,0.0,10.0,0.0,0.0,0.0,10.0,1.56247661155,0.110388027184,-0.354999373308,1.0,0.0,0.0,0.0,1.0,0.0,0.0,0.0,1.0,-5.24509277344,-0.0335302734375,11.4709460449,0.1,0.0,0.0,0.0,0.1,0.0,0.0,0.0,0.1
1446036376022404113,251,1446036376019310951,robocape,13.7689950802,7.7117228475,24.0496471081,0.0,10.0,0.0,0.0,0.0,10.0,0.0,0.0,0.0,10.0,1.5017565387,0.250869774685,-0.0864195773731,1.0,0.0,0.0,0.0,1.0,0.0,0.0,0.0,1.0,-0.9196875,0.835861816406,11.3739477539,0.1,0.0,0.0,0.0,0.1,0.0,0.0,0.0,0.1
1446036376055790197,252,1446036376052479028,robocape,16.2263101495,7.70022738168,24.0141647274,0.0,10.0,0.0,0.0,0.0,10.0,0.0,0.0,0.0,10.0,1.32478948426,0.0151800182135,0.0404800485692,1.0,0.0,0.0,0.0,1.0,0.0,0.0,0.0,1.0,0.320932617188,1.02985839844,9.81239501953,0.1,0.0,0.0,0.0,0.1,0.0,0.0,0.0,0.1
1446036376088122739,253,1446036376085107088,robocape,18.0790937811,7.85535116772,24.2764505303,0.0,10.0,0.0,0.0,0.0,10.0,0.0,0.0,0.0,10.0,0.995489615472,0.148071756608,0.168444938948,1.0,0.0,0.0,0.0,1.0,0.0,0.0,0.0,1.0,4.00686767578,1.42743164063,9.77287719727,0.1,0.0,0.0,0.0,0.1,0.0,0.0,0.0,0.1
1446036376121247822,254,1446036376118236064,robocape,19.2237058513,7.94455952945,24.7712948421,0.0,10.0,0.0,0.0,0.0,10.0,0.0,0.0,0.0,10.0,0.609198099356,0.157392820424,0.289751926601,1.0,0.0,0.0,0.0,1.0,0.0,0.0,0.0,1.0,3.22369628906,1.91002807617,10.1920056152,0.1,0.0,0.0,0.0,0.1,0.0,0.0,0.0,0.1
1446036376154749405,255,1446036376151705980,robocape,19.5065193093,7.58983827842,25.4269984678,0.0,10.0,0.0,0.0,0.0,10.0,0.0,0.0,0.0,10.0,0.140348589447,-0.0362189908251,0.435693154337,1.0,0.0,0.0,0.0,1.0,0.0,0.0,0.0,1.0,0.893342285156,2.08725952148,8.17060913086,0.1,0.0,0.0,0.0,0.1,0.0,0.0,0.0,0.1
1446036376187843780,256,1446036376184818983,robocape,18.7470054448,7.99784914342,26.6160915094,0.0,10.0,0.0,0.0,0.0,10.0,0.0,0.0,0.0,10.0,-0.446478956752,0.43076630632,0.566188047751,1.0,0.0,0.0,0.0,1.0,0.0,0.0,0.0,1.0,-1.95912597656,2.17228271484,13.7054992676,0.1,0.0,0.0,0.0,0.1,0.0,0.0,0.0,0.1
1446036376221265864,257,1446036376218210935,robocape,17.2893837118,8.02155400674,27.3287130068,0.0,10.0,0.0,0.0,0.0,10.0,0.0,0.0,0.0,10.0,-0.796817798152,0.141280695829,0.379100981173,1.0,0.0,0.0,0.0,1.0,0.0,0.0,0.0,1.0,2.55668334961,0.188009033203,8.56937988281,0.1,0.0,0.0,0.0,0.1,0.0,0.0,0.0,0.1
1446036376254276405,258,1446036376250634908,robocape,16.1763905456,8.14927773435,27.492314224,0.0,10.0,0.0,0.0,0.0,10.0,0.0,0.0,0.0,10.0,-0.58123490791,0.100268015041,0.0873516837546,1.0,0.0,0.0,0.0,1.0,0.0,0.0,0.0,1.0,-3.04526733398,-0.235909423828,9.67468139648,0.1,0.0,0.0,0.0,0.1,0.0,0.0,0.0,0.1
1446036376287051197,259,1446036376283857107,robocape,15.5486240457,8.50661782125,27.3975031661,0.0,10.0,0.0,0.0,0.0,10.0,0.0,0.0,0.0,10.0,-0.30746194785,0.179363899417,-0.0709732430506,1.0,0.0,0.0,0.0,1.0,0.0,0.0,0.0,1.0,1.25618774414,-1.29091552734,11.7775085449,0.1,0.0,0.0,0.0,0.1,0.0,0.0,0.0,0.1
1446036376320545489,260,1446036376317466974,robocape,15.5778212951,9.18108052231,27.2614833723,0.0,10.0,0.0,0.0,0.0,10.0,0.0,0.0,0.0,10.0,0.0454068965859,0.339553038985,-0.125301729288,1.0,0.0,0.0,0.0,1.0,0.0,0.0,0.0,1.0,-2.73511230469,-0.855021972656,11.9631225586,0.1,0.0,0.0,0.0,0.1,0.0,0.0,0.0,0.1
1446036376353484447,261,1446036376350217103,robocape,15.9928777229,9.48786929337,27.2552125005,0.0,10.0,0.0,0.0,0.0,10.0,0.0,0.0,0.0,10.0,0.241282394761,0.176168106109,-0.00213052887206,1.0,0.0,0.0,0.0,1.0,0.0,0.0,0.0,1.0,-3.53265380859,0.5748046875,8.22210205078,0.1,0.0,0.0,0.0,0.1,0.0,0.0,0.0,0.1
1446036376386787155,262,1446036376383516073,robocape,15.9665274246,9.71558423328,27.8116501521,0.0,10.0,0.0,0.0,0.0,10.0,0.0,0.0,0.0,10.0,-0.0344879361165,0.221841318804,0.298274042089,1.0,0.0,0.0,0.0,1.0,0.0,0.0,0.0,1.0,-3.59612182617,1.19391723633,12.6241479492,0.1,0.0,0.0,0.0,0.1,0.0,0.0,0.0,0.1
1446036376419993989,263,1446036376416636943,robocape,15.5191894991,9.79563089496,28.2772966717,0.0,10.0,0.0,0.0,0.0,10.0,0.0,0.0,0.0,10.0,-0.253000303558,0.129429628978,0.26698189928,1.0,0.0,0.0,0.0,1.0,0.0,0.0,0.0,1.0,-3.77335327148,0.567619628906,10.1908081055,0.1,0.0,0.0,0.0,0.1,0.0,0.0,0.0,0.1
1446036376452956697,264,1446036376449907064,robocape,15.1543309411,9.57768713971,28.2742482399,0.0,10.0,0.0,0.0,0.0,10.0,0.0,0.0,0.0,10.0,-0.175369157782,-0.0941427445343,0.0619184953443,1.0,0.0,0.0,0.0,1.0,0.0,0.0,0.0,1.0,-0.922082519531,-0.314945068359,10.6746020508,0.1,0.0,0.0,0.0,0.1,0.0,0.0,0.0,0.1
1446036376486417739,265,1446036376483411073,robocape,14.8276264163,9.97332759542,28.4995886162,0.0,10.0,0.0,0.0,0.0,10.0,0.0,0.0,0.0,10.0,-0.170974941983,0.252600829394,0.10346380835,1.0,0.0,0.0,0.0,1.0,0.0,0.0,0.0,1.0,-2.40100708008,0.605939941406,11.5032788086,0.1,0.0,0.0,0.0,0.1,0.0,0.0,0.0,0.1
1446036376521479822,266,1446036376518450021,robocape,14.3018000568,9.47559532879,28.7376318119,0.0,10.0,0.0,0.0,0.0,10.0,0.0,0.0,0.0,10.0,-0.280697178894,-0.203598665337,0.221841318804,1.0,0.0,0.0,0.0,1.0,0.0,0.0,0.0,1.0,-6.33602416992,1.3759387207,9.33458862305,0.1,0.0,0.0,0.0,0.1,0.0,0.0,0.0,0.1
1446036376559485530,267,1446036376555007934,robocape,13.284834551,9.22949822491,29.1950546365,0.0,10.0,0.0,0.0,0.0,10.0,0.0,0.0,0.0,10.0,-0.556068035609,-0.0503337446025,0.300804045124,1.0,0.0,0.0,0.0,1.0,0.0,0.0,0.0,1.0,0.607137451172,1.07296875,9.63636108398,0.1,0.0,0.0,0.0,0.1,0.0,0.0,0.0,0.1
1446036376587122905,268,1446036376584028959,robocape,11.8792268075,8.93218654065,29.6098346131,0.0,10.0,0.0,0.0,0.0,10.0,0.0,0.0,0.0,10.0,-0.758601436509,-0.0897485287357,0.279365598349,1.0,0.0,0.0,0.0,1.0,0.0,0.0,0.0,1.0,1.46215942383,1.13164672852,9.38727905273,0.1,0.0,0.0,0.0,0.1,0.0,0.0,0.0,0.1
1446036376622670614,269,1446036376618817090,robocape,10.1055529957,8.48486244331,29.8129492746,0.0,10.0,0.0,0.0,0.0,10.0,0.0,0.0,0.0,10.0,-0.937965335926,-0.199470765647,0.174303893346,1.0,0.0,0.0,0.0,1.0,0.0,0.0,0.0,1.0,-3.71826782227,-1.30768066406,8.36101318359,0.1,0.0,0.0,0.0,0.1,0.0,0.0,0.0,0.1
1446036376657597364,270,1446036376654232978,robocape,9.46146924111,8.73360792476,29.2282421465,0.0,10.0,0.0,0.0,0.0,10.0,0.0,0.0,0.0,10.0,-0.287088765511,0.0836232582285,-0.303200890106,1.0,0.0,0.0,0.0,1.0,0.0,0.0,0.0,1.0,0.204774169922,-2.16869018555,13.0576464844,0.1,0.0,0.0,0.0,0.1,0.0,0.0,0.0,0.1
1446036376689114155,271,1446036376684237957,robocape,9.88819803691,9.32163704678,28.6178935876,0.0,10.0,0.0,0.0,0.0,10.0,0.0,0.0,0.0,10.0,0.280963495003,0.2616555771,-0.335691455404,1.0,0.0,0.0,0.0,1.0,0.0,0.0,0.0,1.0,1.16517700195,-1.28253295898,12.0613183594,0.1,0.0,0.0,0.0,0.1,0.0,0.0,0.0,0.1
1446036376719683697,272,1446036376716442108,robocape,10.8587629525,9.71048373098,28.1947135236,0.0,10.0,0.0,0.0,0.0,10.0,0.0,0.0,0.0,10.0,0.555934877554,0.176700738327,-0.215449732187,1.0,0.0,0.0,0.0,1.0,0.0,0.0,0.0,1.0,-0.762813720703,-0.532891845703,11.4853161621,0.1,0.0,0.0,0.0,0.1,0.0,0.0,0.0,0.1
1446036376753090739,273,1446036376749923944,robocape,11.7788923654,10.0176850157,28.2195197053,0.0,10.0,0.0,0.0,0.0,10.0,0.0,0.0,0.0,10.0,0.496413227191,0.183225482997,0.0310258266994,1.0,0.0,0.0,0.0,1.0,0.0,0.0,0.0,1.0,-0.265847167969,0.686173095703,11.3883178711,0.1,0.0,0.0,0.0,0.1,0.0,0.0,0.0,0.1
1446036376790390197,274,1446036376786751985,robocape,12.3196897333,9.95655545579,28.4171468283,0.0,10.0,0.0,0.0,0.0,10.0,0.0,0.0,0.0,10.0,0.282827707766,0.0133158054504,0.156593872097,1.0,0.0,0.0,0.0,1.0,0.0,0.0,0.0,1.0,-4.87625976562,0.719703369141,8.06762329102,0.1,0.0,0.0,0.0,0.1,0.0,0.0,0.0,0.1
1446036376823393114,275,1446036376820070028,robocape,12.113888201,9.82148458242,28.8460624089,0.0,10.0,0.0,0.0,0.0,10.0,0.0,0.0,0.0,10.0,-0.129429628978,0.000798948327024,0.281362969167,1.0,0.0,0.0,0.0,1.0,0.0,0.0,0.0,1.0,-3.74581054688,1.53880004883,14.2431811523,0.1,0.0,0.0,0.0,0.1,0.0,0.0,0.0,0.1
1446036376852691822,276,1446036376849641084,robocape,11.1554335203,9.84932548334,29.3294490058,0.0,10.0,0.0,0.0,0.0,10.0,0.0,0.0,0.0,10.0,-0.531300637471,0.085620629046,0.287754555783,1.0,0.0,0.0,0.0,1.0,0.0,0.0,0.0,1.0,-1.23583007813,0.816701660156,8.57895996094,0.1,0.0,0.0,0.0,0.1,0.0,0.0,0.0,0.1
1446036376886276072,277,1446036376883152008,robocape,9.77181097373,9.77412196973,29.6931747875,0.0,10.0,0.0,0.0,0.0,10.0,0.0,0.0,0.0,10.0,-0.747283001876,0.0126500151779,0.231428698728,1.0,0.0,0.0,0.0,1.0,0.0,0.0,0.0,1.0,2.09564208984,-0.0407153320313,9.79682739258,0.1,0.0,0.0,0.0,0.1,0.0,0.0,0.0,0.1
1446036376920099906,278,1446036376916908979,robocape,9.1723779431,10.262807609,29.2997706757,0.0,10.0,0.0,0.0,0.0,10.0,0.0,0.0,0.0,10.0,-0.271775589243,0.231029224564,-0.214917099969,1.0,0.0,0.0,0.0,1.0,0.0,0.0,0.0,1.0,3.16382080078,-3.05005737305,11.2314440918,0.1,0.0,0.0,0.0,0.1,0.0,0.0,0.0,0.1
1446036376957087322,279,1446036376953816890,robocape,9.83538561824,10.3130390519,28.3460268597,0.0,10.0,0.0,0.0,0.0,10.0,0.0,0.0,0.0,10.0,0.439954212081,-0.0490021640575,-0.47510793847,1.0,0.0,0.0,0.0,1.0,0.0,0.0,0.0,1.0,-0.803529052734,-2.38184692383,9.34416870117,0.1,0.0,0.0,0.0,0.1,0.0,0.0,0.0,0.1
1446036376989734322,280,1446036376986463069,robocape,11.5042250301,10.5925228107,27.8914742645,0.0,10.0,0.0,0.0,0.0,10.0,0.0,0.0,0.0,10.0,0.929975852656,0.119176458781,-0.217580261059,1.0,0.0,0.0,0.0,1.0,0.0,0.0,0.0,1.0,-3.62725708008,0.126936035156,10.7967480469,0.1,0.0,0.0,0.0,0.1,0.0,0.0,0.0,0.1
1446036377019515531,281,1446036377016505002,robocape,12.7438007937,10.6482146835,28.2354270795,0.0,10.0,0.0,0.0,0.0,10.0,0.0,0.0,0.0,10.0,0.638226555237,0.0958737992429,0.228366063474,1.0,0.0,0.0,0.0,1.0,0.0,0.0,0.0,1.0,-1.46814697266,1.99026123047,10.7332800293,0.1,0.0,0.0,0.0,0.1,0.0,0.0,0.0,0.1
1446036377052861239,282,1446036377049796104,robocape,12.7964833042,10.8054515169,28.7980637227,0.0,10.0,0.0,0.0,0.0,10.0,0.0,0.0,0.0,10.0,-0.00612527050718,0.174037577237,0.323174598281,1.0,0.0,0.0,0.0,1.0,0.0,0.0,0.0,1.0,-1.41904907227,1.58071289063,11.7607434082,0.1,0.0,0.0,0.0,0.1,0.0,0.0,0.0,0.1
1446036377086939822,283,1446036377083503961,robocape,11.9065839993,11.1154642235,29.5268175047,0.0,10.0,0.0,0.0,0.0,10.0,0.0,0.0,0.0,10.0,-0.520514835056,0.267780847607,0.388688361097,1.0,0.0,0.0,0.0,1.0,0.0,0.0,0.0,1.0,4.60442504883,2.11240722656,13.6108959961,0.1,0.0,0.0,0.0,0.1,0.0,0.0,0.0,0.1
1446036377120216572,284,1446036377116727113,robocape,10.1537738781,10.9225216441,30.2092642416,0.0,10.0,0.0,0.0,0.0,10.0,0.0,0.0,0.0,10.0,-0.975116433133,-0.0099868540878,0.409727333709,1.0,0.0,0.0,0.0,1.0,0.0,0.0,0.0,1.0,0.304167480469,-0.0299377441406,9.37171142578,0.1,0.0,0.0,0.0,0.1,0.0,0.0,0.0,0.1
1446036377153104947,285,1446036377149785995,robocape,8.37560686313,11.0991362742,30.3737148199,0.0,10.0,0.0,0.0,0.0,10.0,0.0,0.0,0.0,10.0,-0.941027971179,0.121706461817,0.104928546949,1.0,0.0,0.0,0.0,1.0,0.0,0.0,0.0,1.0,-4.49904418945,-2.09923461914,10.8314758301,0.1,0.0,0.0,0.0,0.1,0.0,0.0,0.0,0.1
1446036377186883822,286,1446036377183461904,robocape,7.77725246069,11.6464466194,29.6330797463,0.0,10.0,0.0,0.0,0.0,10.0,0.0,0.0,0.0,10.0,-0.233692385654,0.239151865889,-0.397876266858,1.0,0.0,0.0,0.0,1.0,0.0,0.0,0.0,1.0,5.24868530273,-3.66677490234,12.0708984375,0.1,0.0,0.0,0.0,0.1,0.0,0.0,0.0,0.1
1446036377219700947,287,1446036377216464042,robocape,8.85091136076,11.372776657,28.4847681105,0.0,10.0,0.0,0.0,0.0,10.0,0.0,0.0,0.0,10.0,0.68323397766,-0.224637637948,-0.557266458099,1.0,0.0,0.0,0.0,1.0,0.0,0.0,0.0,1.0,0.797541503906,-2.08725952148,6.09053466797,0.1,0.0,0.0,0.0,0.1,0.0,0.0,0.0,0.1
1446036377253070614,288,1446036377249922990,robocape,10.9295044781,11.6396695079,27.9262141764,0.0,10.0,0.0,0.0,0.0,10.0,0.0,0.0,0.0,10.0,1.15780928391,0.107059075821,-0.269245586207,1.0,0.0,0.0,0.0,1.0,0.0,0.0,0.0,1.0,-2.25251586914,-0.207169189453,12.0397631836,0.1,0.0,0.0,0.0,0.1,0.0,0.0,0.0,0.1
1446036377286484614,289,1446036377283175945,robocape,11.7734883096,11.7449508327,28.5974199212,0.0,10.0,0.0,0.0,0.0,10.0,0.0,0.0,0.0,10.0,0.39201731246,0.157392820424,0.39468047355,1.0,0.0,0.0,0.0,1.0,0.0,0.0,0.0,1.0,0.24908203125,3.92064697266,11.9283947754,0.1,0.0,0.0,0.0,0.1,0.0,0.0,0.0,0.1
1446036377319778156,290,1446036377316682100,robocape,10.3890898273,12.1812695229,30.0813375415,0.0,10.0,0.0,0.0,0.0,10.0,0.0,0.0,0.0,10.0,-0.866459460657,0.412923127017,0.782703044374,1.0,0.0,0.0,0.0,1.0,0.0,0.0,0.0,1.0,8.56578735352,2.98299682617,13.7785473633,0.1,0.0,0.0,0.0,0.1,0.0,0.0,0.0,0.1
1446036377353119864,291,1446036377350028038,robocape,7.64916190027,11.9482478932,31.2124655273,0.0,10.0,0.0,0.0,0.0,10.0,0.0,0.0,0.0,10.0,-1.55075870275,-0.000798948327024,0.650876570415,1.0,0.0,0.0,0.0,1.0,0.0,0.0,0.0,1.0,3.8667590332,0.967587890625,8.19934936523,0.1,0.0,0.0,0.0,0.1,0.0,0.0,0.0,0.1
1446036377388339697,292,1446036377384255886,robocape,4.6281939258,11.9932352493,31.023715045,0.0,10.0,0.0,0.0,0.0,10.0,0.0,0.0,0.0,10.0,-1.56061239879,0.0239684498107,-0.0748348266312,1.0,0.0,0.0,0.0,1.0,0.0,0.0,0.0,1.0,-3.34943481445,-3.22369628906,10.7464526367,0.1,0.0,0.0,0.0,0.1,0.0,0.0,0.0,0.1
1446036377421037489,293,1446036377416958093,robocape,3.06445424449,12.1955821871,29.9469225544,0.0,10.0,0.0,0.0,0.0,10.0,0.0,0.0,0.0,10.0,-0.7006776828,0.0708400849961,-0.552472768137,1.0,0.0,0.0,0.0,1.0,0.0,0.0,0.0,1.0,-1.09093139648,-3.14705566406,10.4410876465,0.1,0.0,0.0,0.0,0.1,0.0,0.0,0.0,0.1
1446036377454616989,294,1446036377451462984,robocape,3.60142717398,12.0361326135,28.87558882,0.0,10.0,0.0,0.0,0.0,10.0,0.0,0.0,0.0,10.0,0.398941531294,-0.114382768819,-0.540754859341,1.0,0.0,0.0,0.0,1.0,0.0,0.0,0.0,1.0,-0.791553955078,-2.40220458984,10.7476501465,0.1,0.0,0.0,0.0,0.1,0.0,0.0,0.0,0.1
1446036377487690198,295,1446036377484610080,robocape,5.3033737055,12.2361066028,27.871806747,0.0,10.0,0.0,0.0,0.0,10.0,0.0,0.0,0.0,10.0,1.00254699236,0.0689758722331,-0.510927455132,1.0,0.0,0.0,0.0,1.0,0.0,0.0,0.0,1.0,-0.834664306641,-1.99744628906,10.3416943359,0.1,0.0,0.0,0.0,0.1,0.0,0.0,0.0,0.1
1446036377520212739,296,1446036377517113924,robocape,7.5894422516,12.0880459546,27.226066785,0.0,10.0,0.0,0.0,0.0,10.0,0.0,0.0,0.0,10.0,1.27205889468,-0.103730124459,-0.298540358198,1.0,0.0,0.0,0.0,1.0,0.0,0.0,0.0,1.0,-3.10514282227,0.279019775391,9.93813354492,0.1,0.0,0.0,0.0,0.1,0.0,0.0,0.0,0.1
1446036377554811239,297,1446036377551322937,robocape,9.54094713648,11.9858751228,27.1182518944,0.0,10.0,0.0,0.0,0.0,10.0,0.0,0.0,0.0,10.0,1.04395914731,-0.0396811002422,-0.00506000607115,1.0,0.0,0.0,0.0,1.0,0.0,0.0,0.0,1.0,1.1843371582,2.05612426758,8.51309692383,0.1,0.0,0.0,0.0,0.1,0.0,0.0,0.0,0.1
1446036377588241156,298,1446036377585035085,robocape,10.5183049514,11.9739028164,27.437943919,0.0,10.0,0.0,0.0,0.0,10.0,0.0,0.0,0.0,10.0,0.491752695283,0.0503337446025,0.214783941915,1.0,0.0,0.0,0.0,1.0,0.0,0.0,0.0,1.0,2.61895385742,1.35917358398,11.1164831543,0.1,0.0,0.0,0.0,0.1,0.0,0.0,0.0,0.1
1446036377621861781,299,1446036377618603944,robocape,11.0442393489,12.2731802583,27.5381756761,0.0,10.0,0.0,0.0,0.0,10.0,0.0,0.0,0.0,10.0,0.278566650022,0.189617069614,0.068176923906,1.0,0.0,0.0,0.0,1.0,0.0,0.0,0.0,1.0,2.40819213867,0.477806396484,10.4518652344,0.1,0.0,0.0,0.0,0.1,0.0,0.0,0.0,0.1
1446036377655581114,300,1446036377652422904,robocape,11.3576786965,12.1760630364,27.5129116677,0.0,10.0,0.0,0.0,0.0,10.0,0.0,0.0,0.0,10.0,0.178831267199,-0.0311589847539,0.0354200424981,1.0,0.0,0.0,0.0,1.0,0.0,0.0,0.0,1.0,-0.028740234375,0.105380859375,9.32979858398,0.1,0.0,0.0,0.0,0.1,0.0,0.0,0.0,0.1
1446036377687394698,301,1446036377684107065,robocape,11.2697999922,11.7662291733,27.697408355,0.0,10.0,0.0,0.0,0.0,10.0,0.0,0.0,0.0,10.0,-0.0544616442921,-0.171374416147,0.172705996692,1.0,0.0,0.0,0.0,1.0,0.0,0.0,0.0,1.0,-4.11344604492,1.00231567383,8.49752929688,0.1,0.0,0.0,0.0,0.1,0.0,0.0,0.0,0.1
1446036377720691281,302,1446036377717672109,robocape,10.5564698365,11.5184721274,28.0982018375,0.0,10.0,0.0,0.0,0.0,10.0,0.0,0.0,0.0,10.0,-0.404534169583,-0.0669785014155,0.267381373444,1.0,0.0,0.0,0.0,1.0,0.0,0.0,0.0,1.0,-1.51724487305,1.40707397461,10.1129699707,0.1,0.0,0.0,0.0,0.1,0.0,0.0,0.0,0.1
1446036377758737323,303,1446036377754928112,robocape,9.17014361162,11.6423312313,28.621697787,0.0,10.0,0.0,0.0,0.0,10.0,0.0,0.0,0.0,10.0,-0.771118293632,0.13275858034,0.29800772598,1.0,0.0,0.0,0.0,1.0,0.0,0.0,0.0,1.0,-2.86204833984,0.506546630859,11.2266540527,0.1,0.0,0.0,0.0,0.1,0.0,0.0,0.0,0.1
1446036377790177239,304,1446036377787009954,robocape,7.24355031385,11.4525603046,29.0728786691,0.0,10.0,0.0,0.0,0.0,10.0,0.0,0.0,0.0,10.0,-1.05048389198,-0.0464721610219,0.282295075548,1.0,0.0,0.0,0.0,1.0,0.0,0.0,0.0,1.0,-0.674197998047,0.729283447266,9.59564575195,0.1,0.0,0.0,0.0,0.1,0.0,0.0,0.0,0.1
1446036377822442031,305,1446036377817502021,robocape,5.03013775807,11.0051754847,29.1615338849,0.0,10.0,0.0,0.0,0.0,10.0,0.0,0.0,0.0,10.0,-1.16619824135,-0.215849206351,0.0978711700604,1.0,0.0,0.0,0.0,1.0,0.0,0.0,0.0,1.0,0.729283447266,-1.12685668945,9.19447998047,0.1,0.0,0.0,0.0,0.1,0.0,0.0,0.0,0.1
1446036377855537739,306,1446036377852514982,robocape,3.21552281911,10.7952424814,28.947287242,0.0,10.0,0.0,0.0,0.0,10.0,0.0,0.0,0.0,10.0,-0.928644272111,-0.106659601658,-0.0757669330128,1.0,0.0,0.0,0.0,1.0,0.0,0.0,0.0,1.0,-2.24533081055,-0.608334960938,9.75970458984,0.1,0.0,0.0,0.0,0.1,0.0,0.0,0.0,0.1
1446036377890245364,307,1446036377886790037,robocape,1.73083244649,11.0061284385,28.7632965586,0.0,10.0,0.0,0.0,0.0,10.0,0.0,0.0,0.0,10.0,-0.760465649272,0.120774355435,-0.0636495500529,1.0,0.0,0.0,0.0,1.0,0.0,0.0,0.0,1.0,-0.0718505859375,-0.271834716797,10.8937463379,0.1,0.0,0.0,0.0,0.1,0.0,0.0,0.0,0.1
1446036377921498614,308,1446036377918381929,robocape,0.0847756126781,12.3559257977,28.5298756727,0.0,10.0,0.0,0.0,0.0,10.0,0.0,0.0,0.0,10.0,-0.841958378629,0.72757560981,-0.0796285165934,1.0,0.0,0.0,0.0,1.0,0.0,0.0,0.0,1.0,6.74377624512,-1.80943725586,16.1544067383,0.1,0.0,0.0,0.0,0.1,0.0,0.0,0.0,0.1
1446036377956670531,309,1446036377953455924,robocape,-0.606150910158,12.1008081673,28.1574825423,0.0,10.0,0.0,0.0,0.0,10.0,0.0,0.0,0.0,10.0,-0.323840388554,-0.121573303762,-0.164849671476,1.0,0.0,0.0,0.0,1.0,0.0,0.0,0.0,1.0,-2.90994873047,-0.801134033203,5.57800048828,0.1,0.0,0.0,0.0,0.1,0.0,0.0,0.0,0.1
1446036377991117448,310,1446036377987494945,robocape,-1.25478976917,10.8690421884,27.8550574463,0.0,10.0,0.0,0.0,0.0,10.0,0.0,0.0,0.0,10.0,-0.310258266994,-0.636894974692,-0.151134391862,1.0,0.0,0.0,0.0,1.0,0.0,0.0,0.0,1.0,7.29762451172,0.546064453125,10.5285058594,0.1,0.0,0.0,0.0,0.1,0.0,0.0,0.0,0.1
1446036378024118864,311,1446036378020582914,robocape,-1.99876664318,10.6241045791,27.5902052205,0.0,10.0,0.0,0.0,0.0,10.0,0.0,0.0,0.0,10.0,-0.368581494867,-0.113450662437,-0.110121711075,1.0,0.0,0.0,0.0,1.0,0.0,0.0,0.0,1.0,-0.816701660156,-1.92200317383,8.25922485352,0.1,0.0,0.0,0.0,0.1,0.0,0.0,0.0,0.1
1446036378057043864,312,1446036378053602933,robocape,-1.88998557049,10.2506762364,26.801662379,0.0,10.0,0.0,0.0,0.0,10.0,0.0,0.0,0.0,10.0,0.130628051468,-0.179097583308,-0.40533311791,1.0,0.0,0.0,0.0,1.0,0.0,0.0,0.0,1.0,-7.6676550293,-1.85015258789,9.46751220703,0.1,0.0,0.0,0.0,0.1,0.0,0.0,0.0,0.1
1446036378090337323,313,1446036378086813926,robocape,-0.618464668904,10.019976663,25.6684104782,0.0,10.0,0.0,0.0,0.0,10.0,0.0,0.0,0.0,10.0,0.770985135578,-0.110521185238,-0.593618606979,1.0,0.0,0.0,0.0,1.0,0.0,0.0,0.0,1.0,-3.43924804688,-1.85733764648,10.479407959,0.1,0.0,0.0,0.0,0.1,0.0,0.0,0.0,0.1
1446036378123194948,314,1446036378119707107,robocape,1.3676975264,10.0049147326,24.7406011769,0.0,10.0,0.0,0.0,0.0,10.0,0.0,0.0,0.0,10.0,1.12451977029,-0.0106526443603,-0.477504783451,1.0,0.0,0.0,0.0,1.0,0.0,0.0,0.0,1.0,1.36875366211,-0.556842041016,8.94300292969,0.1,0.0,0.0,0.0,0.1,0.0,0.0,0.0,0.1
1446036378156125989,315,1446036378152852058,robocape,3.59355295886,9.61756831606,24.271092508,0.0,10.0,0.0,0.0,0.0,10.0,0.0,0.0,0.0,10.0,1.20827618657,-0.207992881135,-0.220509738259,1.0,0.0,0.0,0.0,1.0,0.0,0.0,0.0,1.0,1.49329467773,0.409548339844,9.09149414063,0.1,0.0,0.0,0.0,0.1,0.0,0.0,0.0,0.1
1446036378189074573,316,1446036378185806035,robocape,5.32296652124,9.54025929706,24.2359792708,0.0,10.0,0.0,0.0,0.0,10.0,0.0,0.0,0.0,10.0,0.91266530557,-0.0290284558819,0.0150468601589,1.0,0.0,0.0,0.0,1.0,0.0,0.0,0.0,1.0,3.75658813477,1.77830200195,8.75259887695,0.1,0.0,0.0,0.0,0.1,0.0,0.0,0.0,0.1
1446036378222065906,317,1446036378218801975,robocape,5.86311319109,9.86371002387,24.4686037266,0.0,10.0,0.0,0.0,0.0,10.0,0.0,0.0,0.0,10.0,0.268313479825,0.197872868993,0.141813328047,1.0,0.0,0.0,0.0,1.0,0.0,0.0,0.0,1.0,2.85965332031,1.3448034668,8.74182128906,0.1,0.0,0.0,0.0,0.1,0.0,0.0,0.0,0.1
1446036378255770031,318,1446036378252661943,robocape,5.97339528805,9.70285632456,24.4409530274,0.0,10.0,0.0,0.0,0.0,10.0,0.0,0.0,0.0,10.0,0.0645816564344,-0.0727042977592,0.0222373951022,1.0,0.0,0.0,0.0,1.0,0.0,0.0,0.0,1.0,2.36747680664,-0.119750976563,9.12741943359,0.1,0.0,0.0,0.0,0.1,0.0,0.0,0.0,0.1
1446036378289096323,319,1446036378286099910,robocape,5.99229782476,9.94594449238,24.2732311721,0.0,10.0,0.0,0.0,0.0,10.0,0.0,0.0,0.0,10.0,0.0292947719909,0.130228577305,-0.0721716655411,1.0,0.0,0.0,0.0,1.0,0.0,0.0,0.0,1.0,1.71842651367,0.188009033203,11.6613500977,0.1,0.0,0.0,0.0,0.1,0.0,0.0,0.0,0.1
1446036378322147865,320,1446036378319066047,robocape,6.05429360215,10.2301646978,24.1225770395,0.0,10.0,0.0,0.0,0.0,10.0,0.0,0.0,0.0,10.0,0.0508663768205,0.153264920734,-0.0649811305979,1.0,0.0,0.0,0.0,1.0,0.0,0.0,0.0,1.0,1.50766479492,0.407153320313,10.8362658691,0.1,0.0,0.0,0.0,0.1,0.0,0.0,0.0,0.1
1446036378355456531,321,1446036378352454900,robocape,5.81228963992,10.3395028205,24.2363567367,0.0,10.0,0.0,0.0,0.0,10.0,0.0,0.0,0.0,10.0,-0.132625422286,0.0782969360483,0.0838895743375,1.0,0.0,0.0,0.0,1.0,0.0,0.0,0.0,1.0,6.40907226563,-0.0874182128906,10.1788330078,0.1,0.0,0.0,0.0,0.1,0.0,0.0,0.0,0.1
1446036378388737240,322,1446036378385474920,robocape,5.21802299693,10.4331374426,24.3744709271,0.0,10.0,0.0,0.0,0.0,10.0,0.0,0.0,0.0,10.0,-0.320378279137,0.0707069269416,0.0972053797879,1.0,0.0,0.0,0.0,1.0,0.0,0.0,0.0,1.0,4.94092529297,0.304167480469,8.45920898438,0.1,0.0,0.0,0.0,0.1,0.0,0.0,0.0,0.1
1446036378421145115,323,1446036378418041944,robocape,4.3789832344,10.0867160194,24.3325970259,0.0,10.0,0.0,0.0,0.0,10.0,0.0,0.0,0.0,10.0,-0.43342946741,-0.172040206419,0.016378440704,1.0,0.0,0.0,0.0,1.0,0.0,0.0,0.0,1.0,-5.04510864258,-0.796343994141,9.01485351563,0.1,0.0,0.0,0.0,0.1,0.0,0.0,0.0,0.1
1446036378455201323,324,1446036378452194929,robocape,3.61232391119,9.8964268922,24.2980470146,0.0,10.0,0.0,0.0,0.0,10.0,0.0,0.0,0.0,10.0,-0.396811002422,-0.0894822126267,0.0141147537774,1.0,0.0,0.0,0.0,1.0,0.0,0.0,0.0,1.0,-0.0155676269531,-0.108973388672,10.3895947266,0.1,0.0,0.0,0.0,0.1,0.0,0.0,0.0,0.1
1446036378488073406,325,1446036378484802007,robocape,3.22302536901,9.68707438877,23.9265178443,0.0,10.0,0.0,0.0,0.0,10.0,0.0,0.0,0.0,10.0,-0.169909677547,-0.113184346328,-0.167246516457,1.0,0.0,0.0,0.0,1.0,0.0,0.0,0.0,1.0,-0.2682421875,-1.49688720703,8.68913085938,0.1,0.0,0.0,0.0,0.1,0.0,0.0,0.0,0.1
1446036378521050698,326,1446036378517972946,robocape,3.72319456085,9.14520988422,23.1989371995,0.0,10.0,0.0,0.0,0.0,10.0,0.0,0.0,0.0,10.0,0.324772494935,-0.302934573997,-0.350738315563,1.0,0.0,0.0,0.0,1.0,0.0,0.0,0.0,1.0,-3.86436401367,-0.992735595703,7.73950561523,0.1,0.0,0.0,0.0,0.1,0.0,0.0,0.0,0.1
1446036378554037781,327,1446036378550962924,robocape,4.30591633166,9.86450644198,22.7230016818,0.0,10.0,0.0,0.0,0.0,10.0,0.0,0.0,0.0,10.0,0.348740944746,0.36898096903,-0.249138719977,1.0,0.0,0.0,0.0,1.0,0.0,0.0,0.0,1.0,16.1843444824,1.31127319336,15.6574401855,0.1,0.0,0.0,0.0,0.1,0.0,0.0,0.0,0.1
1446036378586983073,328,1446036378583894968,robocape,4.99748909242,10.8933233932,22.7751350737,0.0,10.0,0.0,0.0,0.0,10.0,0.0,0.0,0.0,10.0,0.362056750196,0.558198564481,0.0197073920666,1.0,0.0,0.0,0.0,1.0,0.0,0.0,0.0,1.0,-7.53473144531,1.51005981445,8.44603637695,0.1,0.0,0.0,0.0,0.1,0.0,0.0,0.0,0.1
1446036378621084365,329,1446036378618058919,robocape,4.55989412627,10.705887136,23.3196758759,0.0,10.0,0.0,0.0,0.0,10.0,0.0,0.0,0.0,10.0,-0.27909928224,-0.0564590151097,0.322641966063,1.0,0.0,0.0,0.0,1.0,0.0,0.0,0.0,1.0,10.5380859375,2.28484863281,11.8038537598,0.1,0.0,0.0,0.0,0.1,0.0,0.0,0.0,0.1
1446036378656721698,330,1446036378653706073,robocape,2.14259888658,9.58462274422,24.3135812816,0.0,10.0,0.0,0.0,0.0,10.0,0.0,0.0,0.0,10.0,-1.35794583983,-0.541420649613,0.579903327365,1.0,0.0,0.0,0.0,1.0,0.0,0.0,0.0,1.0,-6.84376831055,1.9196081543,7.18505859375,0.1,0.0,0.0,0.0,0.1,0.0,0.0,0.0,0.1
1446036378687480740,331,1446036378684263944,robocape,-1.31899188676,9.56775562577,24.8865036232,0.0,10.0,0.0,0.0,0.0,10.0,0.0,0.0,0.0,10.0,-1.86900645302,0.0106526443603,0.339286722876,1.0,0.0,0.0,0.0,1.0,0.0,0.0,0.0,1.0,-0.372425537109,0.319735107422,10.330916748,0.1,0.0,0.0,0.0,0.1,0.0,0.0,0.0,0.1
1446036378719910656,332,1446036378716814994,robocape,-4.34830561596,8.93142064467,24.538140157,0.0,10.0,0.0,0.0,0.0,10.0,0.0,0.0,0.0,10.0,-1.56367503404,-0.315185115011,-0.170974941983,1.0,0.0,0.0,0.0,1.0,0.0,0.0,0.0,1.0,-3.2224987793,-3.89310424805,8.57776245117,0.1,0.0,0.0,0.0,0.1,0.0,0.0,0.0,0.1
1446036378752994323,333,1446036378749922037,robocape,-5.39842496769,8.71093720069,23.0250904043,0.0,10.0,0.0,0.0,0.0,10.0,0.0,0.0,0.0,10.0,-0.427437354958,-0.0495347962755,-0.792956214571,1.0,0.0,0.0,0.0,1.0,0.0,0.0,0.0,1.0,1.01069824219,-3.37817504883,8.660390625,0.1,0.0,0.0,0.0,0.1,0.0,0.0,0.0,0.1
1446036378786420323,334,1446036378783210992,robocape,-4.68679448292,9.12252703416,21.5642802826,0.0,10.0,0.0,0.0,0.0,10.0,0.0,0.0,0.0,10.0,0.492817959719,0.278966124186,-0.73969299277,1.0,0.0,0.0,0.0,1.0,0.0,0.0,0.0,1.0,1.77351196289,-2.88959106445,12.7929968262,0.1,0.0,0.0,0.0,0.1,0.0,0.0,0.0,0.1
1446036378819771490,335,1446036378816569089,robocape,-2.98064100614,9.17679371764,20.6818674565,0.0,10.0,0.0,0.0,0.0,10.0,0.0,0.0,0.0,10.0,0.967260107917,0.0581900698182,-0.45500107224,1.0,0.0,0.0,0.0,1.0,0.0,0.0,0.0,1.0,0.380808105469,-0.841849365234,9.10825927734,0.1,0.0,0.0,0.0,0.1,0.0,0.0,0.0,0.1
1446036378852885865,336,1446036378849836111,robocape,-1.24795714132,9.317521513,20.3022989386,0.0,10.0,0.0,0.0,0.0,10.0,0.0,0.0,0.0,10.0,0.937832177871,0.0852211548825,-0.183092324943,1.0,0.0,0.0,0.0,1.0,0.0,0.0,0.0,1.0,1.10170898438,0.398770751953,10.136920166,0.1,0.0,0.0,0.0,0.1,0.0,0.0,0.0,0.1
1446036378886326032,337,1446036378883233070,robocape,0.36431626422,9.32256659367,19.9236613755,0.0,10.0,0.0,0.0,0.0,10.0,0.0,0.0,0.0,10.0,0.875647366418,0.00932106381528,-0.184157589379,1.0,0.0,0.0,0.0,1.0,0.0,0.0,0.0,1.0,-0.67060546875,-0.63228515625,10.8805737305,0.1,0.0,0.0,0.0,0.1,0.0,0.0,0.0,0.1
1446036378920026157,338,1446036378916868925,robocape,1.49181313825,9.23035702116,19.6587150128,0.0,10.0,0.0,0.0,0.0,10.0,0.0,0.0,0.0,10.0,0.612660208773,-0.0435426838228,-0.121306987653,1.0,0.0,0.0,0.0,1.0,0.0,0.0,0.0,1.0,-3.06442749023,1.30768066406,10.8087231445,0.1,0.0,0.0,0.0,0.1,0.0,0.0,0.0,0.1
1446036378952835573,339,1446036378949824094,robocape,2.21861965744,9.29081326042,19.3807918843,0.0,10.0,0.0,0.0,0.0,10.0,0.0,0.0,0.0,10.0,0.404534169583,0.0350205683345,-0.128231206487,1.0,0.0,0.0,0.0,1.0,0.0,0.0,0.0,1.0,2.02977905273,0.215551757813,9.24477539063,0.1,0.0,0.0,0.0,0.1,0.0,0.0,0.0,0.1
1446036378986364782,340,1446036378983364105,robocape,2.75985772792,9.1917016578,19.1109218322,0.0,10.0,0.0,0.0,0.0,10.0,0.0,0.0,0.0,10.0,0.307062473686,-0.050200586548,-0.121706461817,1.0,0.0,0.0,0.0,1.0,0.0,0.0,0.0,1.0,0.590372314453,0.607137451172,10.3129541016,0.1,0.0,0.0,0.0,0.1,0.0,0.0,0.0,0.1
1446036379019805490,341,1446036379016644954,robocape,2.79583976176,9.40275189802,19.2710185756,0.0,10.0,0.0,0.0,0.0,10.0,0.0,0.0,0.0,10.0,0.0067910607797,0.126500151779,0.100800647259,1.0,0.0,0.0,0.0,1.0,0.0,0.0,0.0,1.0,-5.30856079102,1.11607910156,8.81127685547,0.1,0.0,0.0,0.0,0.1,0.0,0.0,0.0,0.1
1446036379052946823,342,1446036379049967050,robocape,1.62682887021,9.2571155621,19.7878980768,0.0,10.0,0.0,0.0,0.0,10.0,0.0,0.0,0.0,10.0,-0.656069734541,-0.0529969056926,0.295877197108,1.0,0.0,0.0,0.0,1.0,0.0,0.0,0.0,1.0,4.19008666992,2.34951416016,11.9583325195,0.1,0.0,0.0,0.0,0.1,0.0,0.0,0.0,0.1
1446036379086383948,343,1446036379083388090,robocape,-0.484850019394,8.1794319783,20.3772201223,0.0,10.0,0.0,0.0,0.0,10.0,0.0,0.0,0.0,10.0,-1.15501296477,-0.551940135919,0.333294610423,1.0,0.0,0.0,0.0,1.0,0.0,0.0,0.0,1.0,-6.13604003906,-0.0155676269531,8.0089453125,0.1,0.0,0.0,0.0,0.1,0.0,0.0,0.0,0.1
1446036379120312782,344,1446036379117042064,robocape,-2.39798765187,7.7441188564,20.1647028618,0.0,10.0,0.0,0.0,0.0,10.0,0.0,0.0,0.0,10.0,-0.989763819128,-0.218379209386,-0.0980043281149,1.0,0.0,0.0,0.0,1.0,0.0,0.0,0.0,1.0,-5.0163684082,-3.22489379883,8.56099731445,0.1,0.0,0.0,0.0,0.1,0.0,0.0,0.0,0.1
1446036379153006865,345,1446036379150032997,robocape,-2.76275980392,7.50194074876,18.6722855688,0.0,10.0,0.0,0.0,0.0,10.0,0.0,0.0,0.0,10.0,-0.0865527354276,-0.0932106381528,-0.783235676592,1.0,0.0,0.0,0.0,1.0,0.0,0.0,0.0,1.0,-0.0347277832031,-5.01157836914,10.9560168457,0.1,0.0,0.0,0.0,0.1,0.0,0.0,0.0,0.1
1446036379186842573,346,1446036379183453083,robocape,-0.97275189418,7.19107122917,17.1537359825,0.0,10.0,0.0,0.0,0.0,10.0,0.0,0.0,0.0,10.0,1.04009756373,-0.140614905556,-0.802943068659,1.0,0.0,0.0,0.0,1.0,0.0,0.0,0.0,1.0,-1.84416503906,-0.742456054688,7.67843261719,0.1,0.0,0.0,0.0,0.1,0.0,0.0,0.0,0.1
1446036379219735282,347,1446036379216645956,robocape,1.01726982636,8.24234003317,17.020238853,0.0,10.0,0.0,0.0,0.0,10.0,0.0,0.0,0.0,10.0,1.05141599836,0.558598038644,-0.0523311154201,1.0,0.0,0.0,0.0,1.0,0.0,0.0,0.0,1.0,4.93134521484,1.68729125977,16.1843444824,0.1,0.0,0.0,0.0,0.1,0.0,0.0,0.0,0.1
1446036379252961532,348,1446036379249888896,robocape,1.97780543229,8.14023200207,17.5100235941,0.0,10.0,0.0,0.0,0.0,10.0,0.0,0.0,0.0,10.0,0.467251613254,-0.0363521488796,0.277235069477,1.0,0.0,0.0,0.0,1.0,0.0,0.0,0.0,1.0,-2.05372924805,1.76033935547,8.2735949707,0.1,0.0,0.0,0.0,0.1,0.0,0.0,0.0,0.1
1446036379286334365,349,1446036379283107995,robocape,1.45274124116,7.71803037414,17.9294472879,0.0,10.0,0.0,0.0,0.0,10.0,0.0,0.0,0.0,10.0,-0.305065102869,-0.2054628781,0.244078713906,1.0,0.0,0.0,0.0,1.0,0.0,0.0,0.0,1.0,-4.46431640625,1.22026245117,9.72258178711,0.1,0.0,0.0,0.0,0.1,0.0,0.0,0.0,0.1
1446036379319704615,350,1446036379316621065,robocape,0.868432764304,7.77803949158,17.7113291811,0.0,10.0,0.0,0.0,0.0,10.0,0.0,0.0,0.0,10.0,-0.290817191037,0.0358195166616,-0.0989364344964,1.0,0.0,0.0,0.0,1.0,0.0,0.0,0.0,1.0,-3.83442626953,-0.378413085938,9.52140014648,0.1,0.0,0.0,0.0,0.1,0.0,0.0,0.0,0.1
1446036379352872782,351,1446036379349807024,robocape,0.486681110417,7.50670661741,17.3586844351,0.0,10.0,0.0,0.0,0.0,10.0,0.0,0.0,0.0,10.0,-0.175768631945,-0.139283325011,-0.170042835602,1.0,0.0,0.0,0.0,1.0,0.0,0.0,0.0,1.0,-1.04782104492,-0.956810302734,10.1333276367,0.1,0.0,0.0,0.0,0.1,0.0,0.0,0.0,0.1
1446036379386537032,352,1446036379383173942,robocape,0.404458449136,7.21566585995,16.9824871388,0.0,10.0,0.0,0.0,0.0,10.0,0.0,0.0,0.0,10.0,-0.018242653467,-0.149403337153,-0.183624957161,1.0,0.0,0.0,0.0,1.0,0.0,0.0,0.0,1.0,-0.732875976563,-0.147293701172,7.97182250977,0.1,0.0,0.0,0.0,0.1,0.0,0.0,0.0,0.1
1446036379419875198,353,1446036379416582107,robocape,-0.0327978233884,7.1268724557,16.9921442592,0.0,10.0,0.0,0.0,0.0,10.0,0.0,0.0,0.0,10.0,-0.230629750401,-0.0396811002422,0.0213052887206,1.0,0.0,0.0,0.0,1.0,0.0,0.0,0.0,1.0,-2.21180053711,-0.067060546875,9.76688964844,0.1,0.0,0.0,0.0,0.1,0.0,0.0,0.0,0.1
1446036379453088407,354,1446036379449769020,robocape,-0.980770390081,6.81299432826,17.1732207409,0.0,10.0,0.0,0.0,0.0,10.0,0.0,0.0,0.0,10.0,-0.50999534875,-0.158191768751,0.110388027184,1.0,0.0,0.0,0.0,1.0,0.0,0.0,0.0,1.0,-3.19854858398,0.404758300781,11.051817627,0.1,0.0,0.0,0.0,0.1,0.0,0.0,0.0,0.1
1446036379486769323,355,1446036379483285903,robocape,-2.13512875626,6.5321344827,17.0967334952,0.0,10.0,0.0,0.0,0.0,10.0,0.0,0.0,0.0,10.0,-0.602673354685,-0.140082273338,-0.0279631914458,1.0,0.0,0.0,0.0,1.0,0.0,0.0,0.0,1.0,-2.73032226563,-0.205971679688,8.87474487305,0.1,0.0,0.0,0.0,0.1,0.0,0.0,0.0,0.1
1446036379520482907,356,1446036379517297983,robocape,-3.3710513277,6.13534079824,16.9575601269,0.0,10.0,0.0,0.0,0.0,10.0,0.0,0.0,0.0,10.0,-0.6430202452,-0.198804975374,-0.066845343361,1.0,0.0,0.0,0.0,1.0,0.0,0.0,0.0,1.0,-5.6294934082,0.232316894531,9.29147827148,0.1,0.0,0.0,0.0,0.1,0.0,0.0,0.0,0.1
1446036379552993740,357,1446036379549870967,robocape,-4.91809750248,5.71224785801,16.9096742908,0.0,10.0,0.0,0.0,0.0,10.0,0.0,0.0,0.0,10.0,-0.813728871074,-0.213585519424,-0.0225037112112,1.0,0.0,0.0,0.0,1.0,0.0,0.0,0.0,1.0,3.62246704102,0.631087646484,9.4615246582,0.1,0.0,0.0,0.0,0.1,0.0,0.0,0.0,0.1
1446036379586694532,358,1446036379583424091,robocape,-6.7020214878,5.58154116157,16.8111664528,0.0,10.0,0.0,0.0,0.0,10.0,0.0,0.0,0.0,10.0,-0.938631126198,-0.0567253312187,-0.0362189908251,1.0,0.0,0.0,0.0,1.0,0.0,0.0,0.0,1.0,6.21268066406,0.0934057617188,10.1105749512,0.1,0.0,0.0,0.0,0.1,0.0,0.0,0.0,0.1
1446036379620425490,359,1446036379617312908,robocape,-8.69814233762,5.25195894024,16.5831361776,0.0,10.0,0.0,0.0,0.0,10.0,0.0,0.0,0.0,10.0,-1.0466223084,-0.149403337153,-0.118377510454,1.0,0.0,0.0,0.0,1.0,0.0,0.0,0.0,1.0,3.24046142578,-0.246687011719,9.69623657227,0.1,0.0,0.0,0.0,0.1,0.0,0.0,0.0,0.1
1446036379653344324,360,1446036379649907112,robocape,-10.6819297163,5.74340066587,16.0408684961,0.0,10.0,0.0,0.0,0.0,10.0,0.0,0.0,0.0,10.0,-1.0287791291,0.308127738122,-0.210256568062,1.0,0.0,0.0,0.0,1.0,0.0,0.0,0.0,1.0,6.36356689453,-0.590372314453,8.47836914063,0.1,0.0,0.0,0.0,0.1,0.0,0.0,0.0,0.1
1446036379686629990,361,1446036379683533906,robocape,-11.520067107,6.19018110658,14.8153914729,0.0,10.0,0.0,0.0,0.0,10.0,0.0,0.0,0.0,10.0,-0.380832035881,0.355931479689,-0.570182789386,1.0,0.0,0.0,0.0,1.0,0.0,0.0,0.0,1.0,3.57935668945,-2.89318359375,10.8901538086,0.1,0.0,0.0,0.0,0.1,0.0,0.0,0.0,0.1
1446036379719983282,362,1446036379716872930,robocape,-10.7673148738,6.1017441739,13.1654282356,0.0,10.0,0.0,0.0,0.0,10.0,0.0,0.0,0.0,10.0,0.491486379174,0.118510668509,-0.85767102906,1.0,0.0,0.0,0.0,1.0,0.0,0.0,0.0,1.0,-1.53880004883,-3.01413208008,10.6422692871,0.1,0.0,0.0,0.0,0.1,0.0,0.0,0.0,0.1
1446036379754294657,363,1446036379751264095,robocape,-9.24407701782,6.52117426699,11.9368932352,0.0,10.0,0.0,0.0,0.0,10.0,0.0,0.0,0.0,10.0,0.871386308674,0.325704601317,-0.595482819742,1.0,0.0,0.0,0.0,1.0,0.0,0.0,0.0,1.0,-0.142503662109,-0.0143701171875,10.7428601074,0.1,0.0,0.0,0.0,0.1,0.0,0.0,0.0,0.1
1446036379787579824,364,1446036379784557104,robocape,-7.99991058757,6.02486944797,11.4972555358,0.0,10.0,0.0,0.0,0.0,10.0,0.0,0.0,0.0,10.0,0.676176600771,-0.222373951022,-0.264585054299,1.0,0.0,0.0,0.0,1.0,0.0,0.0,0.0,1.0,1.13164672852,0.662222900391,8.28197753906,0.1,0.0,0.0,0.0,0.1,0.0,0.0,0.0,0.1
1446036379820953115,365,1446036379817887067,robocape,-7.58356033686,5.62050415038,11.3930448888,0.0,10.0,0.0,0.0,0.0,10.0,0.0,0.0,0.0,10.0,0.21877868355,-0.199603923701,-0.0756337749583,1.0,0.0,0.0,0.0,1.0,0.0,0.0,0.0,1.0,-3.05724243164,0.820294189453,7.68202514648,0.1,0.0,0.0,0.0,0.1,0.0,0.0,0.0,0.1
1446036379854421532,366,1446036379851317882,robocape,-7.54489441334,6.91729905893,10.5987874225,0.0,10.0,0.0,0.0,0.0,10.0,0.0,0.0,0.0,10.0,0.0591221761998,0.732635615881,-0.31132353143,1.0,0.0,0.0,0.0,1.0,0.0,0.0,0.0,1.0,4.02123779297,-0.834664306641,16.3819335938,0.1,0.0,0.0,0.0,0.1,0.0,0.0,0.0,0.1
1446036379888136782,367,1446036379885024070,robocape,-6.67608636198,7.1749287437,9.54313452578,0.0,10.0,0.0,0.0,0.0,10.0,0.0,0.0,0.0,10.0,0.521313783383,0.203066033119,-0.525707999182,1.0,0.0,0.0,0.0,1.0,0.0,0.0,0.0,1.0,2.87162841797,-2.87641845703,12.6576782227,0.1,0.0,0.0,0.0,0.1,0.0,0.0,0.0,0.1
1446036379920136324,368,1446036379917113065,robocape,-4.29211786098,7.22509539309,7.99669862872,0.0,10.0,0.0,0.0,0.0,10.0,0.0,0.0,0.0,10.0,1.35208688543,0.099868540878,-0.80121201395,1.0,0.0,0.0,0.0,1.0,0.0,0.0,0.0,1.0,-7.02459228516,-1.82380737305,11.5942895508,0.1,0.0,0.0,0.0,0.1,0.0,0.0,0.0,0.1
1446036379954564657,369,1446036379951467037,robocape,-1.36225642861,7.18728633729,7.01292258299,0.0,10.0,0.0,0.0,0.0,10.0,0.0,0.0,0.0,10.0,1.59922823459,0.00479368996214,-0.512259035677,1.0,0.0,0.0,0.0,1.0,0.0,0.0,0.0,1.0,-4.04638549805,1.68010620117,7.40659790039,0.1,0.0,0.0,0.0,0.1,0.0,0.0,0.0,0.1
1446036379988162490,370,1446036379985012054,robocape,-0.120075868842,7.46479799104,7.60142954341,0.0,10.0,0.0,0.0,0.0,10.0,0.0,0.0,0.0,10.0,0.610529679901,0.148338072717,0.314785640847,1.0,0.0,0.0,0.0,1.0,0.0,0.0,0.0,1.0,-2.40819213867,3.80808105469,11.1967163086,0.1,0.0,0.0,0.0,0.1,0.0,0.0,0.0,0.1
1446036380023286407,371,1446036380018151998,robocape,-1.09962068269,7.50731937933,8.70410403018,0.0,10.0,0.0,0.0,0.0,10.0,0.0,0.0,0.0,10.0,-0.590156497562,0.0249005561922,0.582832804564,1.0,0.0,0.0,0.0,1.0,0.0,0.0,0.0,1.0,0.870589599609,3.97453491211,11.1212731934,0.1,0.0,0.0,0.0,0.1,0.0,0.0,0.0,0.1
1446036380054256740,372,1446036380051156997,robocape,-4.15747915772,7.11813043023,9.58405254844,0.0,10.0,0.0,0.0,0.0,10.0,0.0,0.0,0.0,10.0,-1.6659404199,-0.216248680514,0.458862655821,1.0,0.0,0.0,0.0,1.0,0.0,0.0,0.0,1.0,0.620310058594,1.71722900391,7.10123291016,0.1,0.0,0.0,0.0,0.1,0.0,0.0,0.0,0.1
1446036380089742449,373,1446036380086035013,robocape,-8.38360714345,6.87465877764,9.98537018922,0.0,10.0,0.0,0.0,0.0,10.0,0.0,0.0,0.0,10.0,-2.25489849497,-0.138484376684,0.211055516389,1.0,0.0,0.0,0.0,1.0,0.0,0.0,0.0,1.0,-2.28245361328,-0.334105224609,8.51309692383,0.1,0.0,0.0,0.0,0.1,0.0,0.0,0.0,0.1
1446036380122688490,374,1446036380119195938,robocape,-11.875211811,7.05639860369,9.20263047176,0.0,10.0,0.0,0.0,0.0,10.0,0.0,0.0,0.0,10.0,-1.80216110966,0.177366528599,-0.365652017668,1.0,0.0,0.0,0.0,1.0,0.0,0.0,0.0,1.0,1.7591418457,-4.01644775391,12.8432922363,0.1,0.0,0.0,0.0,0.1,0.0,0.0,0.0,0.1
1446036380157331365,375,1446036380154256105,robocape,-13.2980167547,6.89105618754,7.60626280699,0.0,10.0,0.0,0.0,0.0,10.0,0.0,0.0,0.0,10.0,-0.656469208705,0.102265385859,-0.820786247962,1.0,0.0,0.0,0.0,1.0,0.0,0.0,0.0,1.0,4.50622924805,-5.21874755859,9.57169555664,0.1,0.0,0.0,0.0,0.1,0.0,0.0,0.0,0.1
1446036380189489657,376,1446036380186103105,robocape,-12.0484962592,7.00145736836,5.36581623881,0.0,10.0,0.0,0.0,0.0,10.0,0.0,0.0,0.0,10.0,0.802277278386,0.30866037034,-1.12678345721,1.0,0.0,0.0,0.0,1.0,0.0,0.0,0.0,1.0,-1.51724487305,-3.95178222656,10.8302783203,0.1,0.0,0.0,0.0,0.1,0.0,0.0,0.0,0.1
1446036380223567032,377,1446036380219850063,robocape,-9.27441827772,7.4921062804,3.7697902426,0.0,10.0,0.0,0.0,0.0,10.0,0.0,0.0,0.0,10.0,1.56540608875,0.400539427948,-0.770985135578,1.0,0.0,0.0,0.0,1.0,0.0,0.0,0.0,1.0,-0.192799072266,-1.27175537109,11.403885498,0.1,0.0,0.0,0.0,0.1,0.0,0.0,0.0,0.1
1446036380257277615,378,1446036380254018068,robocape,-6.15210219912,7.52090302282,3.05283360428,0.0,10.0,0.0,0.0,0.0,10.0,0.0,0.0,0.0,10.0,1.68737886667,0.0613858631263,-0.368714652921,1.0,0.0,0.0,0.0,1.0,0.0,0.0,0.0,1.0,-1.62142822266,0.595162353516,10.923684082,0.1,0.0,0.0,0.0,0.1,0.0,0.0,0.0,0.1
1446036380290338366,379,1446036380286767959,robocape,-4.55239886419,7.50043358008,3.17260617407,0.0,10.0,0.0,0.0,0.0,10.0,0.0,0.0,0.0,10.0,0.827577308742,-0.0135821215594,0.0623179695079,1.0,0.0,0.0,0.0,1.0,0.0,0.0,0.0,1.0,-0.730480957031,3.16262329102,9.58965820313,0.1,0.0,0.0,0.0,0.1,0.0,0.0,0.0,0.1
1446036380322591866,380,1446036380319097995,robocape,-4.5007329472,7.687093857,3.56085221941,0.0,10.0,0.0,0.0,0.0,10.0,0.0,0.0,0.0,10.0,-0.00399474163512,0.0881506320816,0.21198762277,1.0,0.0,0.0,0.0,1.0,0.0,0.0,0.0,1.0,2.88959106445,2.08965454102,10.7260949707,0.1,0.0,0.0,0.0,0.1,0.0,0.0,0.0,0.1
1446036380356781741,381,1446036380353266000,robocape,-4.96888921673,7.74947750632,3.30351286209,0.0,10.0,0.0,0.0,0.0,10.0,0.0,0.0,0.0,10.0,-0.231428698728,0.0500674284935,-0.127299100106,1.0,0.0,0.0,0.0,1.0,0.0,0.0,0.0,1.0,-0.855021972656,-1.11248657227,10.2830163574,0.1,0.0,0.0,0.0,0.1,0.0,0.0,0.0,0.1
1446036380389644491,382,1446036380385984897,robocape,-4.90094687524,7.86132958448,2.404394473,0.0,10.0,0.0,0.0,0.0,10.0,0.0,0.0,0.0,10.0,0.0961401153519,0.103730124459,-0.457797391385,1.0,0.0,0.0,0.0,1.0,0.0,0.0,0.0,1.0,-3.36140991211,-1.89086791992,11.5056738281,0.1,0.0,0.0,0.0,0.1,0.0,0.0,0.0,0.1
1446036380423894407,383,1446036380420455932,robocape,-3.94194204324,8.12895738348,1.45044182527,0.0,10.0,0.0,0.0,0.0,10.0,0.0,0.0,0.0,10.0,0.569383841059,0.18242653467,-0.481366367032,1.0,0.0,0.0,0.0,1.0,0.0,0.0,0.0,1.0,-0.316142578125,-0.532891845703,10.5859863281,0.1,0.0,0.0,0.0,0.1,0.0,0.0,0.0,0.1
1446036380456470949,384,1446036380452903032,robocape,-3.21122197806,8.54081838701,1.1983851669,0.0,10.0,0.0,0.0,0.0,10.0,0.0,0.0,0.0,10.0,0.399207847403,0.229963960128,-0.115714349364,1.0,0.0,0.0,0.0,1.0,0.0,0.0,0.0,1.0,2.79019775391,1.25259521484,12.1678967285,0.1,0.0,0.0,0.0,0.1,0.0,0.0,0.0,0.1
1446036380489922491,385,1446036380486469030,robocape,-3.39557597795,8.4083478965,1.40869808107,0.0,10.0,0.0,0.0,0.0,10.0,0.0,0.0,0.0,10.0,-0.115448033255,-0.0691090302876,0.105993811385,1.0,0.0,0.0,0.0,1.0,0.0,0.0,0.0,1.0,-0.904119873047,1.97229858398,9.00287841797,0.1,0.0,0.0,0.0,0.1,0.0,0.0,0.0,0.1
1446036380523071282,386,1446036380519155025,robocape,-4.57440551047,9.31367315791,1.54931498044,0.0,10.0,0.0,0.0,0.0,10.0,0.0,0.0,0.0,10.0,-0.634498129711,0.479502154269,0.107858024148,1.0,0.0,0.0,0.0,1.0,0.0,0.0,0.0,1.0,-0.621507568359,0.233514404297,13.1079418945,0.1,0.0,0.0,0.0,0.1,0.0,0.0,0.0,0.1
1446036380555827782,387,1446036380552095890,robocape,-5.5892394036,9.34961189723,1.00817147119,0.0,10.0,0.0,0.0,0.0,10.0,0.0,0.0,0.0,10.0,-0.490820588902,0.0524642734746,-0.275504014769,1.0,0.0,0.0,0.0,1.0,0.0,0.0,0.0,1.0,-5.79115722656,-1.14242431641,11.097322998,0.1,0.0,0.0,0.0,0.1,0.0,0.0,0.0,0.1
1446036380590239157,388,1446036380587218046,robocape,-5.82588863848,9.01752250067,0.0669165202282,0.0,10.0,0.0,0.0,0.0,10.0,0.0,0.0,0.0,10.0,-0.049135322112,-0.118510668509,-0.501073759098,1.0,0.0,0.0,0.0,1.0,0.0,0.0,0.0,1.0,0.437091064453,-0.849034423828,9.51062255859,0.1,0.0,0.0,0.0,0.1,0.0,0.0,0.0,0.1
1446036380621206324,389,1446036380617949962,robocape,-5.51924305473,9.05437138113,-0.598036867632,0.0,10.0,0.0,0.0,0.0,10.0,0.0,0.0,0.0,10.0,0.211321832498,0.0597879664723,-0.340351987312,1.0,0.0,0.0,0.0,1.0,0.0,0.0,0.0,1.0,-1.07177124023,-0.0598754882813,9.4303894043,0.1,0.0,0.0,0.0,0.1,0.0,0.0,0.0,0.1
1446036380658837407,390,1446036380655652999,robocape,-5.35255924968,8.97485167026,-0.947628170942,0.0,10.0,0.0,0.0,0.0,10.0,0.0,0.0,0.0,10.0,0.112119081892,-0.017710021249,-0.184290747433,1.0,0.0,0.0,0.0,1.0,0.0,0.0,0.0,1.0,1.18194213867,0.504151611328,9.63995361328,0.1,0.0,0.0,0.0,0.1,0.0,0.0,0.0,0.1
1446036380689826324,391,1446036380686810016,robocape,-5.47727183262,8.98499949456,-1.11172600141,0.0,10.0,0.0,0.0,0.0,10.0,0.0,0.0,0.0,10.0,-0.0563258570552,0.0207726565026,-0.08455536461,1.0,0.0,0.0,0.0,1.0,0.0,0.0,0.0,1.0,1.02866088867,0.910107421875,9.37410644531,0.1,0.0,0.0,0.0,0.1,0.0,0.0,0.0,0.1
1446036380722053574,392,1446036380718955993,robocape,-5.91749550062,9.05307412926,-1.3826820752,0.0,10.0,0.0,0.0,0.0,10.0,0.0,0.0,0.0,10.0,-0.213585519424,0.0577905956547,-0.136753321976,1.0,0.0,0.0,0.0,1.0,0.0,0.0,0.0,1.0,2.66924926758,0.981958007813,10.8662036133,0.1,0.0,0.0,0.0,0.1,0.0,0.0,0.0,0.1
1446036380755395116,393,1446036380752341985,robocape,-6.73345437276,8.90539100891,-1.56379995074,0.0,10.0,0.0,0.0,0.0,10.0,0.0,0.0,0.0,10.0,-0.41864892336,-0.0580569117637,-0.102664860023,1.0,0.0,0.0,0.0,1.0,0.0,0.0,0.0,1.0,-0.829874267578,0.337697753906,8.89510253906,0.1,0.0,0.0,0.0,0.1,0.0,0.0,0.0,0.1
