%time,field.header.seq,field.header.stamp,field.header.frame_id,field.orientation.x,field.orientation.y,field.orientation.z,field.orientation.w,field.orientation_covariance0,field.orientation_covariance1,field.orientation_covariance2,field.orientation_covariance3,field.orientation_covariance4,field.orientation_covariance5,field.orientation_covariance6,field.orientation_covariance7,field.orientation_covariance8,field.angular_velocity.x,field.angular_velocity.y,field.angular_velocity.z,field.angular_velocity_covariance0,field.angular_velocity_covariance1,field.angular_velocity_covariance2,field.angular_velocity_covariance3,field.angular_velocity_covariance4,field.angular_velocity_covariance5,field.angular_velocity_covariance6,field.angular_velocity_covariance7,field.angular_velocity_covariance8,field.linear_acceleration.x,field.linear_acceleration.y,field.linear_acceleration.z,field.linear_acceleration_covariance0,field.linear_acceleration_covariance1,field.linear_acceleration_covariance2,field.linear_acceleration_covariance3,field.linear_acceleration_covariance4,field.linear_acceleration_covariance5,field.linear_acceleration_covariance6,field.linear_acceleration_covariance7,field.linear_acceleration_covariance8
1446038353793030165,1,1446038353789957046,robocape,-10.6863677286,-1.52550097076,-60.45041339,0.0,10.0,0.0,0.0,0.0,10.0,0.0,0.0,0.0,10.0,-0.819454667417,0.291482981309,-2.90897085869,1.0,0.0,0.0,0.0,1.0,0.0,0.0,0.0,1.0,-1.01548828125,-2.95305908203,9.54894287109,0.1,0.0,0.0,0.0,0.1,0.0,0.0,0.0,0.1
1446038353826183081,2,1446038353823276996,robocape,-11.4543565679,-1.8327250855,-65.1424680254,0.0,10.0,0.0,0.0,0.0,10.0,0.0,0.0,0.0,10.0,-0.596148610014,0.365785175722,-3.14013324131,1.0,0.0,0.0,0.0,1.0,0.0,0.0,0.0,1.0,-1.37953125,-2.78181518555,9.48307983398,0.1,0.0,0.0,0.0,0.1,0.0,0.0,0.0,0.1
1446038353859537665,3,1446038353856494903,robocape,-11.8153319283,-2.14183339152,-69.7782645481,0.0,10.0,0.0,0.0,0.0,10.0,0.0,0.0,0.0,10.0,-0.407729962891,0.393615209114,-3.20551384607,1.0,0.0,0.0,0.0,1.0,0.0,0.0,0.0,1.0,-1.79626464844,-2.69319946289,9.6183984375,0.1,0.0,0.0,0.0,0.1,0.0,0.0,0.0,0.1
1446038353892866998,4,1446038353889669895,robocape,-11.8327584845,-2.63252343315,-74.1766351994,0.0,10.0,0.0,0.0,0.0,10.0,0.0,0.0,0.0,10.0,-0.242081343088,0.286422975238,-3.1603732656,1.0,0.0,0.0,0.0,1.0,0.0,0.0,0.0,1.0,-2.18186279297,-1.14841186523,9.62438598633,0.1,0.0,0.0,0.0,0.1,0.0,0.0,0.0,0.1
1446038353926261956,5,1446038353923163890,robocape,-12.038281629,-3.34917598959,-78.1897893503,0.0,10.0,0.0,0.0,0.0,10.0,0.0,0.0,0.0,10.0,-0.355265689417,0.129562787032,-3.01043729623,1.0,0.0,0.0,0.0,1.0,0.0,0.0,0.0,1.0,-2.13276489258,-0.189206542969,9.61720092773,0.1,0.0,0.0,0.0,0.1,0.0,0.0,0.0,0.1
1446038353959479706,6,1446038353956398963,robocape,-12.5200823599,-4.23675646972,-81.8787039525,0.0,10.0,0.0,0.0,0.0,10.0,0.0,0.0,0.0,10.0,-0.524243260582,0.0151800182135,-2.88540188305,1.0,0.0,0.0,0.0,1.0,0.0,0.0,0.0,1.0,-1.7591418457,-0.0802331542969,9.82317260742,0.1,0.0,0.0,0.0,0.1,0.0,0.0,0.0,0.1
1446038353992853040,7,1446038353989604949,robocape,-13.1349036353,-5.29840202154,-85.3644064522,0.0,10.0,0.0,0.0,0.0,10.0,0.0,0.0,0.0,10.0,-0.631302336403,-0.0792290424299,-2.84865026,1.0,0.0,0.0,0.0,1.0,0.0,0.0,0.0,1.0,-1.39749389648,0.182021484375,9.91178833008,0.1,0.0,0.0,0.0,0.1,0.0,0.0,0.0,0.1
1446038354026486206,8,1446038354023171901,robocape,-13.4854817008,-6.69004463338,-88.7736545225,0.0,10.0,0.0,0.0,0.0,10.0,0.0,0.0,0.0,10.0,-0.547279604011,-0.240882920598,-2.93280615045,1.0,0.0,0.0,0.0,1.0,0.0,0.0,0.0,1.0,-1.3064831543,-1.29810058594,9.66989135742,0.1,0.0,0.0,0.0,0.1,0.0,0.0,0.0,0.1
1446038354059637956,9,1446038354056387901,robocape,-13.507923255,-8.37162458366,-92.0879130624,0.0,10.0,0.0,0.0,0.0,10.0,0.0,0.0,0.0,10.0,-0.434494731846,-0.400406269893,-2.98553674003,1.0,0.0,0.0,0.0,1.0,0.0,0.0,0.0,1.0,-1.26936035156,0.668210449219,9.4998449707,0.1,0.0,0.0,0.0,0.1,0.0,0.0,0.0,0.1
1446038354093525248,10,1446038354089756011,robocape,-13.8687253668,-10.2801960706,-95.1723830008,0.0,10.0,0.0,0.0,0.0,10.0,0.0,0.0,0.0,10.0,-0.668719749719,-0.550741713428,-2.94718722034,1.0,0.0,0.0,0.0,1.0,0.0,0.0,0.0,1.0,-0.543669433594,1.01069824219,9.44475952148,0.1,0.0,0.0,0.0,0.1,0.0,0.0,0.0,0.1
1446038354126486998,11,1446038354122940063,robocape,-14.2572070828,-12.1843357714,-98.1450601221,0.0,10.0,0.0,0.0,0.0,10.0,0.0,0.0,0.0,10.0,-0.753674588492,-0.560062777244,-2.94971722337,1.0,0.0,0.0,0.0,1.0,0.0,0.0,0.0,1.0,0.598754882812,0.0107775878906,9.50104248047,0.1,0.0,0.0,0.0,0.1,0.0,0.0,0.0,0.1
1446038354159451165,12,1446038354156352996,robocape,-14.6439920369,-13.5844747942,-101.124564357,0.0,10.0,0.0,0.0,0.0,10.0,0.0,0.0,0.0,10.0,-0.827843624851,-0.295744039053,-2.94345879481,1.0,0.0,0.0,0.0,1.0,0.0,0.0,0.0,1.0,1.78788208008,0.183218994141,9.85790039062,0.1,0.0,0.0,0.0,0.1,0.0,0.0,0.0,0.1
1446038354192990373,13,1446038354189698934,robocape,-15.6183720928,-14.2566270636,-104.021913136,0.0,10.0,0.0,0.0,0.0,10.0,0.0,0.0,0.0,10.0,-1.1780493082,0.08455536461,-2.83573392872,1.0,0.0,0.0,0.0,1.0,0.0,0.0,0.0,1.0,1.81302978516,0.912502441406,9.48786987305,0.1,0.0,0.0,0.0,0.1,0.0,0.0,0.0,0.1
1446038354226576832,14,1446038354223020076,robocape,-16.9385949909,-14.3143660499,-106.863135485,0.0,10.0,0.0,0.0,0.0,10.0,0.0,0.0,0.0,10.0,-1.37645480941,0.432497361029,-2.72734327235,1.0,0.0,0.0,0.0,1.0,0.0,0.0,0.0,1.0,1.56394775391,-0.0874182128906,8.79570922852,0.1,0.0,0.0,0.0,0.1,0.0,0.0,0.0,0.1
1446038354259416707,15,1446038354256376028,robocape,-18.1137649876,-14.0226464545,-109.707563772,0.0,10.0,0.0,0.0,0.0,10.0,0.0,0.0,0.0,10.0,-1.30148682472,0.662061846994,-2.66728898977,1.0,0.0,0.0,0.0,1.0,0.0,0.0,0.0,1.0,1.33163085938,-1.09093139648,8.44004882813,0.1,0.0,0.0,0.0,0.1,0.0,0.0,0.0,0.1
1446038354292964040,16,1446038354289638996,robocape,-18.8828564579,-13.5752683103,-112.510347929,0.0,10.0,0.0,0.0,0.0,10.0,0.0,0.0,0.0,10.0,-1.04835336311,0.772050400014,-2.52414408118,1.0,0.0,0.0,0.0,1.0,0.0,0.0,0.0,1.0,1.03584594727,-1.55436767578,8.60650268555,0.1,0.0,0.0,0.0,0.1,0.0,0.0,0.0,0.1
1446038354326409165,17,1446038354323029041,robocape,-19.1701300954,-13.0847308711,-115.19621389,0.0,10.0,0.0,0.0,0.0,10.0,0.0,0.0,0.0,10.0,-0.712262433542,0.784167782974,-2.24650953754,1.0,0.0,0.0,0.0,1.0,0.0,0.0,0.0,1.0,-0.184416503906,-1.83458496094,8.66757568359,0.1,0.0,0.0,0.0,0.1,0.0,0.0,0.0,0.1
1446038354359416665,18,1446038354356417894,robocape,-18.989537058,-12.9046380331,-117.716244577,0.0,10.0,0.0,0.0,0.0,10.0,0.0,0.0,0.0,10.0,-0.384693619462,0.592020710325,-2.01934189655,1.0,0.0,0.0,0.0,1.0,0.0,0.0,0.0,1.0,-1.1076965332,-1.36516113281,8.42567871094,0.1,0.0,0.0,0.0,0.1,0.0,0.0,0.0,0.1
1446038354393018373,19,1446038354389735937,robocape,-18.5582822842,-12.9380006872,-120.080102485,0.0,10.0,0.0,0.0,0.0,10.0,0.0,0.0,0.0,10.0,-0.184823379651,0.435693154337,-1.78551635284,1.0,0.0,0.0,0.0,1.0,0.0,0.0,0.0,1.0,-0.779578857422,-1.51005981445,8.06762329102,0.1,0.0,0.0,0.0,0.1,0.0,0.0,0.0,0.1
1446038354431031873,20,1446038354427903890,robocape,-17.629762938,-13.0717294678,-122.398810492,0.0,10.0,0.0,0.0,0.0,10.0,0.0,0.0,0.0,10.0,0.120774355435,0.346077783656,-1.60415508261,1.0,0.0,0.0,0.0,1.0,0.0,0.0,0.0,1.0,-0.589174804688,-1.86093017578,7.98978515625,0.1,0.0,0.0,0.0,0.1,0.0,0.0,0.0,0.1
1446038354459415832,21,1446038354456410884,robocape,-16.4990821753,-13.1899223292,-124.709857373,0.0,10.0,0.0,0.0,0.0,10.0,0.0,0.0,0.0,10.0,0.241415552816,0.323041440227,-1.53664394898,1.0,0.0,0.0,0.0,1.0,0.0,0.0,0.0,1.0,-0.767603759766,-0.875379638672,7.85446655273,0.1,0.0,0.0,0.0,0.1,0.0,0.0,0.0,0.1
1446038354493134957,22,1446038354489804983,robocape,-15.3064912776,-13.1883788614,-127.014773558,0.0,10.0,0.0,0.0,0.0,10.0,0.0,0.0,0.0,10.0,0.286822449402,0.35153726389,-1.46593702203,1.0,0.0,0.0,0.0,1.0,0.0,0.0,0.0,1.0,-0.789158935547,-1.38791381836,7.96822998047,0.1,0.0,0.0,0.0,0.1,0.0,0.0,0.0,0.1
1446038354526601832,23,1446038354523164987,robocape,-13.794197617,-13.1419547574,-129.338989966,0.0,10.0,0.0,0.0,0.0,10.0,0.0,0.0,0.0,10.0,0.468450035745,0.341816725912,-1.4042848428,1.0,0.0,0.0,0.0,1.0,0.0,0.0,0.0,1.0,-0.952020263672,-1.31726074219,8.04606811523,0.1,0.0,0.0,0.0,0.1,0.0,0.0,0.0,0.1
1446038354559430748,24,1446038354556417942,robocape,-12.1482192315,-13.2027212353,-131.597344466,0.0,10.0,0.0,0.0,0.0,10.0,0.0,0.0,0.0,10.0,0.572446476313,0.235556598418,-1.24968834152,1.0,0.0,0.0,0.0,1.0,0.0,0.0,0.0,1.0,-1.18673217773,0.0634680175781,7.69639526367,0.1,0.0,0.0,0.0,0.1,0.0,0.0,0.0,0.1
1446038354593105707,25,1446038354589751958,robocape,-11.0116747818,-13.1799922254,-133.713148316,0.0,10.0,0.0,0.0,0.0,10.0,0.0,0.0,0.0,10.0,0.352868844435,0.224504479894,-0.987633290256,1.0,0.0,0.0,0.0,1.0,0.0,0.0,0.0,1.0,-1.61783569336,0.467028808594,7.50599121094,0.1,0.0,0.0,0.0,0.1,0.0,0.0,0.0,0.1
1446038354626519040,26,1446038354622963905,robocape,-10.9902417882,-13.2790656015,-135.472926577,0.0,10.0,0.0,0.0,0.0,10.0,0.0,0.0,0.0,10.0,-0.104129598622,0.0913464253897,-0.279631914458,1.0,0.0,0.0,0.0,1.0,0.0,0.0,0.0,1.0,-0.484991455078,1.23583007813,7.46407836914,0.1,0.0,0.0,0.0,0.1,0.0,0.0,0.0,0.1
1446038354659505082,27,1446038354656409025,robocape,-11.1198119004,-13.126952283,-137.140652559,0.0,10.0,0.0,0.0,0.0,10.0,0.0,0.0,0.0,10.0,-0.101066963369,0.188285489069,0.246475558887,1.0,0.0,0.0,0.0,1.0,0.0,0.0,0.0,1.0,-0.05748046875,-1.4908996582,8.22449707031,0.1,0.0,0.0,0.0,0.1,0.0,0.0,0.0,0.1
1446038354693073290,28,1446038354689776897,robocape,-11.0209984123,-12.4912365164,-138.955408018,0.0,10.0,0.0,0.0,0.0,10.0,0.0,0.0,0.0,10.0,-0.00226368692657,0.448343169515,0.180029689689,1.0,0.0,0.0,0.0,1.0,0.0,0.0,0.0,1.0,-0.225131835938,-0.367635498047,9.10107421875,0.1,0.0,0.0,0.0,0.1,0.0,0.0,0.0,0.1
1446038354726847207,29,1446038354722970008,robocape,-10.9027847717,-11.6454737513,-140.9017687,0.0,10.0,0.0,0.0,0.0,10.0,0.0,0.0,0.0,10.0,-0.0464721610219,0.581900698182,-0.172572838637,1.0,0.0,0.0,0.0,1.0,0.0,0.0,0.0,1.0,-0.244291992188,0.398770751953,9.6219909668,0.1,0.0,0.0,0.0,0.1,0.0,0.0,0.0,0.1
1446038354759445373,30,1446038354756371021,robocape,-10.8191915642,-10.7354362732,-142.921642482,0.0,10.0,0.0,0.0,0.0,10.0,0.0,0.0,0.0,10.0,-0.0960069572974,0.633299707221,-0.446212640643,1.0,0.0,0.0,0.0,1.0,0.0,0.0,0.0,1.0,-0.805924072266,0.864602050781,9.24238037109,0.1,0.0,0.0,0.0,0.1,0.0,0.0,0.0,0.1
1446038354793082707,31,1446038354789680957,robocape,-10.8021648488,-10.0566371402,-144.95909524,0.0,10.0,0.0,0.0,0.0,10.0,0.0,0.0,0.0,10.0,-0.15020228548,0.528504318326,-0.698280837819,1.0,0.0,0.0,0.0,1.0,0.0,0.0,0.0,1.0,-2.00702636719,0.270637207031,8.91426269531,0.1,0.0,0.0,0.0,0.1,0.0,0.0,0.0,0.1
1446038354826394290,32,1446038354823090076,robocape,-10.5557432073,-9.82131667029,-146.973437241,0.0,10.0,0.0,0.0,0.0,10.0,0.0,0.0,0.0,10.0,-0.0175768631945,0.293080877963,-0.695617676729,1.0,0.0,0.0,0.0,1.0,0.0,0.0,0.0,1.0,-2.71954467773,-0.572409667969,8.90947265625,0.1,0.0,0.0,0.0,0.1,0.0,0.0,0.0,0.1
1446038354859561040,33,1446038354856561899,robocape,-10.0927784893,-9.81935090286,-148.947656968,0.0,10.0,0.0,0.0,0.0,10.0,0.0,0.0,0.0,10.0,0.137019638085,0.14101437972,-0.369646759303,1.0,0.0,0.0,0.0,1.0,0.0,0.0,0.0,1.0,-2.62374389648,-0.896934814453,9.45673461914,0.1,0.0,0.0,0.0,0.1,0.0,0.0,0.0,0.1
1446038354893069749,34,1446038354889715909,robocape,-9.61786067992,-9.95245159797,-150.880522947,0.0,10.0,0.0,0.0,0.0,10.0,0.0,0.0,0.0,10.0,0.18242653467,0.0386158358061,-0.0111852765783,1.0,0.0,0.0,0.0,1.0,0.0,0.0,0.0,1.0,-2.44291992188,-0.511336669922,10.0219592285,0.1,0.0,0.0,0.0,0.1,0.0,0.0,0.0,0.1
1446038354926605124,35,1446038354923290014,robocape,-9.13770382803,-10.1040776756,-152.802494793,0.0,10.0,0.0,0.0,0.0,10.0,0.0,0.0,0.0,10.0,0.213718677479,0.00479368996214,0.283626656093,1.0,0.0,0.0,0.0,1.0,0.0,0.0,0.0,1.0,-1.65974853516,0.32572265625,11.0410400391,0.1,0.0,0.0,0.0,0.1,0.0,0.0,0.0,0.1
1446038354959645582,36,1446038354956612110,robocape,-8.79476852649,-9.67451318877,-154.777341884,0.0,10.0,0.0,0.0,0.0,10.0,0.0,0.0,0.0,10.0,0.155129133497,0.295610880999,0.458463181657,1.0,0.0,0.0,0.0,1.0,0.0,0.0,0.0,1.0,-0.650247802734,1.92799072266,12.2792651367,0.1,0.0,0.0,0.0,0.1,0.0,0.0,0.0,0.1
1446038354992857707,37,1446038354989651918,robocape,-8.59592802064,-8.83130125569,-156.80150508,0.0,10.0,0.0,0.0,0.0,10.0,0.0,0.0,0.0,10.0,0.0748348266312,0.51146008735,0.422377348887,1.0,0.0,0.0,0.0,1.0,0.0,0.0,0.0,1.0,-0.597557373047,-1.25858276367,12.8157495117,0.1,0.0,0.0,0.0,0.1,0.0,0.0,0.0,0.1
1446038355026495707,38,1446038355023072004,robocape,-7.90417924446,-8.04579585971,-158.889090312,0.0,10.0,0.0,0.0,0.0,10.0,0.0,0.0,0.0,10.0,0.316117221392,0.486160056994,0.23768712729,1.0,0.0,0.0,0.0,1.0,0.0,0.0,0.0,1.0,-1.45018432617,-0.13412109375,13.1714099121,0.1,0.0,0.0,0.0,0.1,0.0,0.0,0.0,0.1
1446038355059686165,39,1446038355056545972,robocape,-7.68337296411,-7.61016810263,-160.923956702,0.0,10.0,0.0,0.0,0.0,10.0,0.0,0.0,0.0,10.0,0.067644291688,0.302535099833,0.156194397933,1.0,0.0,0.0,0.0,1.0,0.0,0.0,0.0,1.0,-2.13755493164,1.01189575195,14.0000866699,0.1,0.0,0.0,0.0,0.1,0.0,0.0,0.0,0.1
1446038355092833707,40,1446038355089720964,robocape,-7.15724253034,-7.56371031146,-162.97032061,0.0,10.0,0.0,0.0,0.0,10.0,0.0,0.0,0.0,10.0,0.219044999659,0.09933590866,0.0521979573656,1.0,0.0,0.0,0.0,1.0,0.0,0.0,0.0,1.0,-2.31598388672,-0.825084228516,14.4311901855,0.1,0.0,0.0,0.0,0.1,0.0,0.0,0.0,0.1
1446038355126543249,41,1446038355123039007,robocape,-6.19389696219,-7.99032619547,-165.034235341,0.0,10.0,0.0,0.0,0.0,10.0,0.0,0.0,0.0,10.0,0.436758418773,-0.152599130462,-0.032490565299,1.0,0.0,0.0,0.0,1.0,0.0,0.0,0.0,1.0,-1.90284301758,0.949625244141,13.5306628418,0.1,0.0,0.0,0.0,0.1,0.0,0.0,0.0,0.1
1446038355159579957,42,1446038355156523942,robocape,-5.43031291516,-8.76840115589,-167.081910573,0.0,10.0,0.0,0.0,0.0,10.0,0.0,0.0,0.0,10.0,0.322109333845,-0.343414622566,-0.0659132369795,1.0,0.0,0.0,0.0,1.0,0.0,0.0,0.0,1.0,-0.580792236328,0.240699462891,13.6743640137,0.1,0.0,0.0,0.0,0.1,0.0,0.0,0.0,0.1
1446038355193395832,43,1446038355190119028,robocape,-4.86806102914,-9.19241157774,-169.152158676,0.0,10.0,0.0,0.0,0.0,10.0,0.0,0.0,0.0,10.0,0.204131297555,-0.162186510386,-0.118910142672,1.0,0.0,0.0,0.0,1.0,0.0,0.0,0.0,1.0,0.614322509766,0.637075195313,13.7438195801,0.1,0.0,0.0,0.0,0.1,0.0,0.0,0.0,0.1
1446038355226344582,44,1446038355223047018,robocape,-4.63736624141,-9.03754621147,-171.233548872,0.0,10.0,0.0,0.0,0.0,10.0,0.0,0.0,0.0,10.0,0.0315584589174,0.135288583376,-0.0765658813398,1.0,0.0,0.0,0.0,1.0,0.0,0.0,0.0,1.0,0.947230224609,0.514929199219,13.626463623,0.1,0.0,0.0,0.0,0.1,0.0,0.0,0.0,0.1
1446038355259448790,45,1446038355256375074,robocape,-4.62648685918,-8.51043998646,-173.320311939,0.0,10.0,0.0,0.0,0.0,10.0,0.0,0.0,0.0,10.0,-0.0805606229749,0.328234604352,-0.0757669330128,1.0,0.0,0.0,0.0,1.0,0.0,0.0,0.0,1.0,0.086220703125,0.0167651367188,13.0947692871,0.1,0.0,0.0,0.0,0.1,0.0,0.0,0.0,0.1
1446038355292812082,46,1446038355289748907,robocape,-4.56269970821,-8.03554062308,-175.413103572,0.0,10.0,0.0,0.0,0.0,10.0,0.0,0.0,0.0,10.0,-0.0581900698182,0.303467206215,-0.200269713974,1.0,0.0,0.0,0.0,1.0,0.0,0.0,0.0,1.0,-0.380808105469,0.352067871094,11.9906652832,0.1,0.0,0.0,0.0,0.1,0.0,0.0,0.0,0.1
1446038355326162957,47,1446038355323190927,robocape,-4.63426003987,-7.84206777795,-177.486744349,0.0,10.0,0.0,0.0,0.0,10.0,0.0,0.0,0.0,10.0,-0.125834361506,0.155395449606,-0.206927616699,1.0,0.0,0.0,0.0,1.0,0.0,0.0,0.0,1.0,-0.628692626953,0.878972167969,11.8924694824,0.1,0.0,0.0,0.0,0.1,0.0,0.0,0.0,0.1
1446038355359420374,48,1446038355356406927,robocape,-4.7961222839,-7.93915632295,-179.543957225,0.0,10.0,0.0,0.0,0.0,10.0,0.0,0.0,0.0,10.0,-0.172972312801,0.00359526747161,-0.208791829462,1.0,0.0,0.0,0.0,1.0,0.0,0.0,0.0,1.0,-0.456251220703,-0.482596435547,12.170291748,0.1,0.0,0.0,0.0,0.1,0.0,0.0,0.0,0.1
1446038355392787957,49,1446038355389827013,robocape,-4.8284106837,-8.06066924621,178.390224508,0.0,10.0,0.0,0.0,0.0,10.0,0.0,0.0,0.0,10.0,-0.113850136601,-0.00559263828917,-0.302135625669,1.0,0.0,0.0,0.0,1.0,0.0,0.0,0.0,1.0,-0.239501953125,-0.799936523438,11.766730957,0.1,0.0,0.0,0.0,0.1,0.0,0.0,0.0,0.1
1446038355431355082,50,1446038355428245067,robocape,-4.79972552422,-7.99709185143,176.3135054,0.0,10.0,0.0,0.0,0.0,10.0,0.0,0.0,0.0,10.0,-0.0922785317712,0.0960069572974,-0.431831570756,1.0,0.0,0.0,0.0,1.0,0.0,0.0,0.0,1.0,-0.531694335938,0.298179931641,11.3679602051,0.1,0.0,0.0,0.0,0.1,0.0,0.0,0.0,0.1
1446038355459429874,51,1446038355456418991,robocape,-4.80145348961,-7.86383125641,174.238856967,0.0,10.0,0.0,0.0,0.0,10.0,0.0,0.0,0.0,10.0,-0.105194863058,0.130228577305,-0.400805744057,1.0,0.0,0.0,0.0,1.0,0.0,0.0,0.0,1.0,-0.787961425781,-0.17244140625,11.0063122559,0.1,0.0,0.0,0.0,0.1,0.0,0.0,0.0,0.1
1446038355492700707,52,1446038355489687919,robocape,-4.64188112512,-7.65764488943,172.15626991,0.0,10.0,0.0,0.0,0.0,10.0,0.0,0.0,0.0,10.0,-0.0103863282513,0.160322297623,-0.267780847607,1.0,0.0,0.0,0.0,1.0,0.0,0.0,0.0,1.0,-0.990340576172,-0.180823974609,11.1033105469,0.1,0.0,0.0,0.0,0.1,0.0,0.0,0.0,0.1
1446038355526198082,53,1446038355523209095,robocape,-4.42097775254,-7.39041897916,170.078311732,0.0,10.0,0.0,0.0,0.0,10.0,0.0,0.0,0.0,10.0,0.0418116291142,0.176700738327,0.00452737385313,1.0,0.0,0.0,0.0,1.0,0.0,0.0,0.0,1.0,-1.4597644043,0.675395507813,11.3895153809,0.1,0.0,0.0,0.0,0.1,0.0,0.0,0.0,0.1
1446038355559623624,54,1446038355556540966,robocape,-4.33688529454,-7.28860763053,168.027989997,0.0,10.0,0.0,0.0,0.0,10.0,0.0,0.0,0.0,10.0,-0.0157126504315,0.0786964102118,0.207193932808,1.0,0.0,0.0,0.0,1.0,0.0,0.0,0.0,1.0,-2.40459960937,1.00471069336,11.3559851074,0.1,0.0,0.0,0.0,0.1,0.0,0.0,0.0,0.1
1446038355592812624,55,1446038355589742898,robocape,-4.35307518743,-7.5848892058,166.008974816,0.0,10.0,0.0,0.0,0.0,10.0,0.0,0.0,0.0,10.0,-0.068443240015,-0.133024896449,0.233026595382,1.0,0.0,0.0,0.0,1.0,0.0,0.0,0.0,1.0,-2.82372802734,0.255069580078,11.0242749023,0.1,0.0,0.0,0.0,0.1,0.0,0.0,0.0,0.1
1446038355626391207,56,1446038355623171091,robocape,-4.4389218674,-8.24298140306,164.018305145,0.0,10.0,0.0,0.0,0.0,10.0,0.0,0.0,0.0,10.0,-0.110388027184,-0.323973546608,0.216248680514,1.0,0.0,0.0,0.0,1.0,0.0,0.0,0.0,1.0,-2.21778808594,-0.0922082519531,10.1297351074,0.1,0.0,0.0,0.0,0.1,0.0,0.0,0.0,0.1
1446038355659469707,57,1446038355656393051,robocape,-4.45650440831,-8.87190703183,162.03585493,0.0,10.0,0.0,0.0,0.0,10.0,0.0,0.0,0.0,10.0,-0.0810932551929,-0.310391425049,0.194410759576,1.0,0.0,0.0,0.0,1.0,0.0,0.0,0.0,1.0,-0.63228515625,-1.35318603516,10.0686621094,0.1,0.0,0.0,0.0,0.1,0.0,0.0,0.0,0.1
1446038355692686041,58,1446038355689629077,robocape,-4.22073530373,-9.11214087535,160.036322225,0.0,10.0,0.0,0.0,0.0,10.0,0.0,0.0,0.0,10.0,0.0424774193868,-0.106659601658,0.114782242982,1.0,0.0,0.0,0.0,1.0,0.0,0.0,0.0,1.0,-0.0778381347656,-1.08494384766,9.86388793945,0.1,0.0,0.0,0.0,0.1,0.0,0.0,0.0,0.1
1446038355726236207,59,1446038355723025083,robocape,-3.84869515086,-8.941127206,158.027165534,0.0,10.0,0.0,0.0,0.0,10.0,0.0,0.0,0.0,10.0,0.104262756677,0.111186975511,-0.016911072922,1.0,0.0,0.0,0.0,1.0,0.0,0.0,0.0,1.0,-0.285007324219,-1.24062011719,10.0698596191,0.1,0.0,0.0,0.0,0.1,0.0,0.0,0.0,0.1
1446038355759445249,60,1446038355756369113,robocape,-3.31250172042,-8.46454720377,156.021088792,0.0,10.0,0.0,0.0,0.0,10.0,0.0,0.0,0.0,10.0,0.192812862922,0.266848741226,-0.0391484680242,1.0,0.0,0.0,0.0,1.0,0.0,0.0,0.0,1.0,-1.17116455078,0.100590820313,10.2566711426,0.1,0.0,0.0,0.0,0.1,0.0,0.0,0.0,0.1
1446038355792726291,61,1446038355789705038,robocape,-3.24528045156,-8.08214637008,154.083528291,0.0,10.0,0.0,0.0,0.0,10.0,0.0,0.0,0.0,10.0,-0.0356863586071,0.208658671408,0.117978036291,1.0,0.0,0.0,0.0,1.0,0.0,0.0,0.0,1.0,-1.91841064453,0.748443603516,10.463840332,0.1,0.0,0.0,0.0,0.1,0.0,0.0,0.0,0.1
1446038355826241582,62,1446038355823268890,robocape,-3.42633885331,-8.0753561545,152.194044286,0.0,10.0,0.0,0.0,0.0,10.0,0.0,0.0,0.0,10.0,-0.161387562059,0.00972053797879,0.163518090931,1.0,0.0,0.0,0.0,1.0,0.0,0.0,0.0,1.0,-3.11831542969,-0.433498535156,10.8590185547,0.1,0.0,0.0,0.0,0.1,0.0,0.0,0.0,0.1
1446038355859574416,63,1446038355856544971,robocape,-3.5692465922,-8.33055861221,150.32740385,0.0,10.0,0.0,0.0,0.0,10.0,0.0,0.0,0.0,10.0,-0.144609647191,-0.127698574269,0.139682799175,1.0,0.0,0.0,0.0,1.0,0.0,0.0,0.0,1.0,-1.32205078125,-0.990340576172,10.0471069336,0.1,0.0,0.0,0.0,0.1,0.0,0.0,0.0,0.1
1446038355892612124,64,1446038355889636039,robocape,-3.65112076019,-8.64827066108,148.486655497,0.0,10.0,0.0,0.0,0.0,10.0,0.0,0.0,0.0,10.0,-0.11265171411,-0.163917565094,0.170042835602,1.0,0.0,0.0,0.0,1.0,0.0,0.0,0.0,1.0,-1.19032470703,-1.19511474609,10.0722546387,0.1,0.0,0.0,0.0,0.1,0.0,0.0,0.0,0.1
1446038355926542374,65,1446038355923515081,robocape,-3.64621470327,-8.8557373593,146.65157637,0.0,10.0,0.0,0.0,0.0,10.0,0.0,0.0,0.0,10.0,-0.0748348266312,-0.103730124459,0.0833569421195,1.0,0.0,0.0,0.0,1.0,0.0,0.0,0.0,1.0,-0.623902587891,-0.849034423828,9.95609619141,0.1,0.0,0.0,0.0,0.1,0.0,0.0,0.0,0.1
1446038355959634582,66,1446038355956633090,robocape,-3.51089962094,-9.00815499732,144.825494442,0.0,10.0,0.0,0.0,0.0,10.0,0.0,0.0,0.0,10.0,-0.0106526443603,-0.0753674588492,0.0386158358061,1.0,0.0,0.0,0.0,1.0,0.0,0.0,0.0,1.0,-1.37234619141,-1.71363647461,10.6865771484,0.1,0.0,0.0,0.0,0.1,0.0,0.0,0.0,0.1
1446038355993899166,67,1446038355990648031,robocape,-3.24773627219,-9.24319588225,143.032664377,0.0,10.0,0.0,0.0,0.0,10.0,0.0,0.0,0.0,10.0,0.0620516533988,-0.127565416215,0.121573303762,1.0,0.0,0.0,0.0,1.0,0.0,0.0,0.0,1.0,-0.811911621094,0.231119384766,9.90819580078,0.1,0.0,0.0,0.0,0.1,0.0,0.0,0.0,0.1
1446038356026350041,68,1446038356023150920,robocape,-2.96033689367,-9.58042004913,141.271339197,0.0,10.0,0.0,0.0,0.0,10.0,0.0,0.0,0.0,10.0,0.0765658813398,-0.187486540742,0.153264920734,1.0,0.0,0.0,0.0,1.0,0.0,0.0,0.0,1.0,-1.16517700195,-0.0502954101563,10.0315393066,0.1,0.0,0.0,0.0,0.1,0.0,0.0,0.0,0.1
1446038356059860082,69,1446038356056765079,robocape,-2.75609881272,-10.0251343725,139.540195925,0.0,10.0,0.0,0.0,0.0,10.0,0.0,0.0,0.0,10.0,0.0311589847539,-0.247540823323,0.145142279409,1.0,0.0,0.0,0.0,1.0,0.0,0.0,0.0,1.0,-0.968785400391,-0.0323327636719,9.8483203125,0.1,0.0,0.0,0.0,0.1,0.0,0.0,0.0,0.1
1446038356092850707,70,1446038356089797019,robocape,-2.53697076064,-10.5167364592,137.822773018,0.0,10.0,0.0,0.0,0.0,10.0,0.0,0.0,0.0,10.0,0.033023197517,-0.274039276169,0.0988032764419,1.0,0.0,0.0,0.0,1.0,0.0,0.0,0.0,1.0,-0.877774658203,-0.0407153320313,10.1608703613,0.1,0.0,0.0,0.0,0.1,0.0,0.0,0.0,0.1
1446038356126399666,71,1446038356123197078,robocape,-2.4372081753,-11.047475928,136.132495608,0.0,10.0,0.0,0.0,0.0,10.0,0.0,0.0,0.0,10.0,-0.0339553038985,-0.296676145435,0.0723048235957,1.0,0.0,0.0,0.0,1.0,0.0,0.0,0.0,1.0,0.0502954101563,0.441881103516,10.172845459,0.1,0.0,0.0,0.0,0.1,0.0,0.0,0.0,0.1
1446038356159973374,72,1446038356156923055,robocape,-2.5311722987,-11.4530185205,134.481509221,0.0,10.0,0.0,0.0,0.0,10.0,0.0,0.0,0.0,10.0,-0.137818586412,-0.232094489,0.0611195470173,1.0,0.0,0.0,0.0,1.0,0.0,0.0,0.0,1.0,-0.399968261719,0.0790356445313,10.402767334,0.1,0.0,0.0,0.0,0.1,0.0,0.0,0.0,0.1
1446038356192778832,73,1446038356189718961,robocape,-2.55809292727,-11.755305479,132.835686303,0.0,10.0,0.0,0.0,0.0,10.0,0.0,0.0,0.0,10.0,-0.110654343293,-0.176301264163,-0.000133158054504,1.0,0.0,0.0,0.0,1.0,0.0,0.0,0.0,1.0,0.00598754882813,-0.634680175781,10.3836071777,0.1,0.0,0.0,0.0,0.1,0.0,0.0,0.0,0.1
1446038356226446041,74,1446038356223047018,robocape,-2.44102657787,-11.9561099571,131.176794677,0.0,10.0,0.0,0.0,0.0,10.0,0.0,0.0,0.0,10.0,-0.0464721610219,-0.119842249054,-0.0938764284253,1.0,0.0,0.0,0.0,1.0,0.0,0.0,0.0,1.0,-0.117355957031,-0.520916748047,10.0902172852,0.1,0.0,0.0,0.0,0.1,0.0,0.0,0.0,0.1
1446038356260194166,75,1446038356257157087,robocape,-2.32935159219,-12.1848360643,129.541657546,0.0,10.0,0.0,0.0,0.0,10.0,0.0,0.0,0.0,10.0,-0.050200586548,-0.136753321976,-0.0994690667145,1.0,0.0,0.0,0.0,1.0,0.0,0.0,0.0,1.0,-0.744851074219,-0.470621337891,9.96447875977,0.1,0.0,0.0,0.0,0.1,0.0,0.0,0.0,0.1
1446038356292670916,76,1446038356289654970,robocape,-2.2484096021,-12.5265506286,127.966024427,0.0,10.0,0.0,0.0,0.0,10.0,0.0,0.0,0.0,10.0,-0.0560595409462,-0.204930245882,-0.00572579634367,1.0,0.0,0.0,0.0,1.0,0.0,0.0,0.0,1.0,-0.24908203125,-1.46694946289,9.83275268555,0.1,0.0,0.0,0.0,0.1,0.0,0.0,0.0,0.1
1446038356326296374,77,1446038356323173999,robocape,-1.99080495306,-12.8828708816,126.420821238,0.0,10.0,0.0,0.0,0.0,10.0,0.0,0.0,0.0,10.0,0.0415453130052,-0.220376580204,0.0455400546404,1.0,0.0,0.0,0.0,1.0,0.0,0.0,0.0,1.0,-0.513731689453,-1.46934448242,9.94891113281,0.1,0.0,0.0,0.0,0.1,0.0,0.0,0.0,0.1
1446038356360016374,78,1446038356356950044,robocape,-1.60256153972,-13.2490153178,124.913780555,0.0,10.0,0.0,0.0,0.0,10.0,0.0,0.0,0.0,10.0,0.117445404072,-0.23475765009,0.10612696944,1.0,0.0,0.0,0.0,1.0,0.0,0.0,0.0,1.0,-0.931662597656,-0.847836914063,10.1488952637,0.1,0.0,0.0,0.0,0.1,0.0,0.0,0.0,0.1
1446038356392873416,79,1446038356389848947,robocape,-1.35377992251,-13.6520400183,123.473929535,0.0,10.0,0.0,0.0,0.0,10.0,0.0,0.0,0.0,10.0,0.0552605926191,-0.262587683482,0.180296005798,1.0,0.0,0.0,0.0,1.0,0.0,0.0,0.0,1.0,-0.684975585938,-0.0335302734375,10.0183666992,0.1,0.0,0.0,0.0,0.1,0.0,0.0,0.0,0.1
1446038356430648958,80,1446038356427341938,robocape,-1.38217513861,-14.1055886243,122.117473669,0.0,10.0,0.0,0.0,0.0,10.0,0.0,0.0,0.0,10.0,-0.0781637779938,-0.295877197108,0.256995045193,1.0,0.0,0.0,0.0,1.0,0.0,0.0,0.0,1.0,-0.690963134766,0.108973388672,9.89861572266,0.1,0.0,0.0,0.0,0.1,0.0,0.0,0.0,0.1
1446038356460440541,81,1446038356457360982,robocape,-1.53563027311,-14.6451399217,120.796453864,0.0,10.0,0.0,0.0,0.0,10.0,0.0,0.0,0.0,10.0,-0.144476489137,-0.343148306457,0.254331884103,1.0,0.0,0.0,0.0,1.0,0.0,0.0,0.0,1.0,-0.706530761719,-0.296982421875,9.93933105469,0.1,0.0,0.0,0.0,0.1,0.0,0.0,0.0,0.1
1446038356492683333,82,1446038356489644050,robocape,-1.60099702763,-15.2937286599,119.452419797,0.0,10.0,0.0,0.0,0.0,10.0,0.0,0.0,0.0,10.0,-0.11265171411,-0.398675215185,0.174303893346,1.0,0.0,0.0,0.0,1.0,0.0,0.0,0.0,1.0,4.76369384766,-0.829874267578,10.1465002441,0.1,0.0,0.0,0.0,0.1,0.0,0.0,0.0,0.1
1446038356526184666,83,1446038356523117065,robocape,-1.4242524173,-14.9000513277,118.061322416,0.0,10.0,0.0,0.0,0.0,10.0,0.0,0.0,0.0,10.0,-0.0110521185238,0.162585984549,-0.0149137021044,1.0,0.0,0.0,0.0,1.0,0.0,0.0,0.0,1.0,0.112565917969,-0.184416503906,11.0302624512,0.1,0.0,0.0,0.0,0.1,0.0,0.0,0.0,0.1
1446038356560876333,84,1446038356557008981,robocape,-1.29250819555,-14.5424638372,116.717720597,0.0,10.0,0.0,0.0,0.0,10.0,0.0,0.0,0.0,10.0,-0.0245010820287,0.141280695829,0.0167779148675,1.0,0.0,0.0,0.0,1.0,0.0,0.0,0.0,1.0,-0.434696044922,-0.749641113281,10.0997973633,0.1,0.0,0.0,0.0,0.1,0.0,0.0,0.0,0.1
1446038356592869416,85,1446038356589709997,robocape,-1.13325045894,-14.22639891,115.386931721,0.0,10.0,0.0,0.0,0.0,10.0,0.0,0.0,0.0,10.0,-0.00918790576077,0.120508039326,-0.00386158358061,1.0,0.0,0.0,0.0,1.0,0.0,0.0,0.0,1.0,-0.283809814453,-0.668210449219,10.1800305176,0.1,0.0,0.0,0.0,0.1,0.0,0.0,0.0,0.1
1446038356626397291,86,1446038356623188018,robocape,-0.962002050693,-13.9356496075,114.086654407,0.0,10.0,0.0,0.0,0.0,10.0,0.0,0.0,0.0,10.0,0.00266316109008,0.10612696944,0.00532632218016,1.0,0.0,0.0,0.0,1.0,0.0,0.0,0.0,1.0,0.108973388672,-0.801134033203,10.290201416,0.1,0.0,0.0,0.0,0.1,0.0,0.0,0.0,0.1
1446038356660014791,87,1446038356656950950,robocape,-0.806243388246,-13.6873355859,112.816337027,0.0,10.0,0.0,0.0,0.0,10.0,0.0,0.0,0.0,10.0,-0.00066579027252,0.0830906260105,0.0115847507418,1.0,0.0,0.0,0.0,1.0,0.0,0.0,0.0,1.0,0.336500244141,-0.352067871094,10.2123632813,0.1,0.0,0.0,0.0,0.1,0.0,0.0,0.0,0.1
1446038356692799916,88,1446038356689667940,robocape,-0.730298375059,-13.475220611,111.586061208,0.0,10.0,0.0,0.0,0.0,10.0,0.0,0.0,0.0,10.0,-0.0366184649886,0.0633832339439,0.0267647689553,1.0,0.0,0.0,0.0,1.0,0.0,0.0,0.0,1.0,0.311352539063,-0.729283447266,10.1081799316,0.1,0.0,0.0,0.0,0.1,0.0,0.0,0.0,0.1
1446038356726215416,89,1446038356722981929,robocape,-0.558593269632,-13.2423375561,110.362890157,0.0,10.0,0.0,0.0,0.0,10.0,0.0,0.0,0.0,10.0,0.0135821215594,0.0749679846857,0.0067910607797,1.0,0.0,0.0,0.0,1.0,0.0,0.0,0.0,1.0,0.225131835938,-1.24062011719,9.96208374023,0.1,0.0,0.0,0.0,0.1,0.0,0.0,0.0,0.1
1446038356760006583,90,1446038356756973028,robocape,-0.171320346703,-12.8964181686,109.14231325,0.0,10.0,0.0,0.0,0.0,10.0,0.0,0.0,0.0,10.0,0.127698574269,0.133957002831,-0.0134489635049,1.0,0.0,0.0,0.0,1.0,0.0,0.0,0.0,1.0,0.100590820313,-1.2298425293,9.96807128906,0.1,0.0,0.0,0.0,0.1,0.0,0.0,0.0,0.1
1446038356792786791,91,1446038356789635896,robocape,0.352967091278,-12.5682314447,107.924122593,0.0,10.0,0.0,0.0,0.0,10.0,0.0,0.0,0.0,10.0,0.20133497841,0.123437516525,-0.033289513626,1.0,0.0,0.0,0.0,1.0,0.0,0.0,0.0,1.0,-0.355660400391,-1.08135131836,10.4937780762,0.1,0.0,0.0,0.0,0.1,0.0,0.0,0.0,0.1
1446038356826176999,92,1446038356823205947,robocape,0.885514216238,-12.3603002481,106.752873602,0.0,10.0,0.0,0.0,0.0,10.0,0.0,0.0,0.0,10.0,0.216648154678,0.0557932248372,0.0105194863058,1.0,0.0,0.0,0.0,1.0,0.0,0.0,0.0,1.0,-1.33881591797,-1.02027832031,10.1465002441,0.1,0.0,0.0,0.0,0.1,0.0,0.0,0.0,0.1
1446038356859999916,93,1446038356856946945,robocape,1.44837265981,-12.1150581132,105.601378751,0.0,10.0,0.0,0.0,0.0,10.0,0.0,0.0,0.0,10.0,0.236488704799,0.0736364041407,0.00359526747161,1.0,0.0,0.0,0.0,1.0,0.0,0.0,0.0,1.0,-0.1916015625,-0.149688720703,10.2482885742,0.1,0.0,0.0,0.0,0.1,0.0,0.0,0.0,0.1
1446038356893081583,94,1446038356889981985,robocape,1.97849028298,-11.9167392246,104.456493718,0.0,10.0,0.0,0.0,0.0,10.0,0.0,0.0,0.0,10.0,0.22024342215,0.0479368996214,-0.0193079179031,1.0,0.0,0.0,0.0,1.0,0.0,0.0,0.0,1.0,0.0383203125,-0.117355957031,10.1740429688,0.1,0.0,0.0,0.0,0.1,0.0,0.0,0.0,0.1
1446038356926553041,95,1446038356923552989,robocape,2.44550876714,-11.7406965673,103.342309437,0.0,10.0,0.0,0.0,0.0,10.0,0.0,0.0,0.0,10.0,0.192413388758,0.034621094171,-0.0122505410144,1.0,0.0,0.0,0.0,1.0,0.0,0.0,0.0,1.0,0.0526904296875,-0.122145996094,10.132130127,0.1,0.0,0.0,0.0,0.1,0.0,0.0,0.0,0.1
1446038356960240375,96,1446038356957134008,robocape,2.91107532777,-11.5752571433,102.253292469,0.0,10.0,0.0,0.0,0.0,10.0,0.0,0.0,0.0,10.0,0.196274972339,0.0274305592278,-0.00705737688871,1.0,0.0,0.0,0.0,1.0,0.0,0.0,0.0,1.0,0.0443078613281,0.009580078125,10.1201550293,0.1,0.0,0.0,0.0,0.1,0.0,0.0,0.0,0.1
1446038356992863333,97,1446038356989789009,robocape,3.19579847804,-11.4152663685,101.207136979,0.0,10.0,0.0,0.0,0.0,10.0,0.0,0.0,0.0,10.0,0.106925917767,0.0246342400832,0.00426105774413,1.0,0.0,0.0,0.0,1.0,0.0,0.0,0.0,1.0,-0.131726074219,0.261057128906,10.1345251465,0.1,0.0,0.0,0.0,0.1,0.0,0.0,0.0,0.1
1446038357026184333,98,1446038357023052930,robocape,3.33190140671,-11.2607922726,100.194216376,0.0,10.0,0.0,0.0,0.0,10.0,0.0,0.0,0.0,10.0,0.03222424919,0.0226368692657,0.00652474467069,1.0,0.0,0.0,0.0,1.0,0.0,0.0,0.0,1.0,-0.086220703125,0.386795654297,10.1213525391,0.1,0.0,0.0,0.0,0.1,0.0,0.0,0.0,0.1
1446038357060881375,99,1446038357057826042,robocape,3.31986121051,-11.1131265641,99.2147595789,0.0,10.0,0.0,0.0,0.0,10.0,0.0,0.0,0.0,10.0,-0.0427437354958,0.0206394984481,0.0101200121423,1.0,0.0,0.0,0.0,1.0,0.0,0.0,0.0,1.0,-0.101788330078,0.270637207031,10.1093774414,0.1,0.0,0.0,0.0,0.1,0.0,0.0,0.0,0.1
1446038357092836791,100,1446038357089678049,robocape,3.20803181875,-10.9711516492,98.2636240293,0.0,10.0,0.0,0.0,0.0,10.0,0.0,0.0,0.0,10.0,-0.0932106381528,0.0194410759576,0.0125168571234,1.0,0.0,0.0,0.0,1.0,0.0,0.0,0.0,1.0,-0.0922082519531,-0.028740234375,10.157277832,0.1,0.0,0.0,0.0,0.1,0.0,0.0,0.0,0.1
1446038357126544083,101,1446038357123323917,robocape,3.06389428244,-10.8321728951,97.3388458275,0.0,10.0,0.0,0.0,0.0,10.0,0.0,0.0,0.0,10.0,-0.108124340257,0.0194410759576,0.0189084437396,1.0,0.0,0.0,0.0,1.0,0.0,0.0,0.0,1.0,-0.0814306640625,-0.258662109375,10.1333276367,0.1,0.0,0.0,0.0,0.1,0.0,0.0,0.0,0.1
1446038357160131791,102,1446038357157129049,robocape,2.94019626094,-10.6964123757,96.4309190745,0.0,10.0,0.0,0.0,0.0,10.0,0.0,0.0,0.0,10.0,-0.0965395895154,0.0190416017941,0.0187752856851,1.0,0.0,0.0,0.0,1.0,0.0,0.0,0.0,1.0,-0.0730480957031,-0.397573242188,10.1441052246,0.1,0.0,0.0,0.0,0.1,0.0,0.0,0.0,0.1
1446038357192980625,103,1446038357189713954,robocape,2.85090616457,-10.5634749756,95.5383971611,0.0,10.0,0.0,0.0,0.0,10.0,0.0,0.0,0.0,10.0,-0.0776311457758,0.0186421276306,0.0183758115215,1.0,0.0,0.0,0.0,1.0,0.0,0.0,0.0,1.0,-0.0634680175781,-0.437091064453,10.1285375977,0.1,0.0,0.0,0.0,0.1,0.0,0.0,0.0,0.1
1446038357226227750,104,1446038357223011016,robocape,2.79448086763,-10.4321612313,94.6582933852,0.0,10.0,0.0,0.0,0.0,10.0,0.0,0.0,0.0,10.0,-0.0599211245268,0.0187752856851,0.0146473859954,1.0,0.0,0.0,0.0,1.0,0.0,0.0,0.0,1.0,-0.0969982910156,-0.450263671875,10.1213525391,0.1,0.0,0.0,0.0,0.1,0.0,0.0,0.0,0.1
1446038357260057625,105,1446038357257016897,robocape,2.76890183233,-10.3025299942,93.7889609108,0.0,10.0,0.0,0.0,0.0,10.0,0.0,0.0,0.0,10.0,-0.0434095257683,0.0187752856851,0.00932106381528,1.0,0.0,0.0,0.0,1.0,0.0,0.0,0.0,1.0,-0.240699462891,-0.501756591797,10.1967956543,0.1,0.0,0.0,0.0,0.1,0.0,0.0,0.0,0.1
1446038357293473208,106,1446038357290368080,robocape,2.77991038615,-10.1698679652,92.9361354457,0.0,10.0,0.0,0.0,0.0,10.0,0.0,0.0,0.0,10.0,-0.0227700273202,0.0210389726116,0.0107858024148,1.0,0.0,0.0,0.0,1.0,0.0,0.0,0.0,1.0,-0.1916015625,-0.511336669922,10.1357226563,0.1,0.0,0.0,0.0,0.1,0.0,0.0,0.0,0.1
1446038357326130458,107,1446038357323194026,robocape,2.86452725119,-10.0382910816,92.0931428215,0.0,10.0,0.0,0.0,0.0,10.0,0.0,0.0,0.0,10.0,0.0167779148675,0.0207726565026,0.00798948327024,1.0,0.0,0.0,0.0,1.0,0.0,0.0,0.0,1.0,-0.0275427246094,-0.510139160156,10.1069824219,0.1,0.0,0.0,0.0,0.1,0.0,0.0,0.0,0.1
1446038357360318708,108,1446038357357134103,robocape,3.01165675891,-9.90518861067,91.2585786864,0.0,10.0,0.0,0.0,0.0,10.0,0.0,0.0,0.0,10.0,0.050466902657,0.0217047628841,0.00306263525359,1.0,0.0,0.0,0.0,1.0,0.0,0.0,0.0,1.0,-0.047900390625,-0.432301025391,10.1309326172,0.1,0.0,0.0,0.0,0.1,0.0,0.0,0.0,0.1
1446038357392717708,109,1446038357389681100,robocape,3.18593218028,-9.77309973761,90.4339924521,0.0,10.0,0.0,0.0,0.0,10.0,0.0,0.0,0.0,10.0,0.065780078925,0.0213052887206,-0.00173105470855,1.0,0.0,0.0,0.0,1.0,0.0,0.0,0.0,1.0,-0.123343505859,-0.365240478516,10.1381176758,0.1,0.0,0.0,0.0,0.1,0.0,0.0,0.0,0.1
1446038357429602958,110,1446038357426510095,robocape,3.35596798252,-9.63995945254,89.6282492018,0.0,10.0,0.0,0.0,0.0,10.0,0.0,0.0,0.0,10.0,0.065780078925,0.0221042370477,0.00119842249054,1.0,0.0,0.0,0.0,1.0,0.0,0.0,0.0,1.0,-0.100590820313,-0.258662109375,10.1560803223,0.1,0.0,0.0,0.0,0.1,0.0,0.0,0.0,0.1
1446038357460240000,111,1446038357457123041,robocape,3.50274285656,-9.50812610173,88.8406908038,0.0,10.0,0.0,0.0,0.0,10.0,0.0,0.0,0.0,10.0,0.0555269087282,0.0218379209386,0.00292947719909,1.0,0.0,0.0,0.0,1.0,0.0,0.0,0.0,1.0,-0.130528564453,-0.178428955078,10.1237475586,0.1,0.0,0.0,0.0,0.1,0.0,0.0,0.0,0.1
1446038357492723458,112,1446038357489660978,robocape,3.61704894885,-9.37814905945,88.0699635636,0.0,10.0,0.0,0.0,0.0,10.0,0.0,0.0,0.0,10.0,0.0400805744057,0.0214384467751,0.0031957933081,1.0,0.0,0.0,0.0,1.0,0.0,0.0,0.0,1.0,-0.140108642578,-0.147293701172,10.136920166,0.1,0.0,0.0,0.0,0.1,0.0,0.0,0.0,0.1
1446038357526189666,113,1446038357523221015,robocape,3.69656815245,-9.2497804551,87.3162101905,0.0,10.0,0.0,0.0,0.0,10.0,0.0,0.0,0.0,10.0,0.0233026595382,0.0213052887206,0.00386158358061,1.0,0.0,0.0,0.0,1.0,0.0,0.0,0.0,1.0,-0.100590820313,-0.195194091797,10.136920166,0.1,0.0,0.0,0.0,0.1,0.0,0.0,0.0,0.1
1446038357559946833,114,1446038357556829929,robocape,3.75404157695,-9.12259270255,86.5793085705,0.0,10.0,0.0,0.0,0.0,10.0,0.0,0.0,0.0,10.0,0.0131826473959,0.0214384467751,0.00545948023466,1.0,0.0,0.0,0.0,1.0,0.0,0.0,0.0,1.0,-0.0718505859375,-0.239501953125,10.1345251465,0.1,0.0,0.0,0.0,0.1,0.0,0.0,0.0,0.1
1446038357592842666,115,1446038357589767932,robocape,3.79591795109,-8.99765652909,85.8589785807,0.0,10.0,0.0,0.0,0.0,10.0,0.0,0.0,0.0,10.0,0.00639158661619,0.0210389726116,0.00759000910673,1.0,0.0,0.0,0.0,1.0,0.0,0.0,0.0,1.0,-0.0922082519531,-0.233514404297,10.1381176758,0.1,0.0,0.0,0.0,0.1,0.0,0.0,0.0,0.1
1446038357626301542,116,1446038357623003959,robocape,3.82168182849,-8.87476099386,85.1527214722,0.0,10.0,0.0,0.0,0.0,10.0,0.0,0.0,0.0,10.0,-0.00106526443603,0.0207726565026,0.00759000910673,1.0,0.0,0.0,0.0,1.0,0.0,0.0,0.0,1.0,-0.120948486328,-0.241896972656,10.1333276367,0.1,0.0,0.0,0.0,0.1,0.0,0.0,0.0,0.1
1446038357660450417,117,1446038357657392024,robocape,3.83663170009,-8.75418326349,84.460702366,0.0,10.0,0.0,0.0,0.0,10.0,0.0,0.0,0.0,10.0,-0.00572579634367,0.0203731823391,0.00838895743375,1.0,0.0,0.0,0.0,1.0,0.0,0.0,0.0,1.0,-0.09580078125,-0.2682421875,10.1345251465,0.1,0.0,0.0,0.0,0.1,0.0,0.0,0.0,0.1
1446038357692971083,118,1446038357689796924,robocape,3.84895781264,-8.63533861199,83.7813765735,0.0,10.0,0.0,0.0,0.0,10.0,0.0,0.0,0.0,10.0,-0.00625842856169,0.0202400242846,0.00838895743375,1.0,0.0,0.0,0.0,1.0,0.0,0.0,0.0,1.0,-0.102985839844,-0.2682421875,10.1381176758,0.1,0.0,0.0,0.0,0.1,0.0,0.0,0.0,0.1
1446038357726205750,119,1446038357723007917,robocape,3.86027983916,-8.51743997981,83.1142715205,0.0,10.0,0.0,0.0,0.0,10.0,0.0,0.0,0.0,10.0,-0.00599211245268,0.0205063403936,0.00825579937925,1.0,0.0,0.0,0.0,1.0,0.0,0.0,0.0,1.0,-0.106578369141,-0.286204833984,10.1453027344,0.1,0.0,0.0,0.0,0.1,0.0,0.0,0.0,0.1
1446038357760218375,120,1446038357757036924,robocape,3.87188270345,-8.40197418329,82.4591639507,0.0,10.0,0.0,0.0,0.0,10.0,0.0,0.0,0.0,10.0,-0.00506000607115,0.0199737081756,0.00838895743375,1.0,0.0,0.0,0.0,1.0,0.0,0.0,0.0,1.0,-0.09580078125,-0.294587402344,10.1548828125,0.1,0.0,0.0,0.0,0.1,0.0,0.0,0.0,0.1
1446038357792711000,121,1446038357789690971,robocape,3.88627342368,-8.28709694056,81.8149356449,0.0,10.0,0.0,0.0,0.0,10.0,0.0,0.0,0.0,10.0,-0.00292947719909,0.0203731823391,0.00772316716123,1.0,0.0,0.0,0.0,1.0,0.0,0.0,0.0,1.0,-0.104183349609,-0.307760009766,10.1357226563,0.1,0.0,0.0,0.0,0.1,0.0,0.0,0.0,0.1
1446038357826114792,122,1446038357823050022,robocape,3.9017837832,-8.17206022015,81.1821722174,0.0,10.0,0.0,0.0,0.0,10.0,0.0,0.0,0.0,10.0,-0.00159789665405,0.0211721306661,0.00772316716123,1.0,0.0,0.0,0.0,1.0,0.0,0.0,0.0,1.0,-0.101788330078,-0.305364990234,10.1237475586,0.1,0.0,0.0,0.0,0.1,0.0,0.0,0.0,0.1
1446038357860049958,123,1446038357856997966,robocape,3.92103218701,-8.06008644939,80.560179298,0.0,10.0,0.0,0.0,0.0,10.0,0.0,0.0,0.0,10.0,0.00106526443603,0.0202400242846,0.00772316716123,1.0,0.0,0.0,0.0,1.0,0.0,0.0,0.0,1.0,-0.111368408203,-0.299377441406,10.1189575195,0.1,0.0,0.0,0.0,0.1,0.0,0.0,0.0,0.1
1446038357892774542,124,1446038357889791011,robocape,3.94172727631,-7.94813012407,79.9490648707,0.0,10.0,0.0,0.0,0.0,10.0,0.0,0.0,0.0,10.0,0.00253000303558,0.0209058145571,0.00772316716123,1.0,0.0,0.0,0.0,1.0,0.0,0.0,0.0,1.0,-0.105380859375,-0.310155029297,10.1333276367,0.1,0.0,0.0,0.0,0.1,0.0,0.0,0.0,0.1
1446038357926470625,125,1446038357923460006,robocape,3.96301265587,-7.83792490341,79.3479974811,0.0,10.0,0.0,0.0,0.0,10.0,0.0,0.0,0.0,10.0,0.0034621094171,0.0206394984481,0.00732369299772,1.0,0.0,0.0,0.0,1.0,0.0,0.0,0.0,1.0,-0.0993933105469,-0.300574951172,10.1429077148,0.1,0.0,0.0,0.0,0.1,0.0,0.0,0.0,0.1
1446038357959993708,126,1446038357956902027,robocape,3.98633000078,-7.72793483276,78.7572423134,0.0,10.0,0.0,0.0,0.0,10.0,0.0,0.0,0.0,10.0,0.00519316412565,0.0211721306661,0.00732369299772,1.0,0.0,0.0,0.0,1.0,0.0,0.0,0.0,1.0,-0.122145996094,-0.314945068359,10.1261425781,0.1,0.0,0.0,0.0,0.1,0.0,0.0,0.0,0.1
1446038357992726958,127,1446038357989716053,robocape,4.01181763907,-7.62139328561,78.1759480759,0.0,10.0,0.0,0.0,0.0,10.0,0.0,0.0,0.0,10.0,0.00692421883421,0.0199737081756,0.00705737688871,1.0,0.0,0.0,0.0,1.0,0.0,0.0,0.0,1.0,-0.102985839844,-0.299377441406,10.1417102051,0.1,0.0,0.0,0.0,0.1,0.0,0.0,0.0,0.1
1446038358026594833,128,1446038358023354053,robocape,4.03892345937,-7.51474473204,77.6043656004,0.0,10.0,0.0,0.0,0.0,10.0,0.0,0.0,0.0,10.0,0.00838895743375,0.0206394984481,0.00692421883421,1.0,0.0,0.0,0.0,1.0,0.0,0.0,0.0,1.0,-0.0946032714844,-0.308957519531,10.1237475586,0.1,0.0,0.0,0.0,0.1,0.0,0.0,0.0,0.1
1446038358060178958,129,1446038358057090997,robocape,4.06572853985,-7.40923391558,77.0419187061,0.0,10.0,0.0,0.0,0.0,10.0,0.0,0.0,0.0,10.0,0.00878843159726,0.0206394984481,0.00652474467069,1.0,0.0,0.0,0.0,1.0,0.0,0.0,0.0,1.0,-0.0946032714844,-0.313747558594,10.1620678711,0.1,0.0,0.0,0.0,0.1,0.0,0.0,0.0,0.1
1446038358093051833,130,1446038358089965105,robocape,4.09142900813,-7.30537225711,76.4888292088,0.0,10.0,0.0,0.0,0.0,10.0,0.0,0.0,0.0,10.0,0.00878843159726,0.0203731823391,0.00652474467069,1.0,0.0,0.0,0.0,1.0,0.0,0.0,0.0,1.0,-0.104183349609,-0.302969970703,10.1417102051,0.1,0.0,0.0,0.0,0.1,0.0,0.0,0.0,0.1
1446038358127521833,131,1446038358124495029,robocape,4.11533678175,-7.20263886305,75.9447870432,0.0,10.0,0.0,0.0,0.0,10.0,0.0,0.0,0.0,10.0,0.00838895743375,0.0203731823391,0.00639158661619,1.0,0.0,0.0,0.0,1.0,0.0,0.0,0.0,1.0,-0.0993933105469,-0.292192382813,10.1345251465,0.1,0.0,0.0,0.0,0.1,0.0,0.0,0.0,0.1
1446038358160125333,132,1446038358157035112,robocape,4.13514002482,-7.10156786878,75.410090995,0.0,10.0,0.0,0.0,0.0,10.0,0.0,0.0,0.0,10.0,0.0067910607797,0.0201068662301,0.0066579027252,1.0,0.0,0.0,0.0,1.0,0.0,0.0,0.0,1.0,-0.0993933105469,-0.269439697266,10.1393151855,0.1,0.0,0.0,0.0,0.1,0.0,0.0,0.0,0.1
1446038358192900875,133,1446038358189857959,robocape,4.15157796315,-7.00040093062,74.8849678921,0.0,10.0,0.0,0.0,0.0,10.0,0.0,0.0,0.0,10.0,0.00559263828917,0.0207726565026,0.00719053494321,1.0,0.0,0.0,0.0,1.0,0.0,0.0,0.0,1.0,-0.0969982910156,-0.285007324219,10.1225500488,0.1,0.0,0.0,0.0,0.1,0.0,0.0,0.0,0.1
1446038358226517167,134,1446038358223278045,robocape,4.16311813571,-6.90188546005,74.3682183751,0.0,10.0,0.0,0.0,0.0,10.0,0.0,0.0,0.0,10.0,0.0034621094171,0.0199737081756,0.00705737688871,1.0,0.0,0.0,0.0,1.0,0.0,0.0,0.0,1.0,-0.119750976563,-0.292192382813,10.1560803223,0.1,0.0,0.0,0.0,0.1,0.0,0.0,0.0,0.1
1446038358260316292,135,1446038358257262945,robocape,4.17229729039,-6.8037320078,73.8599014708,0.0,10.0,0.0,0.0,0.0,10.0,0.0,0.0,0.0,10.0,0.00266316109008,0.0203731823391,0.00705737688871,1.0,0.0,0.0,0.0,1.0,0.0,0.0,0.0,1.0,-0.0981958007813,-0.296982421875,10.1405126953,0.1,0.0,0.0,0.0,0.1,0.0,0.0,0.0,0.1
1446038358292798208,136,1446038358289722919,robocape,4.17983589913,-6.70645456052,73.3602323548,0.0,10.0,0.0,0.0,0.0,10.0,0.0,0.0,0.0,10.0,0.00226368692657,0.0205063403936,0.00745685105222,1.0,0.0,0.0,0.0,1.0,0.0,0.0,0.0,1.0,-0.102985839844,-0.307760009766,10.132130127,0.1,0.0,0.0,0.0,0.1,0.0,0.0,0.0,0.1
1446038358326126750,137,1446038358323158025,robocape,4.18882484181,-6.61127284083,72.8687913475,0.0,10.0,0.0,0.0,0.0,10.0,0.0,0.0,0.0,10.0,0.0034621094171,0.0199737081756,0.00785632521573,1.0,0.0,0.0,0.0,1.0,0.0,0.0,0.0,1.0,-0.09580078125,-0.313747558594,10.1453027344,0.1,0.0,0.0,0.0,0.1,0.0,0.0,0.0,0.1
1446038358360014792,138,1446038358356928110,robocape,4.20002993669,-6.51656451218,72.384026896,0.0,10.0,0.0,0.0,0.0,10.0,0.0,0.0,0.0,10.0,0.00492684801665,0.0202400242846,0.00705737688871,1.0,0.0,0.0,0.0,1.0,0.0,0.0,0.0,1.0,-0.100590820313,-0.313747558594,10.1393151855,0.1,0.0,0.0,0.0,0.1,0.0,0.0,0.0,0.1
1446038358392842375,139,1446038358389856100,robocape,4.21353646026,-6.42184970732,71.9067977041,0.0,10.0,0.0,0.0,0.0,10.0,0.0,0.0,0.0,10.0,0.00652474467069,0.0207726565026,0.00705737688871,1.0,0.0,0.0,0.0,1.0,0.0,0.0,0.0,1.0,-0.110170898438,-0.308957519531,10.1608703613,0.1,0.0,0.0,0.0,0.1,0.0,0.0,0.0,0.1
1446038358432959459,140,1446038358429832935,robocape,4.22865272664,-6.32734659774,71.4366039152,0.0,10.0,0.0,0.0,0.0,10.0,0.0,0.0,0.0,10.0,0.00772316716123,0.0211721306661,0.0067910607797,1.0,0.0,0.0,0.0,1.0,0.0,0.0,0.0,1.0,-0.101788330078,-0.307760009766,10.1345251465,0.1,0.0,0.0,0.0,0.1,0.0,0.0,0.0,0.1
1446038358460112084,141,1446038358456645965,robocape,4.24279162708,-6.23408924128,70.9737829699,0.0,10.0,0.0,0.0,0.0,10.0,0.0,0.0,0.0,10.0,0.00759000910673,0.0210389726116,0.00692421883421,1.0,0.0,0.0,0.0,1.0,0.0,0.0,0.0,1.0,-0.0910107421875,-0.300574951172,10.1225500488,0.1,0.0,0.0,0.0,0.1,0.0,0.0,0.0,0.1
1446038358492713875,142,1446038358489706993,robocape,4.25652980811,-6.14305543925,70.5178926921,0.0,10.0,0.0,0.0,0.0,10.0,0.0,0.0,0.0,10.0,0.00772316716123,0.0203731823391,0.00692421883421,1.0,0.0,0.0,0.0,1.0,0.0,0.0,0.0,1.0,-0.106578369141,-0.294587402344,10.1357226563,0.1,0.0,0.0,0.0,0.1,0.0,0.0,0.0,0.1
1446038358526217709,143,1446038358523068904,robocape,4.26812429471,-6.05398365293,70.0688559379,0.0,10.0,0.0,0.0,0.0,10.0,0.0,0.0,0.0,10.0,0.00692421883421,0.0198405501211,0.00692421883421,1.0,0.0,0.0,0.0,1.0,0.0,0.0,0.0,1.0,-0.102985839844,-0.288599853516,10.1381176758,0.1,0.0,0.0,0.0,0.1,0.0,0.0,0.0,0.1
1446038358560143792,144,1446038358556653976,robocape,4.27755698884,-5.96434980548,69.626907205,0.0,10.0,0.0,0.0,0.0,10.0,0.0,0.0,0.0,10.0,0.00612527050718,0.0206394984481,0.00705737688871,1.0,0.0,0.0,0.0,1.0,0.0,0.0,0.0,1.0,-0.0993933105469,-0.299377441406,10.1476977539,0.1,0.0,0.0,0.0,0.1,0.0,0.0,0.0,0.1
1446038358592845834,145,1446038358589761018,robocape,4.28361640324,-5.87617654102,69.1917562431,0.0,10.0,0.0,0.0,0.0,10.0,0.0,0.0,0.0,10.0,0.00466053190764,0.0203731823391,0.00719053494321,1.0,0.0,0.0,0.0,1.0,0.0,0.0,0.0,1.0,-0.107775878906,-0.290994873047,10.1476977539,0.1,0.0,0.0,0.0,0.1,0.0,0.0,0.0,0.1
1446038358626268584,146,1446038358622977972,robocape,4.28893949868,-5.78839887548,68.76273912,0.0,10.0,0.0,0.0,0.0,10.0,0.0,0.0,0.0,10.0,0.00452737385313,0.0206394984481,0.00692421883421,1.0,0.0,0.0,0.0,1.0,0.0,0.0,0.0,1.0,-0.110170898438,-0.288599853516,10.1237475586,0.1,0.0,0.0,0.0,0.1,0.0,0.0,0.0,0.1
1446038358660048042,147,1446038358656543970,robocape,4.29342654732,-5.70181056284,68.3405131076,0.0,10.0,0.0,0.0,0.0,10.0,0.0,0.0,0.0,10.0,0.00439421579863,0.0205063403936,0.00732369299772,1.0,0.0,0.0,0.0,1.0,0.0,0.0,0.0,1.0,-0.110170898438,-0.3065625,10.1213525391,0.1,0.0,0.0,0.0,0.1,0.0,0.0,0.0,0.1
1446038358692784667,148,1446038358689752101,robocape,4.29788752193,-5.6163801801,67.9247378727,0.0,10.0,0.0,0.0,0.0,10.0,0.0,0.0,0.0,10.0,0.00466053190764,0.0203731823391,0.00759000910673,1.0,0.0,0.0,0.0,1.0,0.0,0.0,0.0,1.0,-0.112565917969,-0.308957519531,10.1584753418,0.1,0.0,0.0,0.0,0.1,0.0,0.0,0.0,0.1
1446038358726036125,149,1446038358722985982,robocape,4.30162870567,-5.53157041544,67.5149955811,0.0,10.0,0.0,0.0,0.0,10.0,0.0,0.0,0.0,10.0,0.00452737385313,0.0205063403936,0.00759000910673,1.0,0.0,0.0,0.0,1.0,0.0,0.0,0.0,1.0,-0.101788330078,-0.308957519531,10.1488952637,0.1,0.0,0.0,0.0,0.1,0.0,0.0,0.0,0.1
1446038358760057834,150,1446038358756541967,robocape,4.30705064415,-5.44781386484,67.1103369871,0.0,10.0,0.0,0.0,0.0,10.0,0.0,0.0,0.0,10.0,0.00559263828917,0.0203731823391,0.00705737688871,1.0,0.0,0.0,0.0,1.0,0.0,0.0,0.0,1.0,-0.102985839844,-0.298179931641,10.1249450684,0.1,0.0,0.0,0.0,0.1,0.0,0.0,0.0,0.1
1446038358792813167,151,1446038358789777994,robocape,4.31256226601,-5.36462615257,66.7112601793,0.0,10.0,0.0,0.0,0.0,10.0,0.0,0.0,0.0,10.0,0.00585895439817,0.0205063403936,0.00692421883421,1.0,0.0,0.0,0.0,1.0,0.0,0.0,0.0,1.0,-0.102985839844,-0.304167480469,10.1476977539,0.1,0.0,0.0,0.0,0.1,0.0,0.0,0.0,0.1
1446038358826274750,152,1446038358823175907,robocape,4.31833297289,-5.28203432681,66.3183429995,0.0,10.0,0.0,0.0,0.0,10.0,0.0,0.0,0.0,10.0,0.00625842856169,0.0206394984481,0.00732369299772,1.0,0.0,0.0,0.0,1.0,0.0,0.0,0.0,1.0,-0.113763427734,-0.308957519531,10.1488952637,0.1,0.0,0.0,0.0,0.1,0.0,0.0,0.0,0.1
1446038358859958292,153,1446038358856544017,robocape,4.32314019862,-5.20027311827,65.931300843,0.0,10.0,0.0,0.0,0.0,10.0,0.0,0.0,0.0,10.0,0.00599211245268,0.0206394984481,0.00759000910673,1.0,0.0,0.0,0.0,1.0,0.0,0.0,0.0,1.0,-0.100590820313,-0.300574951172,10.1740429688,0.1,0.0,0.0,0.0,0.1,0.0,0.0,0.0,0.1
1446038358892767625,154,1446038358889782905,robocape,4.32708146545,-5.11980089794,65.5494342334,0.0,10.0,0.0,0.0,0.0,10.0,0.0,0.0,0.0,10.0,0.00572579634367,0.0203731823391,0.00745685105222,1.0,0.0,0.0,0.0,1.0,0.0,0.0,0.0,1.0,-0.107775878906,-0.316142578125,10.1453027344,0.1,0.0,0.0,0.0,0.1,0.0,0.0,0.0,0.1
1446038358926483375,155,1446038358923367977,robocape,4.33024419858,-5.04031681303,65.1721127663,0.0,10.0,0.0,0.0,0.0,10.0,0.0,0.0,0.0,10.0,0.00545948023466,0.0202400242846,0.00692421883421,1.0,0.0,0.0,0.0,1.0,0.0,0.0,0.0,1.0,-0.112565917969,-0.300574951172,10.1393151855,0.1,0.0,0.0,0.0,0.1,0.0,0.0,0.0,0.1
1446038358959957667,156,1446038358956466913,robocape,4.33279927132,-4.96134723856,64.7999848711,0.0,10.0,0.0,0.0,0.0,10.0,0.0,0.0,0.0,10.0,0.00532632218016,0.0203731823391,0.00692421883421,1.0,0.0,0.0,0.0,1.0,0.0,0.0,0.0,1.0,-0.113763427734,-0.298179931641,10.1405126953,0.1,0.0,0.0,0.0,0.1,0.0,0.0,0.0,0.1
1446038358993028209,157,1446038358990026950,robocape,4.33423351107,-4.88289567374,64.4331369874,0.0,10.0,0.0,0.0,0.0,10.0,0.0,0.0,0.0,10.0,0.00492684801665,0.0205063403936,0.00705737688871,1.0,0.0,0.0,0.0,1.0,0.0,0.0,0.0,1.0,-0.0946032714844,-0.300574951172,10.1333276367,0.1,0.0,0.0,0.0,0.1,0.0,0.0,0.0,0.1
1446038359026425626,158,1446038359023185968,robocape,4.33507085536,-4.80494943127,64.0714471979,0.0,10.0,0.0,0.0,0.0,10.0,0.0,0.0,0.0,10.0,0.00479368996214,0.0206394984481,0.00719053494321,1.0,0.0,0.0,0.0,1.0,0.0,0.0,0.0,1.0,-0.0910107421875,-0.310155029297,10.1488952637,0.1,0.0,0.0,0.0,0.1,0.0,0.0,0.0,0.1
1446038359060071792,159,1446038359056622028,robocape,4.33690203817,-4.72897702737,63.7142764635,0.0,10.0,0.0,0.0,0.0,10.0,0.0,0.0,0.0,10.0,0.00545948023466,0.0199737081756,0.00705737688871,1.0,0.0,0.0,0.0,1.0,0.0,0.0,0.0,1.0,-0.111368408203,-0.312550048828,10.1441052246,0.1,0.0,0.0,0.0,0.1,0.0,0.0,0.0,0.1
1446038359093326459,160,1446038359089997053,robocape,4.33895425968,-4.65243964947,63.3617618268,0.0,10.0,0.0,0.0,0.0,10.0,0.0,0.0,0.0,10.0,0.00572579634367,0.0206394984481,0.00692421883421,1.0,0.0,0.0,0.0,1.0,0.0,0.0,0.0,1.0,-0.105380859375,-0.305364990234,10.1536853027,0.1,0.0,0.0,0.0,0.1,0.0,0.0,0.0,0.1
1446038359126219751,161,1446038359122970104,robocape,4.33991054471,-4.57612973188,63.0143284713,0.0,10.0,0.0,0.0,0.0,10.0,0.0,0.0,0.0,10.0,0.00532632218016,0.0209058145571,0.00719053494321,1.0,0.0,0.0,0.0,1.0,0.0,0.0,0.0,1.0,-0.104183349609,-0.298179931641,10.1441052246,0.1,0.0,0.0,0.0,0.1,0.0,0.0,0.0,0.1
1446038359159997959,162,1446038359156883001,robocape,4.34167594212,-4.50122917462,62.6708034483,0.0,10.0,0.0,0.0,0.0,10.0,0.0,0.0,0.0,10.0,0.00585895439817,0.0205063403936,0.0067910607797,1.0,0.0,0.0,0.0,1.0,0.0,0.0,0.0,1.0,-0.104183349609,-0.305364990234,10.1261425781,0.1,0.0,0.0,0.0,0.1,0.0,0.0,0.0,0.1
1446038359193735417,163,1446038359189765930,robocape,4.34317471694,-4.42700559892,62.3317444166,0.0,10.0,0.0,0.0,0.0,10.0,0.0,0.0,0.0,10.0,0.00585895439817,0.0205063403936,0.0067910607797,1.0,0.0,0.0,0.0,1.0,0.0,0.0,0.0,1.0,-0.104183349609,-0.293389892578,10.1668579102,0.1,0.0,0.0,0.0,0.1,0.0,0.0,0.0,0.1
1446038359226285084,164,1446038359223053932,robocape,4.34496574587,-4.35341970569,61.9966769864,0.0,10.0,0.0,0.0,0.0,10.0,0.0,0.0,0.0,10.0,0.00612527050718,0.0205063403936,0.00652474467069,1.0,0.0,0.0,0.0,1.0,0.0,0.0,0.0,1.0,-0.0910107421875,-0.312550048828,10.1465002441,0.1,0.0,0.0,0.0,0.1,0.0,0.0,0.0,0.1
1446038359260025792,165,1446038359256659030,robocape,4.34595715175,-4.28001003475,61.6663294053,0.0,10.0,0.0,0.0,0.0,10.0,0.0,0.0,0.0,10.0,0.00585895439817,0.0207726565026,0.0067910607797,1.0,0.0,0.0,0.0,1.0,0.0,0.0,0.0,1.0,-0.106578369141,-0.294587402344,10.1536853027,0.1,0.0,0.0,0.0,0.1,0.0,0.0,0.0,0.1
1446038359299619876,166,1446038359296489953,robocape,4.34564849237,-4.20829757715,61.3406875849,0.0,10.0,0.0,0.0,0.0,10.0,0.0,0.0,0.0,10.0,0.00532632218016,0.0202400242846,0.00719053494321,1.0,0.0,0.0,0.0,1.0,0.0,0.0,0.0,1.0,-0.101788330078,-0.294587402344,10.1453027344,0.1,0.0,0.0,0.0,0.1,0.0,0.0,0.0,0.1
1446038359326259042,167,1446038359323157072,robocape,4.34534738071,-4.13621951818,61.0194246182,0.0,10.0,0.0,0.0,0.0,10.0,0.0,0.0,0.0,10.0,0.00545948023466,0.0207726565026,0.00732369299772,1.0,0.0,0.0,0.0,1.0,0.0,0.0,0.0,1.0,-0.0993933105469,-0.292192382813,10.1536853027,0.1,0.0,0.0,0.0,0.1,0.0,0.0,0.0,0.1
1446038359359938709,168,1446038359356874942,robocape,4.34431593211,-4.06553856042,60.7023315941,0.0,10.0,0.0,0.0,0.0,10.0,0.0,0.0,0.0,10.0,0.00519316412565,0.0203731823391,0.00745685105222,1.0,0.0,0.0,0.0,1.0,0.0,0.0,0.0,1.0,-0.0934057617188,-0.302969970703,10.1225500488,0.1,0.0,0.0,0.0,0.1,0.0,0.0,0.0,0.1
1446038359392820584,169,1446038359389847993,robocape,4.34439516235,-3.99594143727,60.3887396343,0.0,10.0,0.0,0.0,0.0,10.0,0.0,0.0,0.0,10.0,0.00585895439817,0.0201068662301,0.00719053494321,1.0,0.0,0.0,0.0,1.0,0.0,0.0,0.0,1.0,-0.09580078125,-0.296982421875,10.1357226563,0.1,0.0,0.0,0.0,0.1,0.0,0.0,0.0,0.1
1446038359435790417,170,1446038359432622909,robocape,4.34375499755,-3.92695590985,60.0792284512,0.0,10.0,0.0,0.0,0.0,10.0,0.0,0.0,0.0,10.0,0.00559263828917,0.0201068662301,0.00732369299772,1.0,0.0,0.0,0.0,1.0,0.0,0.0,0.0,1.0,-0.119750976563,-0.302969970703,10.1488952637,0.1,0.0,0.0,0.0,0.1,0.0,0.0,0.0,0.1
1446038359460054209,171,1446038359456959009,robocape,4.34171531911,-3.85726339014,59.7730837874,0.0,10.0,0.0,0.0,0.0,10.0,0.0,0.0,0.0,10.0,0.00492684801665,0.0207726565026,0.00692421883421,1.0,0.0,0.0,0.0,1.0,0.0,0.0,0.0,1.0,-0.104183349609,-0.295784912109,10.1285375977,0.1,0.0,0.0,0.0,0.1,0.0,0.0,0.0,0.1
1446038359492842292,172,1446038359489831924,robocape,4.34123883293,-3.78867933943,59.4709693386,0.0,10.0,0.0,0.0,0.0,10.0,0.0,0.0,0.0,10.0,0.00585895439817,0.0205063403936,0.00719053494321,1.0,0.0,0.0,0.0,1.0,0.0,0.0,0.0,1.0,-0.107775878906,-0.3065625,10.152487793,0.1,0.0,0.0,0.0,0.1,0.0,0.0,0.0,0.1
1446038359526089292,173,1446038359523109912,robocape,4.34033567738,-3.72041393771,59.172541199,0.0,10.0,0.0,0.0,0.0,10.0,0.0,0.0,0.0,10.0,0.00572579634367,0.0206394984481,0.00719053494321,1.0,0.0,0.0,0.0,1.0,0.0,0.0,0.0,1.0,-0.0934057617188,-0.305364990234,10.1608703613,0.1,0.0,0.0,0.0,0.1,0.0,0.0,0.0,0.1
1446038359559697042,174,1446038359556582927,robocape,4.33819843595,-3.65225098176,58.8783422551,0.0,10.0,0.0,0.0,0.0,10.0,0.0,0.0,0.0,10.0,0.00519316412565,0.0209058145571,0.00759000910673,1.0,0.0,0.0,0.0,1.0,0.0,0.0,0.0,1.0,-0.1149609375,-0.28740234375,10.1345251465,0.1,0.0,0.0,0.0,0.1,0.0,0.0,0.0,0.1
1446038359592988042,175,1446038359589900016,robocape,4.3370116072,-3.58457274659,58.5866761727,0.0,10.0,0.0,0.0,0.0,10.0,0.0,0.0,0.0,10.0,0.00572579634367,0.0209058145571,0.00692421883421,1.0,0.0,0.0,0.0,1.0,0.0,0.0,0.0,1.0,-0.104183349609,-0.305364990234,10.1429077148,0.1,0.0,0.0,0.0,0.1,0.0,0.0,0.0,0.1
1446038359626033584,176,1446038359622978925,robocape,4.3354274615,-3.5184504776,58.2983946279,0.0,10.0,0.0,0.0,0.0,10.0,0.0,0.0,0.0,10.0,0.00559263828917,0.0203731823391,0.00692421883421,1.0,0.0,0.0,0.0,1.0,0.0,0.0,0.0,1.0,-0.104183349609,-0.300574951172,10.1429077148,0.1,0.0,0.0,0.0,0.1,0.0,0.0,0.0,0.1
1446038359659995042,177,1446038359656907081,robocape,4.3337159347,-3.45234239847,58.0133564061,0.0,10.0,0.0,0.0,0.0,10.0,0.0,0.0,0.0,10.0,0.00559263828917,0.0206394984481,0.0067910607797,1.0,0.0,0.0,0.0,1.0,0.0,0.0,0.0,1.0,-0.0993933105469,-0.296982421875,10.1584753418,0.1,0.0,0.0,0.0,0.1,0.0,0.0,0.0,0.1
1446038359692890292,178,1446038359689698934,robocape,4.33210682048,-3.38727751366,57.7318003226,0.0,10.0,0.0,0.0,0.0,10.0,0.0,0.0,0.0,10.0,0.00572579634367,0.0203731823391,0.00692421883421,1.0,0.0,0.0,0.0,1.0,0.0,0.0,0.0,1.0,-0.0910107421875,-0.290994873047,10.1333276367,0.1,0.0,0.0,0.0,0.1,0.0,0.0,0.0,0.1
1446038359726144543,179,1446038359723081111,robocape,4.3291406647,-3.32320959207,57.4531157612,0.0,10.0,0.0,0.0,0.0,10.0,0.0,0.0,0.0,10.0,0.00506000607115,0.0201068662301,0.0066579027252,1.0,0.0,0.0,0.0,1.0,0.0,0.0,0.0,1.0,-0.102985839844,-0.3065625,10.1297351074,0.1,0.0,0.0,0.0,0.1,0.0,0.0,0.0,0.1
1446038359759906626,180,1446038359756875991,robocape,4.32625384558,-3.25893171591,57.1782848072,0.0,10.0,0.0,0.0,0.0,10.0,0.0,0.0,0.0,10.0,0.00519316412565,0.0205063403936,0.00705737688871,1.0,0.0,0.0,0.0,1.0,0.0,0.0,0.0,1.0,-0.110170898438,-0.299377441406,10.1309326172,0.1,0.0,0.0,0.0,0.1,0.0,0.0,0.0,0.1
1446038359792910376,181,1446038359789668083,robocape,4.32398329159,-3.19593622191,56.9069189072,0.0,10.0,0.0,0.0,0.0,10.0,0.0,0.0,0.0,10.0,0.00559263828917,0.0201068662301,0.00732369299772,1.0,0.0,0.0,0.0,1.0,0.0,0.0,0.0,1.0,-0.101788330078,-0.299377441406,10.1249450684,0.1,0.0,0.0,0.0,0.1,0.0,0.0,0.0,0.1
1446038359826287501,182,1446038359823148012,robocape,4.32112151263,-3.13214024866,56.6383640452,0.0,10.0,0.0,0.0,0.0,10.0,0.0,0.0,0.0,10.0,0.00532632218016,0.0207726565026,0.00705737688871,1.0,0.0,0.0,0.0,1.0,0.0,0.0,0.0,1.0,-0.105380859375,-0.301772460938,10.1668579102,0.1,0.0,0.0,0.0,0.1,0.0,0.0,0.0,0.1
1446038359861821001,183,1446038359858336925,robocape,4.31918985369,-3.06753613052,56.3725334288,0.0,10.0,0.0,0.0,0.0,10.0,0.0,0.0,0.0,10.0,0.00585895439817,0.0214384467751,0.0067910607797,1.0,0.0,0.0,0.0,1.0,0.0,0.0,0.0,1.0,-0.108973388672,-0.304167480469,10.1429077148,0.1,0.0,0.0,0.0,0.1,0.0,0.0,0.0,0.1
1446038359892733834,184,1446038359889750957,robocape,4.31713038796,-3.00546144045,56.1099250784,0.0,10.0,0.0,0.0,0.0,10.0,0.0,0.0,0.0,10.0,0.00585895439817,0.0203731823391,0.00705737688871,1.0,0.0,0.0,0.0,1.0,0.0,0.0,0.0,1.0,-0.108973388672,-0.305364990234,10.1417102051,0.1,0.0,0.0,0.0,0.1,0.0,0.0,0.0,0.1
1446038359926771501,185,1446038359923692941,robocape,4.31376679063,-2.9432950668,55.8495266508,0.0,10.0,0.0,0.0,0.0,10.0,0.0,0.0,0.0,10.0,0.00519316412565,0.0206394984481,0.00652474467069,1.0,0.0,0.0,0.0,1.0,0.0,0.0,0.0,1.0,-0.100590820313,-0.293389892578,10.136920166,0.1,0.0,0.0,0.0,0.1,0.0,0.0,0.0,0.1
1446038359960045751,186,1446038359956778049,robocape,4.31076284054,-2.88265636717,55.5927155485,0.0,10.0,0.0,0.0,0.0,10.0,0.0,0.0,0.0,10.0,0.00545948023466,0.0201068662301,0.00705737688871,1.0,0.0,0.0,0.0,1.0,0.0,0.0,0.0,1.0,-0.100590820313,-0.312550048828,10.1536853027,0.1,0.0,0.0,0.0,0.1,0.0,0.0,0.0,0.1
1446038359992836126,187,1446038359989825963,robocape,4.30667401535,-2.82195185448,55.3385961695,0.0,10.0,0.0,0.0,0.0,10.0,0.0,0.0,0.0,10.0,0.00492684801665,0.0203731823391,0.00692421883421,1.0,0.0,0.0,0.0,1.0,0.0,0.0,0.0,1.0,-0.0910107421875,-0.295784912109,10.1453027344,0.1,0.0,0.0,0.0,0.1,0.0,0.0,0.0,0.1
1446038360026308334,188,1446038360023166894,robocape,4.30353686657,-2.76218026514,55.0870001701,0.0,10.0,0.0,0.0,0.0,10.0,0.0,0.0,0.0,10.0,0.00545948023466,0.0201068662301,0.0067910607797,1.0,0.0,0.0,0.0,1.0,0.0,0.0,0.0,1.0,-0.0922082519531,-0.307760009766,10.1441052246,0.1,0.0,0.0,0.0,0.1,0.0,0.0,0.0,0.1
1446038360059878084,189,1446038360056634902,robocape,4.30057069475,-2.70208563102,54.8381933283,0.0,10.0,0.0,0.0,0.0,10.0,0.0,0.0,0.0,10.0,0.00559263828917,0.0205063403936,0.0067910607797,1.0,0.0,0.0,0.0,1.0,0.0,0.0,0.0,1.0,-0.107775878906,-0.302969970703,10.1512902832,0.1,0.0,0.0,0.0,0.1,0.0,0.0,0.0,0.1
1446038360092861334,190,1446038360089807033,robocape,4.2965137392,-2.64192107431,54.5921334604,0.0,10.0,0.0,0.0,0.0,10.0,0.0,0.0,0.0,10.0,0.00506000607115,0.0207726565026,0.0067910607797,1.0,0.0,0.0,0.0,1.0,0.0,0.0,0.0,1.0,-0.106578369141,-0.289797363281,10.136920166,0.1,0.0,0.0,0.0,0.1,0.0,0.0,0.0,0.1
1446038360126403709,191,1446038360123142957,robocape,4.29286967746,-2.58296976527,54.3490462094,0.0,10.0,0.0,0.0,0.0,10.0,0.0,0.0,0.0,10.0,0.00532632218016,0.0203731823391,0.00705737688871,1.0,0.0,0.0,0.0,1.0,0.0,0.0,0.0,1.0,-0.105380859375,-0.295784912109,10.1465002441,0.1,0.0,0.0,0.0,0.1,0.0,0.0,0.0,0.1
1446038360159958793,192,1446038360156583070,robocape,4.28963826935,-2.52446328061,54.1089430822,0.0,10.0,0.0,0.0,0.0,10.0,0.0,0.0,0.0,10.0,0.00559263828917,0.0203731823391,0.00732369299772,1.0,0.0,0.0,0.0,1.0,0.0,0.0,0.0,1.0,-0.0981958007813,-0.304167480469,10.1656604004,0.1,0.0,0.0,0.0,0.1,0.0,0.0,0.0,0.1
1446038360194331751,193,1446038360191163063,robocape,4.28607673711,-2.46638202905,53.8715918805,0.0,10.0,0.0,0.0,0.0,10.0,0.0,0.0,0.0,10.0,0.00545948023466,0.0203731823391,0.00745685105222,1.0,0.0,0.0,0.0,1.0,0.0,0.0,0.0,1.0,-0.100590820313,-0.300574951172,10.1488952637,0.1,0.0,0.0,0.0,0.1,0.0,0.0,0.0,0.1
1446038360226715959,194,1446038360223401069,robocape,4.28224261388,-2.40840814732,53.636163381,0.0,10.0,0.0,0.0,0.0,10.0,0.0,0.0,0.0,10.0,0.00532632218016,0.0205063403936,0.00705737688871,1.0,0.0,0.0,0.0,1.0,0.0,0.0,0.0,1.0,-0.0946032714844,-0.288599853516,10.1441052246,0.1,0.0,0.0,0.0,0.1,0.0,0.0,0.0,0.1
1446038360259918793,195,1446038360256563901,robocape,4.27907077594,-2.35062289038,53.4038087572,0.0,10.0,0.0,0.0,0.0,10.0,0.0,0.0,0.0,10.0,0.00572579634367,0.0206394984481,0.00745685105222,1.0,0.0,0.0,0.0,1.0,0.0,0.0,0.0,1.0,-0.108973388672,-0.3065625,10.132130127,0.1,0.0,0.0,0.0,0.1,0.0,0.0,0.0,0.1
1446038360293180418,196,1446038360290179014,robocape,4.27460983346,-2.29421437513,53.1734162822,0.0,10.0,0.0,0.0,0.0,10.0,0.0,0.0,0.0,10.0,0.00506000607115,0.0201068662301,0.00719053494321,1.0,0.0,0.0,0.0,1.0,0.0,0.0,0.0,1.0,-0.100590820313,-0.3065625,10.1548828125,0.1,0.0,0.0,0.0,0.1,0.0,0.0,0.0,0.1
1446038360326466959,197,1446038360323458909,robocape,4.27135156644,-2.23744346723,52.945642056,0.0,10.0,0.0,0.0,0.0,10.0,0.0,0.0,0.0,10.0,0.00572579634367,0.0205063403936,0.00732369299772,1.0,0.0,0.0,0.0,1.0,0.0,0.0,0.0,1.0,-0.100590820313,-0.283809814453,10.136920166,0.1,0.0,0.0,0.0,0.1,0.0,0.0,0.0,0.1
1446038360359880376,198,1446038360356528997,robocape,4.26809413996,-2.18099159137,52.7193986205,0.0,10.0,0.0,0.0,0.0,10.0,0.0,0.0,0.0,10.0,0.00572579634367,0.0205063403936,0.0067910607797,1.0,0.0,0.0,0.0,1.0,0.0,0.0,0.0,1.0,-0.0922082519531,-0.28740234375,10.1441052246,0.1,0.0,0.0,0.0,0.1,0.0,0.0,0.0,0.1
1446038360392770959,199,1446038360389763116,robocape,4.26451406872,-2.12544986443,52.4958376219,0.0,10.0,0.0,0.0,0.0,10.0,0.0,0.0,0.0,10.0,0.00559263828917,0.0202400242846,0.00705737688871,1.0,0.0,0.0,0.0,1.0,0.0,0.0,0.0,1.0,-0.119750976563,-0.290994873047,10.1536853027,0.1,0.0,0.0,0.0,0.1,0.0,0.0,0.0,0.1
1446038360430838585,200,1446038360427709102,robocape,4.26037019721,-2.06953381202,52.2748146096,0.0,10.0,0.0,0.0,0.0,10.0,0.0,0.0,0.0,10.0,0.00532632218016,0.0206394984481,0.00719053494321,1.0,0.0,0.0,0.0,1.0,0.0,0.0,0.0,1.0,-0.111368408203,-0.295784912109,10.1620678711,0.1,0.0,0.0,0.0,0.1,0.0,0.0,0.0,0.1
1446038360460100085,201,1446038360456708908,robocape,4.25569371807,-2.01396896929,52.0558264466,0.0,10.0,0.0,0.0,0.0,10.0,0.0,0.0,0.0,10.0,0.00506000607115,0.0206394984481,0.00705737688871,1.0,0.0,0.0,0.0,1.0,0.0,0.0,0.0,1.0,-0.09580078125,-0.292192382813,10.1536853027,0.1,0.0,0.0,0.0,0.1,0.0,0.0,0.0,0.1
1446038360492775751,202,1446038360489787101,robocape,4.25170726222,-1.95880786115,51.8396327614,0.0,10.0,0.0,0.0,0.0,10.0,0.0,0.0,0.0,10.0,0.00545948023466,0.0206394984481,0.00745685105222,1.0,0.0,0.0,0.0,1.0,0.0,0.0,0.0,1.0,-0.0993933105469,-0.298179931641,10.1345251465,0.1,0.0,0.0,0.0,0.1,0.0,0.0,0.0,0.1
1446038360526476418,203,1446038360523350000,robocape,4.24819599922,-1.90475613607,51.6255296929,0.0,10.0,0.0,0.0,0.0,10.0,0.0,0.0,0.0,10.0,0.00572579634367,0.0202400242846,0.00745685105222,1.0,0.0,0.0,0.0,1.0,0.0,0.0,0.0,1.0,-0.1149609375,-0.307760009766,10.1237475586,0.1,0.0,0.0,0.0,0.1,0.0,0.0,0.0,0.1
1446038360560155085,204,1446038360556633949,robocape,4.24417955125,-1.85100387075,51.4129425012,0.0,10.0,0.0,0.0,0.0,10.0,0.0,0.0,0.0,10.0,0.00545948023466,0.0202400242846,0.00705737688871,1.0,0.0,0.0,0.0,1.0,0.0,0.0,0.0,1.0,-0.120948486328,-0.3065625,10.152487793,0.1,0.0,0.0,0.0,0.1,0.0,0.0,0.0,0.1
1446038360592839585,205,1446038360589765071,robocape,4.24040780749,-1.79730748265,51.2020520969,0.0,10.0,0.0,0.0,0.0,10.0,0.0,0.0,0.0,10.0,0.00559263828917,0.0203731823391,0.0067910607797,1.0,0.0,0.0,0.0,1.0,0.0,0.0,0.0,1.0,-0.0981958007813,-0.292192382813,10.1548828125,0.1,0.0,0.0,0.0,0.1,0.0,0.0,0.0,0.1
1446038360627662501,206,1446038360623361110,robocape,4.23685492567,-1.74268326482,50.9933134346,0.0,10.0,0.0,0.0,0.0,10.0,0.0,0.0,0.0,10.0,0.00572579634367,0.0210389726116,0.0067910607797,1.0,0.0,0.0,0.0,1.0,0.0,0.0,0.0,1.0,-0.0874182128906,-0.289797363281,10.1788330078,0.1,0.0,0.0,0.0,0.1,0.0,0.0,0.0,0.1
1446038360659977960,207,1446038360656593084,robocape,4.23322704951,-1.69024056929,50.787505465,0.0,10.0,0.0,0.0,0.0,10.0,0.0,0.0,0.0,10.0,0.00572579634367,0.0201068662301,0.00745685105222,1.0,0.0,0.0,0.0,1.0,0.0,0.0,0.0,1.0,-0.106578369141,-0.300574951172,10.1345251465,0.1,0.0,0.0,0.0,0.1,0.0,0.0,0.0,0.1
1446038360692846251,208,1446038360689796924,robocape,4.2295836615,-1.63760021329,50.5835196168,0.0,10.0,0.0,0.0,0.0,10.0,0.0,0.0,0.0,10.0,0.00572579634367,0.0203731823391,0.00732369299772,1.0,0.0,0.0,0.0,1.0,0.0,0.0,0.0,1.0,-0.108973388672,-0.294587402344,10.1285375977,0.1,0.0,0.0,0.0,0.1,0.0,0.0,0.0,0.1
1446038360726064668,209,1446038360723026990,robocape,4.22519661695,-1.58471485212,50.3807182006,0.0,10.0,0.0,0.0,0.0,10.0,0.0,0.0,0.0,10.0,0.00532632218016,0.0206394984481,0.0067910607797,1.0,0.0,0.0,0.0,1.0,0.0,0.0,0.0,1.0,-0.117355957031,-0.301772460938,10.1333276367,0.1,0.0,0.0,0.0,0.1,0.0,0.0,0.0,0.1
1446038360759921543,210,1446038360756655931,robocape,4.22102334338,-1.53217967144,50.1802642786,0.0,10.0,0.0,0.0,0.0,10.0,0.0,0.0,0.0,10.0,0.00545948023466,0.0206394984481,0.00705737688871,1.0,0.0,0.0,0.0,1.0,0.0,0.0,0.0,1.0,-0.0886157226563,-0.307760009766,10.1297351074,0.1,0.0,0.0,0.0,0.1,0.0,0.0,0.0,0.1
1446038360793905335,211,1446038360789716958,robocape,4.21633046594,-1.48122339536,49.9816317618,0.0,10.0,0.0,0.0,0.0,10.0,0.0,0.0,0.0,10.0,0.00519316412565,0.0199737081756,0.00705737688871,1.0,0.0,0.0,0.0,1.0,0.0,0.0,0.0,1.0,-0.09580078125,-0.282612304688,10.1393151855,0.1,0.0,0.0,0.0,0.1,0.0,0.0,0.0,0.1
1446038360826263918,212,1446038360823169946,robocape,4.21185913063,-1.43060355895,49.7852869299,0.0,10.0,0.0,0.0,0.0,10.0,0.0,0.0,0.0,10.0,0.00532632218016,0.0199737081756,0.00732369299772,1.0,0.0,0.0,0.0,1.0,0.0,0.0,0.0,1.0,-0.0946032714844,-0.298179931641,10.1441052246,0.1,0.0,0.0,0.0,0.1,0.0,0.0,0.0,0.1
1446038360859714126,213,1446038360856410026,robocape,4.20915282049,-1.37925317627,49.5906236285,0.0,10.0,0.0,0.0,0.0,10.0,0.0,0.0,0.0,10.0,0.00625842856169,0.0205063403936,0.00719053494321,1.0,0.0,0.0,0.0,1.0,0.0,0.0,0.0,1.0,-0.0946032714844,-0.288599853516,10.1488952637,0.1,0.0,0.0,0.0,0.1,0.0,0.0,0.0,0.1
1446038360892833793,214,1446038360889833927,robocape,4.20440252135,-1.32795330998,49.3978286385,0.0,10.0,0.0,0.0,0.0,10.0,0.0,0.0,0.0,10.0,0.00519316412565,0.0206394984481,0.00719053494321,1.0,0.0,0.0,0.0,1.0,0.0,0.0,0.0,1.0,-0.102985839844,-0.288599853516,10.1297351074,0.1,0.0,0.0,0.0,0.1,0.0,0.0,0.0,0.1
1446038360926729710,215,1446038360923433065,robocape,4.20119672785,-1.27713614091,49.2059476,0.0,10.0,0.0,0.0,0.0,10.0,0.0,0.0,0.0,10.0,0.00599211245268,0.0205063403936,0.0066579027252,1.0,0.0,0.0,0.0,1.0,0.0,0.0,0.0,1.0,-0.102985839844,-0.301772460938,10.1429077148,0.1,0.0,0.0,0.0,0.1,0.0,0.0,0.0,0.1
1446038360959976626,216,1446038360956657886,robocape,4.19693683839,-1.22615462226,49.0165158503,0.0,10.0,0.0,0.0,0.0,10.0,0.0,0.0,0.0,10.0,0.00545948023466,0.0207726565026,0.00705737688871,1.0,0.0,0.0,0.0,1.0,0.0,0.0,0.0,1.0,-0.104183349609,-0.301772460938,10.1560803223,0.1,0.0,0.0,0.0,0.1,0.0,0.0,0.0,0.1
1446038360992825001,217,1446038360989830970,robocape,4.19237310665,-1.17554325298,48.8298732659,0.0,10.0,0.0,0.0,0.0,10.0,0.0,0.0,0.0,10.0,0.00532632218016,0.0207726565026,0.00772316716123,1.0,0.0,0.0,0.0,1.0,0.0,0.0,0.0,1.0,-0.09580078125,-0.310155029297,10.1429077148,0.1,0.0,0.0,0.0,0.1,0.0,0.0,0.0,0.1
1446038361026167918,218,1446038361023014068,robocape,4.18811508621,-1.12561006143,48.6434286796,0.0,10.0,0.0,0.0,0.0,10.0,0.0,0.0,0.0,10.0,0.00545948023466,0.0205063403936,0.0067910607797,1.0,0.0,0.0,0.0,1.0,0.0,0.0,0.0,1.0,-0.0969982910156,-0.296982421875,10.1129699707,0.1,0.0,0.0,0.0,0.1,0.0,0.0,0.0,0.1
1446038361059943668,219,1446038361056627988,robocape,4.18383508936,-1.07598891128,48.4590955262,0.0,10.0,0.0,0.0,0.0,10.0,0.0,0.0,0.0,10.0,0.00545948023466,0.0205063403936,0.00705737688871,1.0,0.0,0.0,0.0,1.0,0.0,0.0,0.0,1.0,-0.0981958007813,-0.288599853516,10.1656604004,0.1,0.0,0.0,0.0,0.1,0.0,0.0,0.0,0.1
1446038361092857626,220,1446038361089761018,robocape,4.17878987849,-1.02614013025,48.276472854,0.0,10.0,0.0,0.0,0.0,10.0,0.0,0.0,0.0,10.0,0.00506000607115,0.0207726565026,0.00705737688871,1.0,0.0,0.0,0.0,1.0,0.0,0.0,0.0,1.0,-0.0993933105469,-0.311352539063,10.1429077148,0.1,0.0,0.0,0.0,0.1,0.0,0.0,0.0,0.1
1446038361126529418,221,1446038361123277902,robocape,4.17271212764,-0.977628037072,48.0960642172,0.0,10.0,0.0,0.0,0.0,10.0,0.0,0.0,0.0,10.0,0.00452737385313,0.0202400242846,0.00745685105222,1.0,0.0,0.0,0.0,1.0,0.0,0.0,0.0,1.0,-0.102985839844,-0.301772460938,10.1345251465,0.1,0.0,0.0,0.0,0.1,0.0,0.0,0.0,0.1
1446038361159930418,222,1446038361156631946,robocape,4.16817104842,-0.928590538039,47.9168755716,0.0,10.0,0.0,0.0,0.0,10.0,0.0,0.0,0.0,10.0,0.00532632218016,0.0206394984481,0.00719053494321,1.0,0.0,0.0,0.0,1.0,0.0,0.0,0.0,1.0,-0.107775878906,-0.293389892578,10.132130127,0.1,0.0,0.0,0.0,0.1,0.0,0.0,0.0,0.1
1446038361194457168,223,1446038361189791917,robocape,4.16334145754,-0.879900421747,47.7403368144,0.0,10.0,0.0,0.0,0.0,10.0,0.0,0.0,0.0,10.0,0.00519316412565,0.0206394984481,0.00785632521573,1.0,0.0,0.0,0.0,1.0,0.0,0.0,0.0,1.0,-0.09580078125,-0.3065625,10.1309326172,0.1,0.0,0.0,0.0,0.1,0.0,0.0,0.0,0.1
1446038361226129168,224,1446038361223021984,robocape,4.15851691005,-0.832230622727,47.5653051165,0.0,10.0,0.0,0.0,0.0,10.0,0.0,0.0,0.0,10.0,0.00519316412565,0.0202400242846,0.00785632521573,1.0,0.0,0.0,0.0,1.0,0.0,0.0,0.0,1.0,-0.104183349609,-0.301772460938,10.1309326172,0.1,0.0,0.0,0.0,0.1,0.0,0.0,0.0,0.1
1446038361260102460,225,1446038361256757020,robocape,4.15474941207,-0.784716884749,47.390527215,0.0,10.0,0.0,0.0,0.0,10.0,0.0,0.0,0.0,10.0,0.00572579634367,0.0202400242846,0.00705737688871,1.0,0.0,0.0,0.0,1.0,0.0,0.0,0.0,1.0,-0.100590820313,-0.307760009766,10.1488952637,0.1,0.0,0.0,0.0,0.1,0.0,0.0,0.0,0.1
1446038361292967377,226,1446038361289953947,robocape,4.15049527267,-0.737154355324,47.2166642805,0.0,10.0,0.0,0.0,0.0,10.0,0.0,0.0,0.0,10.0,0.00545948023466,0.0203731823391,0.0066579027252,1.0,0.0,0.0,0.0,1.0,0.0,0.0,0.0,1.0,-0.09580078125,-0.310155029297,10.1213525391,0.1,0.0,0.0,0.0,0.1,0.0,0.0,0.0,0.1
1446038361326240168,227,1446038361323256015,robocape,4.14598334468,-0.689353419657,47.0445610884,0.0,10.0,0.0,0.0,0.0,10.0,0.0,0.0,0.0,10.0,0.00532632218016,0.0206394984481,0.0067910607797,1.0,0.0,0.0,0.0,1.0,0.0,0.0,0.0,1.0,-0.110170898438,-0.3065625,10.1177600098,0.1,0.0,0.0,0.0,0.1,0.0,0.0,0.0,0.1
1446038361359849085,228,1446038361356558084,robocape,4.14071242616,-0.642577708095,46.8741144062,0.0,10.0,0.0,0.0,0.0,10.0,0.0,0.0,0.0,10.0,0.00492684801665,0.0202400242846,0.00692421883421,1.0,0.0,0.0,0.0,1.0,0.0,0.0,0.0,1.0,-0.100590820313,-0.296982421875,10.132130127,0.1,0.0,0.0,0.0,0.1,0.0,0.0,0.0,0.1
1446038361392874543,229,1446038361389863014,robocape,4.13519116888,-0.595809974109,46.7053650411,0.0,10.0,0.0,0.0,0.0,10.0,0.0,0.0,0.0,10.0,0.00479368996214,0.0203731823391,0.00705737688871,1.0,0.0,0.0,0.0,1.0,0.0,0.0,0.0,1.0,-0.107775878906,-0.298179931641,10.132130127,0.1,0.0,0.0,0.0,0.1,0.0,0.0,0.0,0.1
1446038361431906002,230,1446038361428863048,robocape,4.13069186785,-0.54877634642,46.5380781186,0.0,10.0,0.0,0.0,0.0,10.0,0.0,0.0,0.0,10.0,0.00532632218016,0.0206394984481,0.00705737688871,1.0,0.0,0.0,0.0,1.0,0.0,0.0,0.0,1.0,-0.104183349609,-0.302969970703,10.1596728516,0.1,0.0,0.0,0.0,0.1,0.0,0.0,0.0,0.1
1446038361460056002,231,1446038361456599950,robocape,4.12569001087,-0.50275762377,46.3723811586,0.0,10.0,0.0,0.0,0.0,10.0,0.0,0.0,0.0,10.0,0.00506000607115,0.0202400242846,0.00719053494321,1.0,0.0,0.0,0.0,1.0,0.0,0.0,0.0,1.0,-0.101788330078,-0.288599853516,10.1333276367,0.1,0.0,0.0,0.0,0.1,0.0,0.0,0.0,0.1
1446038361493207502,232,1446038361490130901,robocape,4.12145787068,-0.456718402666,46.2080922118,0.0,10.0,0.0,0.0,0.0,10.0,0.0,0.0,0.0,10.0,0.00545948023466,0.0203731823391,0.00719053494321,1.0,0.0,0.0,0.0,1.0,0.0,0.0,0.0,1.0,-0.105380859375,-0.302969970703,10.1465002441,0.1,0.0,0.0,0.0,0.1,0.0,0.0,0.0,0.1
1446038361526433418,233,1446038361523364067,robocape,4.11800760486,-0.410353428802,46.0445677848,0.0,10.0,0.0,0.0,0.0,10.0,0.0,0.0,0.0,10.0,0.00585895439817,0.0206394984481,0.0067910607797,1.0,0.0,0.0,0.0,1.0,0.0,0.0,0.0,1.0,-0.0946032714844,-0.304167480469,10.1189575195,0.1,0.0,0.0,0.0,0.1,0.0,0.0,0.0,0.1
1446038361561141960,234,1446038361556582927,robocape,4.11378099471,-0.365059845963,45.8834402159,0.0,10.0,0.0,0.0,0.0,10.0,0.0,0.0,0.0,10.0,0.00545948023466,0.0202400242846,0.00745685105222,1.0,0.0,0.0,0.0,1.0,0.0,0.0,0.0,1.0,-0.101788330078,-0.304167480469,10.1357226563,0.1,0.0,0.0,0.0,0.1,0.0,0.0,0.0,0.1
1446038361592843335,235,1446038361589777946,robocape,4.1095692159,-0.319720752817,45.7234569385,0.0,10.0,0.0,0.0,0.0,10.0,0.0,0.0,0.0,10.0,0.00545948023466,0.0203731823391,0.00732369299772,1.0,0.0,0.0,0.0,1.0,0.0,0.0,0.0,1.0,-0.09580078125,-0.300574951172,10.1476977539,0.1,0.0,0.0,0.0,0.1,0.0,0.0,0.0,0.1
1446038361626149460,236,1446038361623095989,robocape,4.10562203276,-0.274855936831,45.5647782478,0.0,10.0,0.0,0.0,0.0,10.0,0.0,0.0,0.0,10.0,0.00559263828917,0.0202400242846,0.00732369299772,1.0,0.0,0.0,0.0,1.0,0.0,0.0,0.0,1.0,-0.104183349609,-0.305364990234,10.1309326172,0.1,0.0,0.0,0.0,0.1,0.0,0.0,0.0,0.1
1446038361660477752,237,1446038361656963109,robocape,4.10094085821,-0.228880207042,45.4066418996,0.0,10.0,0.0,0.0,0.0,10.0,0.0,0.0,0.0,10.0,0.00519316412565,0.0209058145571,0.0067910607797,1.0,0.0,0.0,0.0,1.0,0.0,0.0,0.0,1.0,-0.111368408203,-0.299377441406,10.1405126953,0.1,0.0,0.0,0.0,0.1,0.0,0.0,0.0,0.1
1446038361693072252,238,1446038361690015077,robocape,4.0957550556,-0.183934733141,45.2504012787,0.0,10.0,0.0,0.0,0.0,10.0,0.0,0.0,0.0,10.0,0.00492684801665,0.0205063403936,0.00719053494321,1.0,0.0,0.0,0.0,1.0,0.0,0.0,0.0,1.0,-0.110170898438,-0.296982421875,10.1249450684,0.1,0.0,0.0,0.0,0.1,0.0,0.0,0.0,0.1
1446038361726122460,239,1446038361723048925,robocape,4.09158770287,-0.140011629818,45.0960168358,0.0,10.0,0.0,0.0,0.0,10.0,0.0,0.0,0.0,10.0,0.00545948023466,0.0201068662301,0.00759000910673,1.0,0.0,0.0,0.0,1.0,0.0,0.0,0.0,1.0,-0.0993933105469,-0.289797363281,10.1405126953,0.1,0.0,0.0,0.0,0.1,0.0,0.0,0.0,0.1
1446038361759923543,240,1446038361756654024,robocape,4.08694988622,-0.095945672414,44.9416144978,0.0,10.0,0.0,0.0,0.0,10.0,0.0,0.0,0.0,10.0,0.00519316412565,0.0202400242846,0.0067910607797,1.0,0.0,0.0,0.0,1.0,0.0,0.0,0.0,1.0,-0.0993933105469,-0.301772460938,10.1476977539,0.1,0.0,0.0,0.0,0.1,0.0,0.0,0.0,0.1
1446038361793289877,241,1446038361790255069,robocape,4.08206508835,-0.050858048439,44.7889761985,0.0,10.0,0.0,0.0,0.0,10.0,0.0,0.0,0.0,10.0,0.00506000607115,0.0209058145571,0.00705737688871,1.0,0.0,0.0,0.0,1.0,0.0,0.0,0.0,1.0,-0.101788330078,-0.301772460938,10.1273400879,0.1,0.0,0.0,0.0,0.1,0.0,0.0,0.0,0.1
1446038361826342960,242,1446038361823369026,robocape,4.07794739052,-0.00704100299104,44.63813467,0.0,10.0,0.0,0.0,0.0,10.0,0.0,0.0,0.0,10.0,0.00545948023466,0.0203731823391,0.00745685105222,1.0,0.0,0.0,0.0,1.0,0.0,0.0,0.0,1.0,-0.117355957031,-0.298179931641,10.1381176758,0.1,0.0,0.0,0.0,0.1,0.0,0.0,0.0,0.1
1446038361861810919,243,1446038361858000040,robocape,4.07334426158,0.0368582199153,44.4880885272,0.0,10.0,0.0,0.0,0.0,10.0,0.0,0.0,0.0,10.0,0.00519316412565,0.0205063403936,0.00719053494321,1.0,0.0,0.0,0.0,1.0,0.0,0.0,0.0,1.0,-0.107775878906,-0.301772460938,10.1273400879,0.1,0.0,0.0,0.0,0.1,0.0,0.0,0.0,0.1
1446038361892910085,244,1446038361889880895,robocape,4.06926798114,0.0800670159469,44.3389785734,0.0,10.0,0.0,0.0,0.0,10.0,0.0,0.0,0.0,10.0,0.00545948023466,0.0202400242846,0.00705737688871,1.0,0.0,0.0,0.0,1.0,0.0,0.0,0.0,1.0,-0.104183349609,-0.301772460938,10.1656604004,0.1,0.0,0.0,0.0,0.1,0.0,0.0,0.0,0.1
1446038361926598210,245,1446038361923408031,robocape,4.0652044822,0.123314105774,44.1912810434,0.0,10.0,0.0,0.0,0.0,10.0,0.0,0.0,0.0,10.0,0.00545948023466,0.0203731823391,0.00719053494321,1.0,0.0,0.0,0.0,1.0,0.0,0.0,0.0,1.0,-0.0993933105469,-0.298179931641,10.1560803223,0.1,0.0,0.0,0.0,0.1,0.0,0.0,0.0,0.1
1446038361960328669,246,1446038361956650018,robocape,4.06140358313,0.165809355058,44.0453606926,0.0,10.0,0.0,0.0,0.0,10.0,0.0,0.0,0.0,10.0,0.00559263828917,0.0201068662301,0.00759000910673,1.0,0.0,0.0,0.0,1.0,0.0,0.0,0.0,1.0,-0.0934057617188,-0.305364990234,10.1309326172,0.1,0.0,0.0,0.0,0.1,0.0,0.0,0.0,0.1
1446038361992919335,247,1446038361989907979,robocape,4.05786749927,0.208332646745,43.9010318628,0.0,10.0,0.0,0.0,0.0,10.0,0.0,0.0,0.0,10.0,0.00572579634367,0.0202400242846,0.00785632521573,1.0,0.0,0.0,0.0,1.0,0.0,0.0,0.0,1.0,-0.112565917969,-0.314945068359,10.1297351074,0.1,0.0,0.0,0.0,0.1,0.0,0.0,0.0,0.1
1446038362027409544,248,1446038362024199008,robocape,4.05360071263,0.251019079156,43.756548894,0.0,10.0,0.0,0.0,0.0,10.0,0.0,0.0,0.0,10.0,0.00532632218016,0.0203731823391,0.00705737688871,1.0,0.0,0.0,0.0,1.0,0.0,0.0,0.0,1.0,-0.107775878906,-0.3065625,10.1465002441,0.1,0.0,0.0,0.0,0.1,0.0,0.0,0.0,0.1
1446038362059723377,249,1446038362056583881,robocape,4.05062025102,0.293281924696,43.6129368827,0.0,10.0,0.0,0.0,0.0,10.0,0.0,0.0,0.0,10.0,0.00599211245268,0.0202400242846,0.00692421883421,1.0,0.0,0.0,0.0,1.0,0.0,0.0,0.0,1.0,-0.105380859375,-0.312550048828,10.1465002441,0.1,0.0,0.0,0.0,0.1,0.0,0.0,0.0,0.1
1446038362092875335,250,1446038362089792966,robocape,4.04689106953,0.335324455584,43.4708773804,0.0,10.0,0.0,0.0,0.0,10.0,0.0,0.0,0.0,10.0,0.00559263828917,0.0202400242846,0.00719053494321,1.0,0.0,0.0,0.0,1.0,0.0,0.0,0.0,1.0,-0.100590820313,-0.3065625,10.1417102051,0.1,0.0,0.0,0.0,0.1,0.0,0.0,0.0,0.1
1446038362126808252,251,1446038362123703956,robocape,4.04292700622,0.376677130265,43.3298786454,0.0,10.0,0.0,0.0,0.0,10.0,0.0,0.0,0.0,10.0,0.00545948023466,0.0199737081756,0.00719053494321,1.0,0.0,0.0,0.0,1.0,0.0,0.0,0.0,1.0,-0.0993933105469,-0.304167480469,10.1333276367,0.1,0.0,0.0,0.0,0.1,0.0,0.0,0.0,0.1
1446038362159737294,252,1446038362156649112,robocape,4.03897742052,0.418304430804,43.1906452347,0.0,10.0,0.0,0.0,0.0,10.0,0.0,0.0,0.0,10.0,0.00545948023466,0.0202400242846,0.00759000910673,1.0,0.0,0.0,0.0,1.0,0.0,0.0,0.0,1.0,-0.105380859375,-0.289797363281,10.1441052246,0.1,0.0,0.0,0.0,0.1,0.0,0.0,0.0,0.1
1446038362192878752,253,1446038362189822912,robocape,4.0340383589,0.460829994706,43.0516730656,0.0,10.0,0.0,0.0,0.0,10.0,0.0,0.0,0.0,10.0,0.00492684801665,0.0207726565026,0.00705737688871,1.0,0.0,0.0,0.0,1.0,0.0,0.0,0.0,1.0,-0.100590820313,-0.305364990234,10.1393151855,0.1,0.0,0.0,0.0,0.1,0.0,0.0,0.0,0.1
1446038362226117377,254,1446038362223058938,robocape,4.03064279995,0.502703786836,42.9132644516,0.0,10.0,0.0,0.0,0.0,10.0,0.0,0.0,0.0,10.0,0.00572579634367,0.0205063403936,0.0067910607797,1.0,0.0,0.0,0.0,1.0,0.0,0.0,0.0,1.0,-0.107775878906,-0.154478759766,10.1584753418,0.1,0.0,0.0,0.0,0.1,0.0,0.0,0.0,0.1
1446038362259924294,255,1446038362256881952,robocape,4.02650570734,0.54364077503,42.7758570954,0.0,10.0,0.0,0.0,0.0,10.0,0.0,0.0,0.0,10.0,0.00532632218016,0.0201068662301,0.0067910607797,1.0,0.0,0.0,0.0,1.0,0.0,0.0,0.0,1.0,-0.107775878906,-0.289797363281,10.132130127,0.1,0.0,0.0,0.0,0.1,0.0,0.0,0.0,0.1
1446038362292830835,256,1446038362289768934,robocape,4.02213529411,0.584639875476,42.6397170535,0.0,10.0,0.0,0.0,0.0,10.0,0.0,0.0,0.0,10.0,0.00519316412565,0.0202400242846,0.00692421883421,1.0,0.0,0.0,0.0,1.0,0.0,0.0,0.0,1.0,-0.117355957031,-0.288599853516,10.1453027344,0.1,0.0,0.0,0.0,0.1,0.0,0.0,0.0,0.1
1446038362326251669,257,1446038362323156118,robocape,4.01854520949,0.62595632355,42.5048353354,0.0,10.0,0.0,0.0,0.0,10.0,0.0,0.0,0.0,10.0,0.00559263828917,0.0205063403936,0.00705737688871,1.0,0.0,0.0,0.0,1.0,0.0,0.0,0.0,1.0,-0.125738525391,-0.301772460938,10.1297351074,0.1,0.0,0.0,0.0,0.1,0.0,0.0,0.0,0.1
1446038362359891294,258,1446038362356870889,robocape,4.01497440035,0.666578661665,42.3711419615,0.0,10.0,0.0,0.0,0.0,10.0,0.0,0.0,0.0,10.0,0.00559263828917,0.0202400242846,0.00719053494321,1.0,0.0,0.0,0.0,1.0,0.0,0.0,0.0,1.0,-0.102985839844,-0.307760009766,10.1381176758,0.1,0.0,0.0,0.0,0.1,0.0,0.0,0.0,0.1
1446038362400016710,259,1446038362396629095,robocape,4.01091766474,0.7065269532,42.2384095625,0.0,10.0,0.0,0.0,0.0,10.0,0.0,0.0,0.0,10.0,0.00532632218016,0.0199737081756,0.00719053494321,1.0,0.0,0.0,0.0,1.0,0.0,0.0,0.0,1.0,-0.107775878906,-0.311352539063,10.1608703613,0.1,0.0,0.0,0.0,0.1,0.0,0.0,0.0,0.1
1446038362441715752,260,1446038362438572883,robocape,4.00738897118,0.747254341212,42.1075923797,0.0,10.0,0.0,0.0,0.0,10.0,0.0,0.0,0.0,10.0,0.00559263828917,0.0205063403936,0.00772316716123,1.0,0.0,0.0,0.0,1.0,0.0,0.0,0.0,1.0,-0.100590820313,-0.296982421875,10.1453027344,0.1,0.0,0.0,0.0,0.1,0.0,0.0,0.0,0.1
1446038362476387835,261,1446038362473134040,robocape,4.00413408271,0.78756390237,41.9777145868,0.0,10.0,0.0,0.0,0.0,10.0,0.0,0.0,0.0,10.0,0.00572579634367,0.0203731823391,0.00772316716123,1.0,0.0,0.0,0.0,1.0,0.0,0.0,0.0,1.0,-0.104183349609,-0.159268798828,10.136920166,0.1,0.0,0.0,0.0,0.1,0.0,0.0,0.0,0.1
1446038362508507461,262,1446038362505244016,robocape,4.00140403079,0.827780395366,41.847896498,0.0,10.0,0.0,0.0,0.0,10.0,0.0,0.0,0.0,10.0,0.00599211245268,0.0203731823391,0.00719053494321,1.0,0.0,0.0,0.0,1.0,0.0,0.0,0.0,1.0,-0.101788330078,-0.304167480469,10.136920166,0.1,0.0,0.0,0.0,0.1,0.0,0.0,0.0,0.1
1446038362539324836,263,1446038362536205053,robocape,3.99793532866,0.867749483287,41.720131261,0.0,10.0,0.0,0.0,0.0,10.0,0.0,0.0,0.0,10.0,0.00559263828917,0.0203731823391,0.00785632521573,1.0,0.0,0.0,0.0,1.0,0.0,0.0,0.0,1.0,-0.108973388672,-0.317340087891,10.132130127,0.1,0.0,0.0,0.0,0.1,0.0,0.0,0.0,0.1
1446038362571279419,264,1446038362567913055,robocape,3.99423143547,0.90614515827,41.5918709684,0.0,10.0,0.0,0.0,0.0,10.0,0.0,0.0,0.0,10.0,0.00545948023466,0.0195742340121,0.00705737688871,1.0,0.0,0.0,0.0,1.0,0.0,0.0,0.0,1.0,-0.101788330078,-0.301772460938,10.1465002441,0.1,0.0,0.0,0.0,0.1,0.0,0.0,0.0,0.1
1446038362604020711,265,1446038362600871086,robocape,3.99029651431,0.94590472298,41.4646301856,0.0,10.0,0.0,0.0,0.0,10.0,0.0,0.0,0.0,10.0,0.00532632218016,0.0203731823391,0.00705737688871,1.0,0.0,0.0,0.0,1.0,0.0,0.0,0.0,1.0,-0.0981958007813,-0.299377441406,10.1141674805,0.1,0.0,0.0,0.0,0.1,0.0,0.0,0.0,0.1
1446038362637327336,266,1446038362633874893,robocape,3.98537053842,0.987023730115,41.3384042437,0.0,10.0,0.0,0.0,0.0,10.0,0.0,0.0,0.0,10.0,0.00479368996214,0.0211721306661,0.00705737688871,1.0,0.0,0.0,0.0,1.0,0.0,0.0,0.0,1.0,-0.0934057617188,-0.296982421875,10.1465002441,0.1,0.0,0.0,0.0,0.1,0.0,0.0,0.0,0.1
1446038362670875836,267,1446038362667588949,robocape,3.98224281433,1.02646671783,41.2129630272,0.0,10.0,0.0,0.0,0.0,10.0,0.0,0.0,0.0,10.0,0.00572579634367,0.0203731823391,0.00705737688871,1.0,0.0,0.0,0.0,1.0,0.0,0.0,0.0,1.0,-0.108973388672,-0.300574951172,10.1453027344,0.1,0.0,0.0,0.0,0.1,0.0,0.0,0.0,0.1
1446038362702965419,268,1446038362699796915,robocape,3.97787248868,1.06572108102,41.0888665381,0.0,10.0,0.0,0.0,0.0,10.0,0.0,0.0,0.0,10.0,0.00506000607115,0.0203731823391,0.00732369299772,1.0,0.0,0.0,0.0,1.0,0.0,0.0,0.0,1.0,-0.105380859375,-0.296982421875,10.1417102051,0.1,0.0,0.0,0.0,0.1,0.0,0.0,0.0,0.1
1446038362726091336,269,1446038362723032951,robocape,3.97378560409,1.1042661193,40.9662767797,0.0,10.0,0.0,0.0,0.0,10.0,0.0,0.0,0.0,10.0,0.00519316412565,0.0201068662301,0.00772316716123,1.0,0.0,0.0,0.0,1.0,0.0,0.0,0.0,1.0,-0.105380859375,-0.301772460938,10.1488952637,0.1,0.0,0.0,0.0,0.1,0.0,0.0,0.0,0.1
1446038362759952544,270,1446038362756603956,robocape,3.97021533917,1.14406643501,40.8428458351,0.0,10.0,0.0,0.0,0.0,10.0,0.0,0.0,0.0,10.0,0.00545948023466,0.0207726565026,0.0066579027252,1.0,0.0,0.0,0.0,1.0,0.0,0.0,0.0,1.0,-0.107775878906,-0.289797363281,10.1512902832,0.1,0.0,0.0,0.0,0.1,0.0,0.0,0.0,0.1
1446038362793037794,271,1446038362790044069,robocape,3.96667309048,1.18265225769,40.7208807136,0.0,10.0,0.0,0.0,0.0,10.0,0.0,0.0,0.0,10.0,0.00545948023466,0.0202400242846,0.00705737688871,1.0,0.0,0.0,0.0,1.0,0.0,0.0,0.0,1.0,-0.102985839844,-0.299377441406,10.1465002441,0.1,0.0,0.0,0.0,0.1,0.0,0.0,0.0,0.1
1446038362826222086,272,1446038362823247909,robocape,3.96189004343,1.22056764007,40.599967641,0.0,10.0,0.0,0.0,0.0,10.0,0.0,0.0,0.0,10.0,0.00479368996214,0.0199737081756,0.00719053494321,1.0,0.0,0.0,0.0,1.0,0.0,0.0,0.0,1.0,-0.106578369141,-0.300574951172,10.1536853027,0.1,0.0,0.0,0.0,0.1,0.0,0.0,0.0,0.1
1446038362860026044,273,1446038362856880903,robocape,3.9576342878,1.25839183887,40.4792194793,0.0,10.0,0.0,0.0,0.0,10.0,0.0,0.0,0.0,10.0,0.00506000607115,0.0199737081756,0.0067910607797,1.0,0.0,0.0,0.0,1.0,0.0,0.0,0.0,1.0,-0.102985839844,-0.300574951172,10.1488952637,0.1,0.0,0.0,0.0,0.1,0.0,0.0,0.0,0.1
1446038362893338211,274,1446038362890324115,robocape,3.95441956273,1.2970692826,40.3595788165,0.0,10.0,0.0,0.0,0.0,10.0,0.0,0.0,0.0,10.0,0.00559263828917,0.0205063403936,0.00692421883421,1.0,0.0,0.0,0.0,1.0,0.0,0.0,0.0,1.0,-0.102985839844,-0.298179931641,10.152487793,0.1,0.0,0.0,0.0,0.1,0.0,0.0,0.0,0.1
1446038362926479836,275,1446038362923435926,robocape,3.9517466392,1.33501163295,40.2418380326,0.0,10.0,0.0,0.0,0.0,10.0,0.0,0.0,0.0,10.0,0.00585895439817,0.0202400242846,0.00759000910673,1.0,0.0,0.0,0.0,1.0,0.0,0.0,0.0,1.0,-0.0993933105469,-0.3065625,10.1393151855,0.1,0.0,0.0,0.0,0.1,0.0,0.0,0.0,0.1
1446038362959935002,276,1446038362956722974,robocape,3.9475727476,1.37283076318,40.1246941603,0.0,10.0,0.0,0.0,0.0,10.0,0.0,0.0,0.0,10.0,0.00506000607115,0.0202400242846,0.00745685105222,1.0,0.0,0.0,0.0,1.0,0.0,0.0,0.0,1.0,-0.106578369141,-0.308957519531,10.172845459,0.1,0.0,0.0,0.0,0.1,0.0,0.0,0.0,0.1
1446038362993477961,277,1446038362990366935,robocape,3.94493841826,1.41105309434,40.0079178583,0.0,10.0,0.0,0.0,0.0,10.0,0.0,0.0,0.0,10.0,0.00585895439817,0.0205063403936,0.00719053494321,1.0,0.0,0.0,0.0,1.0,0.0,0.0,0.0,1.0,-0.106578369141,-0.3065625,10.1560803223,0.1,0.0,0.0,0.0,0.1,0.0,0.0,0.0,0.1
1446038363026374002,278,1446038363023294925,robocape,3.94131511158,1.44861308962,39.8921350455,0.0,10.0,0.0,0.0,0.0,10.0,0.0,0.0,0.0,10.0,0.00532632218016,0.0202400242846,0.00732369299772,1.0,0.0,0.0,0.0,1.0,0.0,0.0,0.0,1.0,-0.0886157226563,-0.3065625,10.1764379883,0.1,0.0,0.0,0.0,0.1,0.0,0.0,0.0,0.1
1446038363059933502,279,1446038363056719064,robocape,3.9377096781,1.48683083679,39.7767324715,0.0,10.0,0.0,0.0,0.0,10.0,0.0,0.0,0.0,10.0,0.00532632218016,0.0206394984481,0.00705737688871,1.0,0.0,0.0,0.0,1.0,0.0,0.0,0.0,1.0,-0.105380859375,-0.295784912109,10.1476977539,0.1,0.0,0.0,0.0,0.1,0.0,0.0,0.0,0.1
1446038363093234127,280,1446038363090157985,robocape,3.9348878577,1.52491227843,39.6620977128,0.0,10.0,0.0,0.0,0.0,10.0,0.0,0.0,0.0,10.0,0.00572579634367,0.0206394984481,0.00705737688871,1.0,0.0,0.0,0.0,1.0,0.0,0.0,0.0,1.0,-0.105380859375,-0.298179931641,10.1500927734,0.1,0.0,0.0,0.0,0.1,0.0,0.0,0.0,0.1
1446038363126301211,281,1446038363123199939,robocape,3.93208757996,1.56235283555,39.5481988722,0.0,10.0,0.0,0.0,0.0,10.0,0.0,0.0,0.0,10.0,0.00572579634367,0.0203731823391,0.00705737688871,1.0,0.0,0.0,0.0,1.0,0.0,0.0,0.0,1.0,-0.0946032714844,-0.305364990234,10.1345251465,0.1,0.0,0.0,0.0,0.1,0.0,0.0,0.0,0.1
1446038363159722711,282,1446038363156502962,robocape,3.92879898555,1.59967825355,39.4348390277,0.0,10.0,0.0,0.0,0.0,10.0,0.0,0.0,0.0,10.0,0.00545948023466,0.0203731823391,0.00692421883421,1.0,0.0,0.0,0.0,1.0,0.0,0.0,0.0,1.0,-0.0969982910156,-0.312550048828,10.1429077148,0.1,0.0,0.0,0.0,0.1,0.0,0.0,0.0,0.1
1446038363193424919,283,1446038363190386056,robocape,3.92503544995,1.63633098038,39.3226531364,0.0,10.0,0.0,0.0,0.0,10.0,0.0,0.0,0.0,10.0,0.00519316412565,0.0201068662301,0.00719053494321,1.0,0.0,0.0,0.0,1.0,0.0,0.0,0.0,1.0,-0.105380859375,-0.304167480469,10.1357226563,0.1,0.0,0.0,0.0,0.1,0.0,0.0,0.0,0.1
1446038363226192544,284,1446038363223105907,robocape,3.92003566952,1.67410080254,39.2115197703,0.0,10.0,0.0,0.0,0.0,10.0,0.0,0.0,0.0,10.0,0.00452737385313,0.0207726565026,0.00732369299772,1.0,0.0,0.0,0.0,1.0,0.0,0.0,0.0,1.0,-0.0993933105469,-0.158071289063,10.1560803223,0.1,0.0,0.0,0.0,0.1,0.0,0.0,0.0,0.1
1446038363259838086,285,1446038363256740093,robocape,3.91709499075,1.71020501622,39.1012318189,0.0,10.0,0.0,0.0,0.0,10.0,0.0,0.0,0.0,10.0,0.00559263828917,0.0199737081756,0.00745685105222,1.0,0.0,0.0,0.0,1.0,0.0,0.0,0.0,1.0,-0.119750976563,-0.299377441406,10.1512902832,0.1,0.0,0.0,0.0,0.1,0.0,0.0,0.0,0.1
1446038363293435628,286,1446038363290397882,robocape,3.9129207781,1.74614825349,38.9921272011,0.0,10.0,0.0,0.0,0.0,10.0,0.0,0.0,0.0,10.0,0.00492684801665,0.0199737081756,0.00772316716123,1.0,0.0,0.0,0.0,1.0,0.0,0.0,0.0,1.0,-0.113763427734,-0.290994873047,10.132130127,0.1,0.0,0.0,0.0,0.1,0.0,0.0,0.0,0.1
1446038363326177044,287,1446038363323163986,robocape,3.91002261874,1.78406174002,38.8829445839,0.0,10.0,0.0,0.0,0.0,10.0,0.0,0.0,0.0,10.0,0.00559263828917,0.0210389726116,0.00719053494321,1.0,0.0,0.0,0.0,1.0,0.0,0.0,0.0,1.0,-0.107775878906,-0.308957519531,10.1441052246,0.1,0.0,0.0,0.0,0.1,0.0,0.0,0.0,0.1
1446038363360045211,288,1446038363356901884,robocape,3.90637190093,1.82038108993,38.7737111395,0.0,10.0,0.0,0.0,0.0,10.0,0.0,0.0,0.0,10.0,0.00519316412565,0.0202400242846,0.0067910607797,1.0,0.0,0.0,0.0,1.0,0.0,0.0,0.0,1.0,-0.107775878906,-0.307760009766,10.1680554199,0.1,0.0,0.0,0.0,0.1,0.0,0.0,0.0,0.1
1446038363393114586,289,1446038363390069007,robocape,3.9032730951,1.85625391674,38.6660648677,0.0,10.0,0.0,0.0,0.0,10.0,0.0,0.0,0.0,10.0,0.00545948023466,0.0201068662301,0.00732369299772,1.0,0.0,0.0,0.0,1.0,0.0,0.0,0.0,1.0,-0.110170898438,-0.308957519531,10.1704504395,0.1,0.0,0.0,0.0,0.1,0.0,0.0,0.0,0.1
1446038363429725044,290,1446038363426278114,robocape,3.90043168708,1.89308798111,38.5582682715,0.0,10.0,0.0,0.0,0.0,10.0,0.0,0.0,0.0,10.0,0.00559263828917,0.0206394984481,0.0067910607797,1.0,0.0,0.0,0.0,1.0,0.0,0.0,0.0,1.0,-0.0934057617188,-0.308957519531,10.1309326172,0.1,0.0,0.0,0.0,0.1,0.0,0.0,0.0,0.1
1446038363459822378,291,1446038363456676959,robocape,3.89814056275,1.92947596098,38.4520450904,0.0,10.0,0.0,0.0,0.0,10.0,0.0,0.0,0.0,10.0,0.00585895439817,0.0205063403936,0.00732369299772,1.0,0.0,0.0,0.0,1.0,0.0,0.0,0.0,1.0,-0.0898132324219,-0.313747558594,10.1417102051,0.1,0.0,0.0,0.0,0.1,0.0,0.0,0.0,0.1
1446038363493522211,292,1446038363490392923,robocape,3.89509439356,1.96503695869,38.3457847182,0.0,10.0,0.0,0.0,0.0,10.0,0.0,0.0,0.0,10.0,0.00545948023466,0.0201068662301,0.00692421883421,1.0,0.0,0.0,0.0,1.0,0.0,0.0,0.0,1.0,-0.106578369141,-0.305364990234,10.152487793,0.1,0.0,0.0,0.0,0.1,0.0,0.0,0.0,0.1
1446038363528404961,293,1446038363524951934,robocape,3.89107079033,2.00094980947,38.2406899325,0.0,10.0,0.0,0.0,0.0,10.0,0.0,0.0,0.0,10.0,0.00492684801665,0.0203731823391,0.00719053494321,1.0,0.0,0.0,0.0,1.0,0.0,0.0,0.0,1.0,-0.111368408203,-0.305364990234,10.1441052246,0.1,0.0,0.0,0.0,0.1,0.0,0.0,0.0,0.1
1446038363562064294,294,1446038363558751106,robocape,3.88832889515,2.0362741419,38.1357677931,0.0,10.0,0.0,0.0,0.0,10.0,0.0,0.0,0.0,10.0,0.00559263828917,0.0201068662301,0.00692421883421,1.0,0.0,0.0,0.0,1.0,0.0,0.0,0.0,1.0,-0.105380859375,-0.305364990234,10.1393151855,0.1,0.0,0.0,0.0,0.1,0.0,0.0,0.0,0.1
1446038363594501211,295,1446038363591341972,robocape,3.88535764455,2.07249442875,38.0315688944,0.0,10.0,0.0,0.0,0.0,10.0,0.0,0.0,0.0,10.0,0.00545948023466,0.0206394984481,0.00692421883421,1.0,0.0,0.0,0.0,1.0,0.0,0.0,0.0,1.0,-0.111368408203,-0.293389892578,10.157277832,0.1,0.0,0.0,0.0,0.1,0.0,0.0,0.0,0.1
1446038363627026878,296,1446038363623820066,robocape,3.88191508948,2.1078024864,37.9284360543,0.0,10.0,0.0,0.0,0.0,10.0,0.0,0.0,0.0,10.0,0.00519316412565,0.0202400242846,0.00719053494321,1.0,0.0,0.0,0.0,1.0,0.0,0.0,0.0,1.0,-0.108973388672,-0.305364990234,10.1512902832,0.1,0.0,0.0,0.0,0.1,0.0,0.0,0.0,0.1
1446038363660587044,297,1446038363657479047,robocape,3.87903616915,2.14290776746,37.8270762709,0.0,10.0,0.0,0.0,0.0,10.0,0.0,0.0,0.0,10.0,0.00545948023466,0.0202400242846,0.00785632521573,1.0,0.0,0.0,0.0,1.0,0.0,0.0,0.0,1.0,-0.0898132324219,-0.298179931641,10.1608703613,0.1,0.0,0.0,0.0,0.1,0.0,0.0,0.0,0.1
1446038363693904503,298,1446038363690773010,robocape,3.87590922148,2.17820597992,37.7256856197,0.0,10.0,0.0,0.0,0.0,10.0,0.0,0.0,0.0,10.0,0.00532632218016,0.0203731823391,0.00745685105222,1.0,0.0,0.0,0.0,1.0,0.0,0.0,0.0,1.0,-0.110170898438,-0.3065625,10.1393151855,0.1,0.0,0.0,0.0,0.1,0.0,0.0,0.0,0.1
1446038363728643794,299,1446038363725389957,robocape,3.87255361352,2.21313804222,37.6249114072,0.0,10.0,0.0,0.0,0.0,10.0,0.0,0.0,0.0,10.0,0.00519316412565,0.0202400242846,0.00745685105222,1.0,0.0,0.0,0.0,1.0,0.0,0.0,0.0,1.0,-0.111368408203,-0.313747558594,10.1453027344,0.1,0.0,0.0,0.0,0.1,0.0,0.0,0.0,0.1
1446038363762056086,300,1446038363758852958,robocape,3.8689639961,2.24848202764,37.5245646618,0.0,10.0,0.0,0.0,0.0,10.0,0.0,0.0,0.0,10.0,0.00506000607115,0.0205063403936,0.00732369299772,1.0,0.0,0.0,0.0,1.0,0.0,0.0,0.0,1.0,-0.116158447266,-0.305364990234,10.1632653809,0.1,0.0,0.0,0.0,0.1,0.0,0.0,0.0,0.1
1446038363795203919,301,1446038363792135953,robocape,3.86716630197,2.28322686716,37.4245646658,0.0,10.0,0.0,0.0,0.0,10.0,0.0,0.0,0.0,10.0,0.00599211245268,0.0202400242846,0.00719053494321,1.0,0.0,0.0,0.0,1.0,0.0,0.0,0.0,1.0,-0.107775878906,-0.295784912109,10.1249450684,0.1,0.0,0.0,0.0,0.1,0.0,0.0,0.0,0.1
1446038363826368169,302,1446038363823353052,robocape,3.86437602492,2.31735664563,37.3251567517,0.0,10.0,0.0,0.0,0.0,10.0,0.0,0.0,0.0,10.0,0.00545948023466,0.0199737081756,0.00719053494321,1.0,0.0,0.0,0.0,1.0,0.0,0.0,0.0,1.0,-0.106578369141,-0.316142578125,10.132130127,0.1,0.0,0.0,0.0,0.1,0.0,0.0,0.0,0.1
1446038363859920586,303,1446038363856739997,robocape,3.86212416487,2.35161506127,37.2265940876,0.0,10.0,0.0,0.0,0.0,10.0,0.0,0.0,0.0,10.0,0.00572579634367,0.0201068662301,0.00732369299772,1.0,0.0,0.0,0.0,1.0,0.0,0.0,0.0,1.0,-0.118553466797,-0.293389892578,10.1405126953,0.1,0.0,0.0,0.0,0.1,0.0,0.0,0.0,0.1
1446038363893385128,304,1446038363890348911,robocape,3.85965741986,2.386996067,37.1291613994,0.0,10.0,0.0,0.0,0.0,10.0,0.0,0.0,0.0,10.0,0.00559263828917,0.0207726565026,0.00759000910673,1.0,0.0,0.0,0.0,1.0,0.0,0.0,0.0,1.0,-0.106578369141,-0.307760009766,10.1548828125,0.1,0.0,0.0,0.0,0.1,0.0,0.0,0.0,0.1
1446038363926742211,305,1446038363923391103,robocape,3.85793582739,2.42261033462,37.0311897539,0.0,10.0,0.0,0.0,0.0,10.0,0.0,0.0,0.0,10.0,0.00599211245268,0.0209058145571,0.00692421883421,1.0,0.0,0.0,0.0,1.0,0.0,0.0,0.0,1.0,-0.09580078125,-0.295784912109,10.1488952637,0.1,0.0,0.0,0.0,0.1,0.0,0.0,0.0,0.1
1446038363959757128,306,1446038363956520080,robocape,3.85597979401,2.45685116871,36.9337379201,0.0,10.0,0.0,0.0,0.0,10.0,0.0,0.0,0.0,10.0,0.00585895439817,0.0202400242846,0.00692421883421,1.0,0.0,0.0,0.0,1.0,0.0,0.0,0.0,1.0,-0.112565917969,-0.289797363281,10.1441052246,0.1,0.0,0.0,0.0,0.1,0.0,0.0,0.0,0.1
1446038363993519295,307,1446038363990411996,robocape,3.85379246951,2.49149344413,36.8369029732,0.0,10.0,0.0,0.0,0.0,10.0,0.0,0.0,0.0,10.0,0.00572579634367,0.0205063403936,0.00692421883421,1.0,0.0,0.0,0.0,1.0,0.0,0.0,0.0,1.0,-0.102985839844,-0.311352539063,10.1740429688,0.1,0.0,0.0,0.0,0.1,0.0,0.0,0.0,0.1
1446038364026134211,308,1446038364023114919,robocape,3.85062178875,2.52601226312,36.7408832594,0.0,10.0,0.0,0.0,0.0,10.0,0.0,0.0,0.0,10.0,0.00519316412565,0.0205063403936,0.00705737688871,1.0,0.0,0.0,0.0,1.0,0.0,0.0,0.0,1.0,-0.0981958007813,-0.318537597656,10.1500927734,0.1,0.0,0.0,0.0,0.1,0.0,0.0,0.0,0.1
1446038364059825461,309,1446038364056550979,robocape,3.84825232275,2.56039102403,36.6458862082,0.0,10.0,0.0,0.0,0.0,10.0,0.0,0.0,0.0,10.0,0.00559263828917,0.0205063403936,0.00732369299772,1.0,0.0,0.0,0.0,1.0,0.0,0.0,0.0,1.0,-0.107775878906,-0.294587402344,10.1357226563,0.1,0.0,0.0,0.0,0.1,0.0,0.0,0.0,0.1
1446038364093174836,310,1446038364090110063,robocape,3.8456530202,2.59542509282,36.5514988714,0.0,10.0,0.0,0.0,0.0,10.0,0.0,0.0,0.0,10.0,0.00545948023466,0.0209058145571,0.00732369299772,1.0,0.0,0.0,0.0,1.0,0.0,0.0,0.0,1.0,-0.101788330078,-0.292192382813,10.1357226563,0.1,0.0,0.0,0.0,0.1,0.0,0.0,0.0,0.1
1446038364126332545,311,1446038364123272895,robocape,3.84284770026,2.62928890406,36.4582989145,0.0,10.0,0.0,0.0,0.0,10.0,0.0,0.0,0.0,10.0,0.00532632218016,0.0203731823391,0.00772316716123,1.0,0.0,0.0,0.0,1.0,0.0,0.0,0.0,1.0,-0.101788330078,-0.302969970703,10.1381176758,0.1,0.0,0.0,0.0,0.1,0.0,0.0,0.0,0.1
1446038364160037003,312,1446038364156780004,robocape,3.84078300461,2.66238284406,36.3644569654,0.0,10.0,0.0,0.0,0.0,10.0,0.0,0.0,0.0,10.0,0.00572579634367,0.0199737081756,0.00705737688871,1.0,0.0,0.0,0.0,1.0,0.0,0.0,0.0,1.0,-0.112565917969,-0.299377441406,10.1716479492,0.1,0.0,0.0,0.0,0.1,0.0,0.0,0.0,0.1
1446038364193456128,313,1446038364190426111,robocape,3.83798959763,2.69536073593,36.2714007252,0.0,10.0,0.0,0.0,0.0,10.0,0.0,0.0,0.0,10.0,0.00532632218016,0.0199737081756,0.00719053494321,1.0,0.0,0.0,0.0,1.0,0.0,0.0,0.0,1.0,-0.119750976563,-0.301772460938,10.1476977539,0.1,0.0,0.0,0.0,0.1,0.0,0.0,0.0,0.1
1446038364226186336,314,1446038364223114967,robocape,3.8344355185,2.72955916029,36.1782801588,0.0,10.0,0.0,0.0,0.0,10.0,0.0,0.0,0.0,10.0,0.00492684801665,0.0206394984481,0.0067910607797,1.0,0.0,0.0,0.0,1.0,0.0,0.0,0.0,1.0,-0.100590820313,-0.304167480469,10.1417102051,0.1,0.0,0.0,0.0,0.1,0.0,0.0,0.0,0.1
1446038364259801420,315,1446038364256556987,robocape,3.83091634636,2.76363878077,36.0859301737,0.0,10.0,0.0,0.0,0.0,10.0,0.0,0.0,0.0,10.0,0.00492684801665,0.0206394984481,0.00692421883421,1.0,0.0,0.0,0.0,1.0,0.0,0.0,0.0,1.0,-0.0934057617188,-0.304167480469,10.1393151855,0.1,0.0,0.0,0.0,0.1,0.0,0.0,0.0,0.1
1446038364293524628,316,1446038364290477037,robocape,3.82767633102,2.79761851962,35.9941135671,0.0,10.0,0.0,0.0,0.0,10.0,0.0,0.0,0.0,10.0,0.00506000607115,0.0206394984481,0.00692421883421,1.0,0.0,0.0,0.0,1.0,0.0,0.0,0.0,1.0,-0.101788330078,-0.319735107422,10.132130127,0.1,0.0,0.0,0.0,0.1,0.0,0.0,0.0,0.1
1446038364326414836,317,1446038364323337078,robocape,3.82622537887,2.83151801488,35.9025851987,0.0,10.0,0.0,0.0,0.0,10.0,0.0,0.0,0.0,10.0,0.00599211245268,0.0206394984481,0.0067910607797,1.0,0.0,0.0,0.0,1.0,0.0,0.0,0.0,1.0,-0.100590820313,-0.295784912109,10.136920166,0.1,0.0,0.0,0.0,0.1,0.0,0.0,0.0,0.1
1446038364360050086,318,1446038364356800079,robocape,3.82429680636,2.86504923998,35.811802575,0.0,10.0,0.0,0.0,0.0,10.0,0.0,0.0,0.0,10.0,0.00572579634367,0.0205063403936,0.00692421883421,1.0,0.0,0.0,0.0,1.0,0.0,0.0,0.0,1.0,-0.0969982910156,-0.308957519531,10.1453027344,0.1,0.0,0.0,0.0,0.1,0.0,0.0,0.0,0.1
1446038364393139586,319,1446038364390073060,robocape,3.82141440192,2.89790635454,35.7224372629,0.0,10.0,0.0,0.0,0.0,10.0,0.0,0.0,0.0,10.0,0.00519316412565,0.0202400242846,0.00745685105222,1.0,0.0,0.0,0.0,1.0,0.0,0.0,0.0,1.0,-0.111368408203,-0.296982421875,10.136920166,0.1,0.0,0.0,0.0,0.1,0.0,0.0,0.0,0.1
1446038364430876545,320,1446038364427732944,robocape,3.81900485209,2.9310302807,35.6322162534,0.0,10.0,0.0,0.0,0.0,10.0,0.0,0.0,0.0,10.0,0.00545948023466,0.0203731823391,0.0066579027252,1.0,0.0,0.0,0.0,1.0,0.0,0.0,0.0,1.0,-0.0969982910156,-0.302969970703,10.1488952637,0.1,0.0,0.0,0.0,0.1,0.0,0.0,0.0,0.1
1446038364460203920,321,1446038364456885099,robocape,3.81764127858,2.96378962211,35.5427170848,0.0,10.0,0.0,0.0,0.0,10.0,0.0,0.0,0.0,10.0,0.00599211245268,0.0202400242846,0.0067910607797,1.0,0.0,0.0,0.0,1.0,0.0,0.0,0.0,1.0,-0.102985839844,-0.300574951172,10.1512902832,0.1,0.0,0.0,0.0,0.1,0.0,0.0,0.0,0.1
1446038364495335461,322,1446038364492114067,robocape,3.81535499275,2.99607757191,35.4553276021,0.0,10.0,0.0,0.0,0.0,10.0,0.0,0.0,0.0,10.0,0.00545948023466,0.0201068662301,0.00772316716123,1.0,0.0,0.0,0.0,1.0,0.0,0.0,0.0,1.0,-0.112565917969,-0.318537597656,10.1476977539,0.1,0.0,0.0,0.0,0.1,0.0,0.0,0.0,0.1
1446038364528093170,323,1446038364524935960,robocape,3.81305067543,3.02809377708,35.3674988866,0.0,10.0,0.0,0.0,0.0,10.0,0.0,0.0,0.0,10.0,0.00545948023466,0.0199737081756,0.00719053494321,1.0,0.0,0.0,0.0,1.0,0.0,0.0,0.0,1.0,-0.106578369141,-0.314945068359,10.1548828125,0.1,0.0,0.0,0.0,0.1,0.0,0.0,0.0,0.1
1446038364561257753,324,1446038364557905912,robocape,3.81155062494,3.0599845646,35.2806201248,0.0,10.0,0.0,0.0,0.0,10.0,0.0,0.0,0.0,10.0,0.00585895439817,0.0199737081756,0.00745685105222,1.0,0.0,0.0,0.0,1.0,0.0,0.0,0.0,1.0,-0.113763427734,-0.302969970703,10.1213525391,0.1,0.0,0.0,0.0,0.1,0.0,0.0,0.0,0.1
1446038364594536545,325,1446038364591387033,robocape,3.80878421282,3.09207538759,35.1937922729,0.0,10.0,0.0,0.0,0.0,10.0,0.0,0.0,0.0,10.0,0.00519316412565,0.0201068662301,0.00719053494321,1.0,0.0,0.0,0.0,1.0,0.0,0.0,0.0,1.0,-0.101788330078,-0.302969970703,10.1297351074,0.1,0.0,0.0,0.0,0.1,0.0,0.0,0.0,0.1
1446038364627128378,326,1446038364624059915,robocape,3.80629673322,3.12483567453,35.1074906023,0.0,10.0,0.0,0.0,0.0,10.0,0.0,0.0,0.0,10.0,0.00532632218016,0.0205063403936,0.00719053494321,1.0,0.0,0.0,0.0,1.0,0.0,0.0,0.0,1.0,-0.0981958007813,-0.301772460938,10.1488952637,0.1,0.0,0.0,0.0,0.1,0.0,0.0,0.0,0.1
1446038364661207628,327,1446038364657814979,robocape,3.80359142102,3.15849874803,35.0219580243,0.0,10.0,0.0,0.0,0.0,10.0,0.0,0.0,0.0,10.0,0.00519316412565,0.0210389726116,0.00732369299772,1.0,0.0,0.0,0.0,1.0,0.0,0.0,0.0,1.0,-0.107775878906,-0.300574951172,10.1381176758,0.1,0.0,0.0,0.0,0.1,0.0,0.0,0.0,0.1
1446038364694429087,328,1446038364691242933,robocape,3.80139330534,3.19159944759,34.9364068971,0.0,10.0,0.0,0.0,0.0,10.0,0.0,0.0,0.0,10.0,0.00545948023466,0.0207726565026,0.00705737688871,1.0,0.0,0.0,0.0,1.0,0.0,0.0,0.0,1.0,-0.110170898438,-0.3065625,10.1441052246,0.1,0.0,0.0,0.0,0.1,0.0,0.0,0.0,0.1
1446038364728190837,329,1446038364724965095,robocape,3.7997462481,3.22457358221,34.8517863996,0.0,10.0,0.0,0.0,0.0,10.0,0.0,0.0,0.0,10.0,0.00572579634367,0.0207726565026,0.00732369299772,1.0,0.0,0.0,0.0,1.0,0.0,0.0,0.0,1.0,-0.1149609375,-0.299377441406,10.1381176758,0.1,0.0,0.0,0.0,0.1,0.0,0.0,0.0,0.1
1446038364761381253,330,1446038364757999897,robocape,3.79781964509,3.2565189031,34.766654668,0.0,10.0,0.0,0.0,0.0,10.0,0.0,0.0,0.0,10.0,0.00559263828917,0.0202400242846,0.0067910607797,1.0,0.0,0.0,0.0,1.0,0.0,0.0,0.0,1.0,-0.108973388672,-0.304167480469,10.1405126953,0.1,0.0,0.0,0.0,0.1,0.0,0.0,0.0,0.1
1446038364794380253,331,1446038364791167020,robocape,3.79590298459,3.28814310301,34.6817454595,0.0,10.0,0.0,0.0,0.0,10.0,0.0,0.0,0.0,10.0,0.00559263828917,0.0201068662301,0.0066579027252,1.0,0.0,0.0,0.0,1.0,0.0,0.0,0.0,1.0,-0.111368408203,-0.307760009766,10.1393151855,0.1,0.0,0.0,0.0,0.1,0.0,0.0,0.0,0.1
1446038364827218378,332,1446038364823905944,robocape,3.79406693231,3.32009746599,34.5984837886,0.0,10.0,0.0,0.0,0.0,10.0,0.0,0.0,0.0,10.0,0.00559263828917,0.0203731823391,0.00732369299772,1.0,0.0,0.0,0.0,1.0,0.0,0.0,0.0,1.0,-0.0969982910156,-0.3065625,10.1261425781,0.1,0.0,0.0,0.0,0.1,0.0,0.0,0.0,0.1
1446038364861236295,333,1446038364857856988,robocape,3.79225204242,3.35171329467,34.5156622461,0.0,10.0,0.0,0.0,0.0,10.0,0.0,0.0,0.0,10.0,0.00559263828917,0.0202400242846,0.00732369299772,1.0,0.0,0.0,0.0,1.0,0.0,0.0,0.0,1.0,-0.101788330078,-0.301772460938,10.1512902832,0.1,0.0,0.0,0.0,0.1,0.0,0.0,0.0,0.1
1446038364894576337,334,1446038364891395092,robocape,3.79047110925,3.38347953595,34.4335360934,0.0,10.0,0.0,0.0,0.0,10.0,0.0,0.0,0.0,10.0,0.00559263828917,0.0203731823391,0.00745685105222,1.0,0.0,0.0,0.0,1.0,0.0,0.0,0.0,1.0,-0.106578369141,-0.308957519531,10.136920166,0.1,0.0,0.0,0.0,0.1,0.0,0.0,0.0,0.1
1446038364928246378,335,1446038364924833059,robocape,3.78814560828,3.41575773069,34.3507291786,0.0,10.0,0.0,0.0,0.0,10.0,0.0,0.0,0.0,10.0,0.00532632218016,0.0206394984481,0.0067910607797,1.0,0.0,0.0,0.0,1.0,0.0,0.0,0.0,1.0,-0.117355957031,-0.3065625,10.1536853027,0.1,0.0,0.0,0.0,0.1,0.0,0.0,0.0,0.1
1446038364960812503,336,1446038364957575082,robocape,3.78638530341,3.44764308051,34.2690455,0.0,10.0,0.0,0.0,0.0,10.0,0.0,0.0,0.0,10.0,0.00559263828917,0.0205063403936,0.00719053494321,1.0,0.0,0.0,0.0,1.0,0.0,0.0,0.0,1.0,-0.105380859375,-0.296982421875,10.132130127,0.1,0.0,0.0,0.0,0.1,0.0,0.0,0.0,0.1
1446038364994161503,337,1446038364991008996,robocape,3.78462148822,3.47948081486,34.1873376816,0.0,10.0,0.0,0.0,0.0,10.0,0.0,0.0,0.0,10.0,0.00559263828917,0.0205063403936,0.00692421883421,1.0,0.0,0.0,0.0,1.0,0.0,0.0,0.0,1.0,-0.101788330078,-0.308957519531,10.1297351074,0.1,0.0,0.0,0.0,0.1,0.0,0.0,0.0,0.1
1446038365027769545,338,1446038365024583101,robocape,3.78290403573,3.5114516377,34.1065445049,0.0,10.0,0.0,0.0,0.0,10.0,0.0,0.0,0.0,10.0,0.00559263828917,0.0206394984481,0.00719053494321,1.0,0.0,0.0,0.0,1.0,0.0,0.0,0.0,1.0,-0.111368408203,-0.300574951172,10.1476977539,0.1,0.0,0.0,0.0,0.1,0.0,0.0,0.0,0.1
1446038365060981295,339,1446038365057805061,robocape,3.78149950254,3.54379020799,34.0269038195,0.0,10.0,0.0,0.0,0.0,10.0,0.0,0.0,0.0,10.0,0.00572579634367,0.0209058145571,0.00759000910673,1.0,0.0,0.0,0.0,1.0,0.0,0.0,0.0,1.0,-0.101788330078,-0.302969970703,10.1273400879,0.1,0.0,0.0,0.0,0.1,0.0,0.0,0.0,0.1
1446038365095835128,340,1446038365092595100,robocape,3.77902336696,3.57539507833,33.9462601482,0.0,10.0,0.0,0.0,0.0,10.0,0.0,0.0,0.0,10.0,0.00519316412565,0.0205063403936,0.0067910607797,1.0,0.0,0.0,0.0,1.0,0.0,0.0,0.0,1.0,-0.09580078125,-0.299377441406,10.157277832,0.1,0.0,0.0,0.0,0.1,0.0,0.0,0.0,0.1
1446038365128448712,341,1446038365125207901,robocape,3.77686168632,3.60661039786,33.8667239456,0.0,10.0,0.0,0.0,0.0,10.0,0.0,0.0,0.0,10.0,0.00532632218016,0.0203731823391,0.00719053494321,1.0,0.0,0.0,0.0,1.0,0.0,0.0,0.0,1.0,-0.102985839844,-0.307760009766,10.1297351074,0.1,0.0,0.0,0.0,0.1,0.0,0.0,0.0,0.1
1446038365161076420,342,1446038365157757997,robocape,3.77504084202,3.63765405399,33.788766714,0.0,10.0,0.0,0.0,0.0,10.0,0.0,0.0,0.0,10.0,0.00545948023466,0.0203731823391,0.00785632521573,1.0,0.0,0.0,0.0,1.0,0.0,0.0,0.0,1.0,-0.110170898438,-0.312550048828,10.1261425781,0.1,0.0,0.0,0.0,0.1,0.0,0.0,0.0,0.1
1446038365194895628,343,1446038365191373109,robocape,3.77419074339,3.6694678621,33.7100940808,0.0,10.0,0.0,0.0,0.0,10.0,0.0,0.0,0.0,10.0,0.00599211245268,0.0207726565026,0.00719053494321,1.0,0.0,0.0,0.0,1.0,0.0,0.0,0.0,1.0,-0.116158447266,-0.293389892578,10.1393151855,0.1,0.0,0.0,0.0,0.1,0.0,0.0,0.0,0.1
1446038365227093045,344,1446038365223941087,robocape,3.77266431932,3.70060361696,33.6329729559,0.0,10.0,0.0,0.0,0.0,10.0,0.0,0.0,0.0,10.0,0.00559263828917,0.0205063403936,0.00785632521573,1.0,0.0,0.0,0.0,1.0,0.0,0.0,0.0,1.0,-0.108973388672,-0.298179931641,10.1261425781,0.1,0.0,0.0,0.0,0.1,0.0,0.0,0.0,0.1
1446038365260486045,345,1446038365257308959,robocape,3.77155912422,3.73256479845,33.5544339502,0.0,10.0,0.0,0.0,0.0,10.0,0.0,0.0,0.0,10.0,0.00585895439817,0.0209058145571,0.0067910607797,1.0,0.0,0.0,0.0,1.0,0.0,0.0,0.0,1.0,-0.0993933105469,-0.296982421875,10.1692529297,0.1,0.0,0.0,0.0,0.1,0.0,0.0,0.0,0.1
1446038365296334420,346,1446038365292561054,robocape,3.77047205823,3.76419235169,33.4762899291,0.0,10.0,0.0,0.0,0.0,10.0,0.0,0.0,0.0,10.0,0.00585895439817,0.0207726565026,0.0067910607797,1.0,0.0,0.0,0.0,1.0,0.0,0.0,0.0,1.0,-0.107775878906,-0.302969970703,10.1584753418,0.1,0.0,0.0,0.0,0.1,0.0,0.0,0.0,0.1
1446038365333600379,347,1446038365330332994,robocape,3.76865774971,3.7959747825,33.3988022674,0.0,10.0,0.0,0.0,0.0,10.0,0.0,0.0,0.0,10.0,0.00545948023466,0.0209058145571,0.00692421883421,1.0,0.0,0.0,0.0,1.0,0.0,0.0,0.0,1.0,-0.111368408203,-0.305364990234,10.1393151855,0.1,0.0,0.0,0.0,0.1,0.0,0.0,0.0,0.1
1446038365365560420,348,1446038365362035989,robocape,3.76712975847,3.82690035481,33.3219050036,0.0,10.0,0.0,0.0,0.0,10.0,0.0,0.0,0.0,10.0,0.00559263828917,0.0205063403936,0.00705737688871,1.0,0.0,0.0,0.0,1.0,0.0,0.0,0.0,1.0,-0.101788330078,-0.296982421875,10.1692529297,0.1,0.0,0.0,0.0,0.1,0.0,0.0,0.0,0.1
1446038365397689712,349,1446038365394038915,robocape,3.76536706932,3.85699002649,33.2453646643,0.0,10.0,0.0,0.0,0.0,10.0,0.0,0.0,0.0,10.0,0.00545948023466,0.0201068662301,0.00705737688871,1.0,0.0,0.0,0.0,1.0,0.0,0.0,0.0,1.0,-0.106578369141,-0.154478759766,10.132130127,0.1,0.0,0.0,0.0,0.1,0.0,0.0,0.0,0.1
1446038365439299504,350,1446038365436086893,robocape,3.76392367889,3.88796128636,33.1699698067,0.0,10.0,0.0,0.0,0.0,10.0,0.0,0.0,0.0,10.0,0.00559263828917,0.0206394984481,0.00745685105222,1.0,0.0,0.0,0.0,1.0,0.0,0.0,0.0,1.0,-0.104183349609,-0.305364990234,10.1488952637,0.1,0.0,0.0,0.0,0.1,0.0,0.0,0.0,0.1
1446038365473901337,351,1446038365470714092,robocape,3.76197808579,3.91836817588,33.0947037692,0.0,10.0,0.0,0.0,0.0,10.0,0.0,0.0,0.0,10.0,0.00532632218016,0.0203731823391,0.00732369299772,1.0,0.0,0.0,0.0,1.0,0.0,0.0,0.0,1.0,-0.117355957031,-0.307760009766,10.1512902832,0.1,0.0,0.0,0.0,0.1,0.0,0.0,0.0,0.1
1446038365497374420,352,1446038365494303941,robocape,3.7605020042,3.94826744209,33.0188590204,0.0,10.0,0.0,0.0,0.0,10.0,0.0,0.0,0.0,10.0,0.00559263828917,0.0201068662301,0.0067910607797,1.0,0.0,0.0,0.0,1.0,0.0,0.0,0.0,1.0,-0.113763427734,-0.296982421875,10.1225500488,0.1,0.0,0.0,0.0,0.1,0.0,0.0,0.0,0.1
1446038365526408087,353,1446038365523308992,robocape,3.75861290328,3.97825444488,32.9445831827,0.0,10.0,0.0,0.0,0.0,10.0,0.0,0.0,0.0,10.0,0.00532632218016,0.0202400242846,0.00745685105222,1.0,0.0,0.0,0.0,1.0,0.0,0.0,0.0,1.0,-0.1149609375,-0.301772460938,10.1093774414,0.1,0.0,0.0,0.0,0.1,0.0,0.0,0.0,0.1
1446038365559646670,354,1446038365556565046,robocape,3.75673278778,4.00919744496,32.8705051007,0.0,10.0,0.0,0.0,0.0,10.0,0.0,0.0,0.0,10.0,0.00532632218016,0.0207726565026,0.00732369299772,1.0,0.0,0.0,0.0,1.0,0.0,0.0,0.0,1.0,-0.110170898438,-0.311352539063,10.1405126953,0.1,0.0,0.0,0.0,0.1,0.0,0.0,0.0,0.1
1446038365593182254,355,1446038365589951992,robocape,3.75611144157,4.04035418293,32.7963401935,0.0,10.0,0.0,0.0,0.0,10.0,0.0,0.0,0.0,10.0,0.00599211245268,0.0209058145571,0.00705737688871,1.0,0.0,0.0,0.0,1.0,0.0,0.0,0.0,1.0,-0.100590820313,-0.304167480469,10.1680554199,0.1,0.0,0.0,0.0,0.1,0.0,0.0,0.0,0.1
1446038365626964879,356,1446038365623950958,robocape,3.75501553203,4.07141689849,32.7227851562,0.0,10.0,0.0,0.0,0.0,10.0,0.0,0.0,0.0,10.0,0.00572579634367,0.0209058145571,0.00719053494321,1.0,0.0,0.0,0.0,1.0,0.0,0.0,0.0,1.0,-0.119750976563,-0.300574951172,10.1488952637,0.1,0.0,0.0,0.0,0.1,0.0,0.0,0.0,0.1
1446038365659544629,357,1446038365656474113,robocape,3.75515872479,4.10195390994,32.6488636634,0.0,10.0,0.0,0.0,0.0,10.0,0.0,0.0,0.0,10.0,0.00639158661619,0.0206394984481,0.0067910607797,1.0,0.0,0.0,0.0,1.0,0.0,0.0,0.0,1.0,-0.113763427734,-0.300574951172,10.1273400879,0.1,0.0,0.0,0.0,0.1,0.0,0.0,0.0,0.1
1446038365693384295,358,1446038365690069913,robocape,3.75509103526,4.13086421307,32.5757000678,0.0,10.0,0.0,0.0,0.0,10.0,0.0,0.0,0.0,10.0,0.00625842856169,0.0198405501211,0.00705737688871,1.0,0.0,0.0,0.0,1.0,0.0,0.0,0.0,1.0,-0.100590820313,-0.304167480469,10.1285375977,0.1,0.0,0.0,0.0,0.1,0.0,0.0,0.0,0.1
1446038365726187212,359,1446038365723128080,robocape,3.75472519673,4.15977960119,32.5019684151,0.0,10.0,0.0,0.0,0.0,10.0,0.0,0.0,0.0,10.0,0.00612527050718,0.0198405501211,0.00652474467069,1.0,0.0,0.0,0.0,1.0,0.0,0.0,0.0,1.0,-0.105380859375,-0.308957519531,10.1429077148,0.1,0.0,0.0,0.0,0.1,0.0,0.0,0.0,0.1
1446038365759481920,360,1446038365756408929,robocape,3.75268350004,4.18979845732,32.4298513908,0.0,10.0,0.0,0.0,0.0,10.0,0.0,0.0,0.0,10.0,0.00519316412565,0.0205063403936,0.00719053494321,1.0,0.0,0.0,0.0,1.0,0.0,0.0,0.0,1.0,-0.111368408203,-0.294587402344,10.1536853027,0.1,0.0,0.0,0.0,0.1,0.0,0.0,0.0,0.1
1446038365793168462,361,1446038365789701938,robocape,3.75191519119,4.22001664339,32.3578635697,0.0,10.0,0.0,0.0,0.0,10.0,0.0,0.0,0.0,10.0,0.00585895439817,0.0206394984481,0.00705737688871,1.0,0.0,0.0,0.0,1.0,0.0,0.0,0.0,1.0,-0.106578369141,-0.296982421875,10.1285375977,0.1,0.0,0.0,0.0,0.1,0.0,0.0,0.0,0.1
1446038365826822962,362,1446038365823677062,robocape,3.74970618459,4.24958366839,32.2871494464,0.0,10.0,0.0,0.0,0.0,10.0,0.0,0.0,0.0,10.0,0.00506000607115,0.0203731823391,0.00759000910673,1.0,0.0,0.0,0.0,1.0,0.0,0.0,0.0,1.0,-0.119750976563,-0.158071289063,10.1213525391,0.1,0.0,0.0,0.0,0.1,0.0,0.0,0.0,0.1
1446038365859739129,363,1446038365856700897,robocape,3.74828064257,4.27958583326,32.2168059319,0.0,10.0,0.0,0.0,0.0,10.0,0.0,0.0,0.0,10.0,0.00545948023466,0.0206394984481,0.00759000910673,1.0,0.0,0.0,0.0,1.0,0.0,0.0,0.0,1.0,-0.105380859375,-0.298179931641,10.1381176758,0.1,0.0,0.0,0.0,0.1,0.0,0.0,0.0,0.1
1446038365893133379,364,1446038365889862060,robocape,3.74704774232,4.30960922674,32.1456343979,0.0,10.0,0.0,0.0,0.0,10.0,0.0,0.0,0.0,10.0,0.00559263828917,0.0206394984481,0.00692421883421,1.0,0.0,0.0,0.0,1.0,0.0,0.0,0.0,1.0,-0.104183349609,-0.310155029297,10.1896105957,0.1,0.0,0.0,0.0,0.1,0.0,0.0,0.0,0.1
1446038365926551920,365,1446038365923531055,robocape,3.74659095827,4.33829803749,32.0747392844,0.0,10.0,0.0,0.0,0.0,10.0,0.0,0.0,0.0,10.0,0.00599211245268,0.0199737081756,0.00692421883421,1.0,0.0,0.0,0.0,1.0,0.0,0.0,0.0,1.0,-0.108973388672,-0.299377441406,10.1716479492,0.1,0.0,0.0,0.0,0.1,0.0,0.0,0.0,0.1
1446038365959607170,366,1446038365956592082,robocape,3.74618690266,4.36789452498,32.0047131767,0.0,10.0,0.0,0.0,0.0,10.0,0.0,0.0,0.0,10.0,0.00599211245268,0.0205063403936,0.00719053494321,1.0,0.0,0.0,0.0,1.0,0.0,0.0,0.0,1.0,-0.110170898438,-0.296982421875,10.157277832,0.1,0.0,0.0,0.0,0.1,0.0,0.0,0.0,0.1
1446038365993265379,367,1446038365989907026,robocape,3.74529352108,4.39767500325,31.9350438271,0.0,10.0,0.0,0.0,0.0,10.0,0.0,0.0,0.0,10.0,0.00572579634367,0.0206394984481,0.00719053494321,1.0,0.0,0.0,0.0,1.0,0.0,0.0,0.0,1.0,-0.100590820313,-0.317340087891,10.1249450684,0.1,0.0,0.0,0.0,0.1,0.0,0.0,0.0,0.1
1446038366026210421,368,1446038366023200988,robocape,3.74360798864,4.42744171881,31.8650119461,0.0,10.0,0.0,0.0,0.0,10.0,0.0,0.0,0.0,10.0,0.00532632218016,0.0206394984481,0.0067910607797,1.0,0.0,0.0,0.0,1.0,0.0,0.0,0.0,1.0,-0.105380859375,-0.295784912109,10.1417102051,0.1,0.0,0.0,0.0,0.1,0.0,0.0,0.0,0.1
1446038366059588046,369,1446038366056504011,robocape,3.74199263319,4.45708364712,31.7960220741,0.0,10.0,0.0,0.0,0.0,10.0,0.0,0.0,0.0,10.0,0.00532632218016,0.0206394984481,0.00719053494321,1.0,0.0,0.0,0.0,1.0,0.0,0.0,0.0,1.0,-0.0993933105469,-0.300574951172,10.1488952637,0.1,0.0,0.0,0.0,0.1,0.0,0.0,0.0,0.1
1446038366093134046,370,1446038366089768886,robocape,3.73988827137,4.48589844935,31.7273265856,0.0,10.0,0.0,0.0,0.0,10.0,0.0,0.0,0.0,10.0,0.00506000607115,0.0202400242846,0.00719053494321,1.0,0.0,0.0,0.0,1.0,0.0,0.0,0.0,1.0,-0.0993933105469,-0.305364990234,10.1548828125,0.1,0.0,0.0,0.0,0.1,0.0,0.0,0.0,0.1
1446038366126200379,371,1446038366123116970,robocape,3.73829518988,4.51466517248,31.6587228263,0.0,10.0,0.0,0.0,0.0,10.0,0.0,0.0,0.0,10.0,0.00532632218016,0.0202400242846,0.00705737688871,1.0,0.0,0.0,0.0,1.0,0.0,0.0,0.0,1.0,-0.118553466797,-0.296982421875,10.132130127,0.1,0.0,0.0,0.0,0.1,0.0,0.0,0.0,0.1
1446038366159768296,372,1446038366156534910,robocape,3.73773788399,4.54412418515,31.5904816988,0.0,10.0,0.0,0.0,0.0,10.0,0.0,0.0,0.0,10.0,0.00585895439817,0.0206394984481,0.00705737688871,1.0,0.0,0.0,0.0,1.0,0.0,0.0,0.0,1.0,-0.108973388672,-0.307760009766,10.1273400879,0.1,0.0,0.0,0.0,0.1,0.0,0.0,0.0,0.1
1446038366193272962,373,1446038366189851999,robocape,3.73645316898,4.57299192039,31.5227785274,0.0,10.0,0.0,0.0,0.0,10.0,0.0,0.0,0.0,10.0,0.00545948023466,0.0203731823391,0.00719053494321,1.0,0.0,0.0,0.0,1.0,0.0,0.0,0.0,1.0,-0.119750976563,-0.312550048828,10.1393151855,0.1,0.0,0.0,0.0,0.1,0.0,0.0,0.0,0.1
1446038366226918671,374,1446038366223642110,robocape,3.73540480705,4.60132542844,31.4548986933,0.0,10.0,0.0,0.0,0.0,10.0,0.0,0.0,0.0,10.0,0.00559263828917,0.0201068662301,0.00692421883421,1.0,0.0,0.0,0.0,1.0,0.0,0.0,0.0,1.0,-0.102985839844,-0.312550048828,10.1596728516,0.1,0.0,0.0,0.0,0.1,0.0,0.0,0.0,0.1
1446038366259684962,375,1446038366256361961,robocape,3.73515229236,4.62932356133,31.3875587591,0.0,10.0,0.0,0.0,0.0,10.0,0.0,0.0,0.0,10.0,0.00599211245268,0.0199737081756,0.00705737688871,1.0,0.0,0.0,0.0,1.0,0.0,0.0,0.0,1.0,-0.106578369141,-0.300574951172,10.1740429688,0.1,0.0,0.0,0.0,0.1,0.0,0.0,0.0,0.1
1446038366293194629,376,1446038366289792060,robocape,3.73533707906,4.65811017542,31.319397644,0.0,10.0,0.0,0.0,0.0,10.0,0.0,0.0,0.0,10.0,0.00625842856169,0.0203731823391,0.00639158661619,1.0,0.0,0.0,0.0,1.0,0.0,0.0,0.0,1.0,-0.116158447266,-0.314945068359,10.1297351074,0.1,0.0,0.0,0.0,0.1,0.0,0.0,0.0,0.1
1446038366327242337,377,1446038366324171066,robocape,3.7348662758,4.68699246725,31.2527526294,0.0,10.0,0.0,0.0,0.0,10.0,0.0,0.0,0.0,10.0,0.00585895439817,0.0205063403936,0.00705737688871,1.0,0.0,0.0,0.0,1.0,0.0,0.0,0.0,1.0,-0.102985839844,-0.295784912109,10.1441052246,0.1,0.0,0.0,0.0,0.1,0.0,0.0,0.0,0.1
1446038366359709212,378,1446038366356528997,robocape,3.73434113057,4.71613720803,31.1854913767,0.0,10.0,0.0,0.0,0.0,10.0,0.0,0.0,0.0,10.0,0.00585895439817,0.0206394984481,0.00652474467069,1.0,0.0,0.0,0.0,1.0,0.0,0.0,0.0,1.0,-0.101788330078,-0.308957519531,10.1429077148,0.1,0.0,0.0,0.0,0.1,0.0,0.0,0.0,0.1
1446038366393080004,379,1446038366389902114,robocape,3.73362981434,4.74389732039,31.1191867807,0.0,10.0,0.0,0.0,0.0,10.0,0.0,0.0,0.0,10.0,0.00572579634367,0.0199737081756,0.00692421883421,1.0,0.0,0.0,0.0,1.0,0.0,0.0,0.0,1.0,-0.110170898438,-0.312550048828,10.1249450684,0.1,0.0,0.0,0.0,0.1,0.0,0.0,0.0,0.1
1446038366430611212,380,1446038366427181005,robocape,3.73166826883,4.77134327393,31.0531853801,0.0,10.0,0.0,0.0,0.0,10.0,0.0,0.0,0.0,10.0,0.00506000607115,0.0198405501211,0.00692421883421,1.0,0.0,0.0,0.0,1.0,0.0,0.0,0.0,1.0,-0.105380859375,-0.3065625,10.1476977539,0.1,0.0,0.0,0.0,0.1,0.0,0.0,0.0,0.1
1446038366459619546,381,1446038366456422090,robocape,3.73023743891,4.79973913976,30.9875413628,0.0,10.0,0.0,0.0,0.0,10.0,0.0,0.0,0.0,10.0,0.00532632218016,0.0203731823391,0.00692421883421,1.0,0.0,0.0,0.0,1.0,0.0,0.0,0.0,1.0,-0.116158447266,-0.312550048828,10.136920166,0.1,0.0,0.0,0.0,0.1,0.0,0.0,0.0,0.1
1446038366492947296,382,1446038366489689111,robocape,3.72909974447,4.82881146088,30.9224757678,0.0,10.0,0.0,0.0,0.0,10.0,0.0,0.0,0.0,10.0,0.00545948023466,0.0207726565026,0.00705737688871,1.0,0.0,0.0,0.0,1.0,0.0,0.0,0.0,1.0,-0.104183349609,-0.300574951172,10.1393151855,0.1,0.0,0.0,0.0,0.1,0.0,0.0,0.0,0.1
1446038366526442046,383,1446038366523365020,robocape,3.72721748454,4.85706103953,30.8576747632,0.0,10.0,0.0,0.0,0.0,10.0,0.0,0.0,0.0,10.0,0.00506000607115,0.0203731823391,0.00705737688871,1.0,0.0,0.0,0.0,1.0,0.0,0.0,0.0,1.0,-0.112565917969,-0.317340087891,10.1345251465,0.1,0.0,0.0,0.0,0.1,0.0,0.0,0.0,0.1
1446038366559642962,384,1446038366556377887,robocape,3.72640810878,4.88571608366,30.7936654514,0.0,10.0,0.0,0.0,0.0,10.0,0.0,0.0,0.0,10.0,0.00559263828917,0.0206394984481,0.00732369299772,1.0,0.0,0.0,0.0,1.0,0.0,0.0,0.0,1.0,-0.117355957031,-0.298179931641,10.1357226563,0.1,0.0,0.0,0.0,0.1,0.0,0.0,0.0,0.1
1446038366593342629,385,1446038366589792013,robocape,3.72489184052,4.91376527294,30.7304000326,0.0,10.0,0.0,0.0,0.0,10.0,0.0,0.0,0.0,10.0,0.00519316412565,0.0203731823391,0.00759000910673,1.0,0.0,0.0,0.0,1.0,0.0,0.0,0.0,1.0,-0.113763427734,-0.300574951172,10.1441052246,0.1,0.0,0.0,0.0,0.1,0.0,0.0,0.0,0.1
1446038366627953754,386,1446038366623316049,robocape,3.72435031943,4.94130312212,30.6666840099,0.0,10.0,0.0,0.0,0.0,10.0,0.0,0.0,0.0,10.0,0.00572579634367,0.0201068662301,0.00719053494321,1.0,0.0,0.0,0.0,1.0,0.0,0.0,0.0,1.0,-0.0946032714844,-0.313747558594,10.152487793,0.1,0.0,0.0,0.0,0.1,0.0,0.0,0.0,0.1
1446038366659715712,387,1446038366656316995,robocape,3.72314475637,4.96971740605,30.6042613726,0.0,10.0,0.0,0.0,0.0,10.0,0.0,0.0,0.0,10.0,0.00532632218016,0.0206394984481,0.00772316716123,1.0,0.0,0.0,0.0,1.0,0.0,0.0,0.0,1.0,-0.105380859375,-0.314945068359,10.1476977539,0.1,0.0,0.0,0.0,0.1,0.0,0.0,0.0,0.1
1446038366693718462,388,1446038366690391063,robocape,3.72285366795,4.99742318729,30.5406595111,0.0,10.0,0.0,0.0,0.0,10.0,0.0,0.0,0.0,10.0,0.00585895439817,0.0202400242846,0.00692421883421,1.0,0.0,0.0,0.0,1.0,0.0,0.0,0.0,1.0,-0.120948486328,-0.294587402344,10.1632653809,0.1,0.0,0.0,0.0,0.1,0.0,0.0,0.0,0.1
1446038366726243796,389,1446038366723179101,robocape,3.72082604375,5.02580887317,30.4776315316,0.0,10.0,0.0,0.0,0.0,10.0,0.0,0.0,0.0,10.0,0.00492684801665,0.0206394984481,0.00705737688871,1.0,0.0,0.0,0.0,1.0,0.0,0.0,0.0,1.0,-0.110170898438,-0.305364990234,10.1632653809,0.1,0.0,0.0,0.0,0.1,0.0,0.0,0.0,0.1
