%time,field.header.seq,field.header.stamp,field.header.frame_id,field.orientation.x,field.orientation.y,field.orientation.z,field.orientation.w,field.orientation_covariance0,field.orientation_covariance1,field.orientation_covariance2,field.orientation_covariance3,field.orientation_covariance4,field.orientation_covariance5,field.orientation_covariance6,field.orientation_covariance7,field.orientation_covariance8,field.angular_velocity.x,field.angular_velocity.y,field.angular_velocity.z,field.angular_velocity_covariance0,field.angular_velocity_covariance1,field.angular_velocity_covariance2,field.angular_velocity_covariance3,field.angular_velocity_covariance4,field.angular_velocity_covariance5,field.angular_velocity_covariance6,field.angular_velocity_covariance7,field.angular_velocity_covariance8,field.linear_acceleration.x,field.linear_acceleration.y,field.linear_acceleration.z,field.linear_acceleration_covariance0,field.linear_acceleration_covariance1,field.linear_acceleration_covariance2,field.linear_acceleration_covariance3,field.linear_acceleration_covariance4,field.linear_acceleration_covariance5,field.linear_acceleration_covariance6,field.linear_acceleration_covariance7,field.linear_acceleration_covariance8
1446038655452629909,1,1446038655441489934,robocape,5.23557224939,3.65201308968,31.4998919077,0.0,10.0,0.0,0.0,0.0,10.0,0.0,0.0,0.0,10.0,-0.000133158054504,0.0117179087963,0.00692421883421,1.0,0.0,0.0,0.0,1.0,0.0,0.0,0.0,1.0,0.0335302734375,0.413140869141,10.0063916016,0.1,0.0,0.0,0.0,0.1,0.0,0.0,0.0,0.1
1446038655478534409,2,1446038655475182056,robocape,5.23400535747,3.66822795503,31.4341054469,0.0,10.0,0.0,0.0,0.0,10.0,0.0,0.0,0.0,10.0,0.00705737688871,0.0122505410144,0.00825579937925,1.0,0.0,0.0,0.0,1.0,0.0,0.0,0.0,1.0,0.0311352539063,0.0299377441406,10.0459094238,0.1,0.0,0.0,0.0,0.1,0.0,0.0,0.0,0.1
1446038655511087825,3,1446038655507778882,robocape,5.29975167093,3.6799373811,31.3619625584,0.0,10.0,0.0,0.0,0.0,10.0,0.0,0.0,0.0,10.0,0.0426105774413,0.00958737992429,0.00506000607115,1.0,0.0,0.0,0.0,1.0,0.0,0.0,0.0,1.0,-0.0227526855469,-0.0179626464844,10.0075891113,0.1,0.0,0.0,0.0,0.1,0.0,0.0,0.0,0.1
1446038655548123492,4,1446038655542972087,robocape,5.46736456607,3.69091572987,31.2888744167,0.0,10.0,0.0,0.0,0.0,10.0,0.0,0.0,0.0,10.0,0.0962732734064,0.00918790576077,0.00492684801665,1.0,0.0,0.0,0.0,1.0,0.0,0.0,0.0,1.0,0.00838256835938,-0.240699462891,9.99561401367,0.1,0.0,0.0,0.0,0.1,0.0,0.0,0.0,0.1
1446038655579363659,5,1446038655576086997,robocape,5.79072274458,3.69557076651,31.2191561252,0.0,10.0,0.0,0.0,0.0,10.0,0.0,0.0,0.0,10.0,0.178298634981,0.00612527050718,0.00785632521573,1.0,0.0,0.0,0.0,1.0,0.0,0.0,0.0,1.0,-0.0634680175781,-0.308957519531,9.98363891602,0.1,0.0,0.0,0.0,0.1,0.0,0.0,0.0,0.1
1446038655612492451,6,1446038655609309911,robocape,6.21550987284,3.69181600306,31.1795843968,0.0,10.0,0.0,0.0,0.0,10.0,0.0,0.0,0.0,10.0,0.231295540673,0.00359526747161,0.0258326625738,1.0,0.0,0.0,0.0,1.0,0.0,0.0,0.0,1.0,0.0203576660156,0.286204833984,10.0423168945,0.1,0.0,0.0,0.0,0.1,0.0,0.0,0.0,0.1
1446038655647046701,7,1446038655643942117,robocape,6.5926292091,3.68757551122,31.1681427365,0.0,10.0,0.0,0.0,0.0,10.0,0.0,0.0,0.0,10.0,0.206128668372,0.00519316412565,0.0415453130052,1.0,0.0,0.0,0.0,1.0,0.0,0.0,0.0,1.0,0.0443078613281,0.714913330078,9.95729370117,0.1,0.0,0.0,0.0,0.1,0.0,0.0,0.0,0.1
1446038655677817284,8,1446038655674338102,robocape,6.83446354026,3.68089845035,31.1909806829,0.0,10.0,0.0,0.0,0.0,10.0,0.0,0.0,0.0,10.0,0.134622793104,0.00625842856169,0.0601874406358,1.0,0.0,0.0,0.0,1.0,0.0,0.0,0.0,1.0,0.0395178222656,0.937650146484,9.90340576172,0.1,0.0,0.0,0.0,0.1,0.0,0.0,0.0,0.1
1446038655710362826,9,1446038655706999063,robocape,6.95998828531,3.68234563469,31.2196778838,0.0,10.0,0.0,0.0,0.0,10.0,0.0,0.0,0.0,10.0,0.0736364041407,0.0109189604693,0.0623179695079,1.0,0.0,0.0,0.0,1.0,0.0,0.0,0.0,1.0,0.00718505859375,1.15439941406,9.93094848633,0.1,0.0,0.0,0.0,0.1,0.0,0.0,0.0,0.1
1446038655744796826,10,1446038655741821050,robocape,6.94021194528,3.69343516798,31.2333365833,0.0,10.0,0.0,0.0,0.0,10.0,0.0,0.0,0.0,10.0,-0.00226368692657,0.0147805440499,0.0523311154201,1.0,0.0,0.0,0.0,1.0,0.0,0.0,0.0,1.0,0.0658630371094,1.13164672852,9.93334350586,0.1,0.0,0.0,0.0,0.1,0.0,0.0,0.0,0.1
1446038655777957201,11,1446038655774605989,robocape,6.83481417,3.7103732774,31.2182899129,0.0,10.0,0.0,0.0,0.0,10.0,0.0,0.0,0.0,10.0,-0.0466053190764,0.0157126504315,0.0352868844435,1.0,0.0,0.0,0.0,1.0,0.0,0.0,0.0,1.0,0.067060546875,1.00351318359,9.95489868164,0.1,0.0,0.0,0.0,0.1,0.0,0.0,0.0,0.1
1446038655809875076,12,1446038655806385993,robocape,6.56577652231,3.73329459251,31.1742316984,0.0,10.0,0.0,0.0,0.0,10.0,0.0,0.0,0.0,10.0,-0.132092790068,0.016644756813,0.01744370514,1.0,0.0,0.0,0.0,1.0,0.0,0.0,0.0,1.0,0.110170898438,0.865799560547,9.96926879883,0.1,0.0,0.0,0.0,0.1,0.0,0.0,0.0,0.1
1446038655844229367,13,1446038655841070890,robocape,6.22952908602,3.75995668245,31.1293009153,0.0,10.0,0.0,0.0,0.0,10.0,0.0,0.0,0.0,10.0,-0.167779148675,0.0185089695761,0.0162452826495,1.0,0.0,0.0,0.0,1.0,0.0,0.0,0.0,1.0,0.0886157226563,0.529299316406,9.95250366211,0.1,0.0,0.0,0.0,0.1,0.0,0.0,0.0,0.1
1446038655877427409,14,1446038655874106884,robocape,5.92498394063,3.7842359026,31.0794528549,0.0,10.0,0.0,0.0,0.0,10.0,0.0,0.0,0.0,10.0,-0.151400707971,0.0170442309765,0.0138484376684,1.0,0.0,0.0,0.0,1.0,0.0,0.0,0.0,1.0,0.0143701171875,-0.0131726074219,9.97166381836,0.1,0.0,0.0,0.0,0.1,0.0,0.0,0.0,0.1
1446038655910352242,15,1446038655907087087,robocape,5.74866960732,3.80396064088,31.0221341165,0.0,10.0,0.0,0.0,0.0,10.0,0.0,0.0,0.0,10.0,-0.0841558904465,0.0143810698864,0.0106526443603,1.0,0.0,0.0,0.0,1.0,0.0,0.0,0.0,1.0,-0.0562829589844,-0.304167480469,10.0027990723,0.1,0.0,0.0,0.0,0.1,0.0,0.0,0.0,0.1
1446038655944477326,16,1446038655941232919,robocape,5.72872130556,3.81976496512,30.958541416,0.0,10.0,0.0,0.0,0.0,10.0,0.0,0.0,0.0,10.0,-0.00199737081756,0.0121173829599,0.00812264132474,1.0,0.0,0.0,0.0,1.0,0.0,0.0,0.0,1.0,0.00119750976563,-0.245489501953,10.0147741699,0.1,0.0,0.0,0.0,0.1,0.0,0.0,0.0,0.1
1446038655976276451,17,1446038655973172903,robocape,5.84507414048,3.83234295495,30.8902272498,0.0,10.0,0.0,0.0,0.0,10.0,0.0,0.0,0.0,10.0,0.0697748205601,0.0102531701968,0.00625842856169,1.0,0.0,0.0,0.0,1.0,0.0,0.0,0.0,1.0,0.0143701171875,-0.0718505859375,10.019564209,0.1,0.0,0.0,0.0,0.1,0.0,0.0,0.0,0.1
1446038656008946951,18,1446038656005619049,robocape,6.03725243794,3.84251632101,30.8202115233,0.0,10.0,0.0,0.0,0.0,10.0,0.0,0.0,0.0,10.0,0.109855394966,0.00892158965177,0.00572579634367,1.0,0.0,0.0,0.0,1.0,0.0,0.0,0.0,1.0,-0.0251477050781,0.307760009766,10.0063916016,0.1,0.0,0.0,0.0,0.1,0.0,0.0,0.0,0.1
1446038656042688451,19,1446038656039418935,robocape,6.19218135544,3.85238981506,30.7496019433,0.0,10.0,0.0,0.0,0.0,10.0,0.0,0.0,0.0,10.0,0.0905474770627,0.00865527354276,0.00506000607115,1.0,0.0,0.0,0.0,1.0,0.0,0.0,0.0,1.0,0.0682580566406,0.620310058594,10.100994873,0.1,0.0,0.0,0.0,0.1,0.0,0.0,0.0,0.1
1446038656075679784,20,1446038656072585105,robocape,6.25510506731,3.86463616711,30.6843256363,0.0,10.0,0.0,0.0,0.0,10.0,0.0,0.0,0.0,10.0,0.0422111032778,0.0101200121423,0.00719053494321,1.0,0.0,0.0,0.0,1.0,0.0,0.0,0.0,1.0,0.118553466797,0.890947265625,9.96807128906,0.1,0.0,0.0,0.0,0.1,0.0,0.0,0.0,0.1
1446038656109341034,21,1446038656106070995,robocape,6.18093553629,3.88259799665,30.628611087,0.0,10.0,0.0,0.0,0.0,10.0,0.0,0.0,0.0,10.0,-0.0300937203179,0.0135821215594,0.0111852765783,1.0,0.0,0.0,0.0,1.0,0.0,0.0,0.0,1.0,0.0323327636719,0.859812011719,9.97525634766,0.1,0.0,0.0,0.0,0.1,0.0,0.0,0.0,0.1
1446038656142294201,22,1446038656139014959,robocape,6.01137239933,3.90273924443,30.5749141098,0.0,10.0,0.0,0.0,0.0,10.0,0.0,0.0,0.0,10.0,-0.0804274649204,0.0147805440499,0.0114515926873,1.0,0.0,0.0,0.0,1.0,0.0,0.0,0.0,1.0,0.0969982910156,0.583187255859,9.96328125,0.1,0.0,0.0,0.0,0.1,0.0,0.0,0.0,0.1
1446038656175350784,23,1446038656172230005,robocape,5.81828288723,3.92137217969,30.5229594682,0.0,10.0,0.0,0.0,0.0,10.0,0.0,0.0,0.0,10.0,-0.0930774800983,0.0141147537774,0.0122505410144,1.0,0.0,0.0,0.0,1.0,0.0,0.0,0.0,1.0,0.0107775878906,0.275427246094,9.97525634766,0.1,0.0,0.0,0.0,0.1,0.0,0.0,0.0,0.1
1446038656208128117,24,1446038656204842090,robocape,5.66842992065,3.94046194414,30.4657697523,0.0,10.0,0.0,0.0,0.0,10.0,0.0,0.0,0.0,10.0,-0.0704406108326,0.0141147537774,0.00945422186978,1.0,0.0,0.0,0.0,1.0,0.0,0.0,0.0,1.0,-0.0335302734375,0.0922082519531,10.0075891113,0.1,0.0,0.0,0.0,0.1,0.0,0.0,0.0,0.1
1446038656241685201,25,1446038656238423109,robocape,5.60451886601,3.95587092258,30.4033371291,0.0,10.0,0.0,0.0,0.0,10.0,0.0,0.0,0.0,10.0,-0.0253000303558,0.0119842249054,0.00705737688871,1.0,0.0,0.0,0.0,1.0,0.0,0.0,0.0,1.0,0.0047900390625,0.00359252929688,10.0147741699,0.1,0.0,0.0,0.0,0.1,0.0,0.0,0.0,0.1
1446038656274714659,26,1446038656271595001,robocape,5.64215416922,3.96868167809,30.3375822002,0.0,10.0,0.0,0.0,0.0,10.0,0.0,0.0,0.0,10.0,0.0280963495003,0.0105194863058,0.00572579634367,1.0,0.0,0.0,0.0,1.0,0.0,0.0,0.0,1.0,-0.0107775878906,-0.128133544922,10.0435144043,0.1,0.0,0.0,0.0,0.1,0.0,0.0,0.0,0.1
1446038656307808659,27,1446038656304718971,robocape,5.78719269278,3.98012810122,30.2692658153,0.0,10.0,0.0,0.0,0.0,10.0,0.0,0.0,0.0,10.0,0.0846885226645,0.00972053797879,0.00479368996214,1.0,0.0,0.0,0.0,1.0,0.0,0.0,0.0,1.0,-0.0311352539063,0.0131726074219,10.0363293457,0.1,0.0,0.0,0.0,0.1,0.0,0.0,0.0,0.1
1446038656341291284,28,1446038656338165998,robocape,6.01795487564,3.98974040086,30.1877519061,0.0,10.0,0.0,0.0,0.0,10.0,0.0,0.0,0.0,10.0,0.130361735359,0.00798948327024,-0.00213052887206,1.0,0.0,0.0,0.0,1.0,0.0,0.0,0.0,1.0,0.0335302734375,0.164058837891,10.039921875,0.1,0.0,0.0,0.0,0.1,0.0,0.0,0.0,0.1
1446038656378838243,29,1446038656372762918,robocape,6.22656360608,3.99729448275,30.1100631064,0.0,10.0,0.0,0.0,0.0,10.0,0.0,0.0,0.0,10.0,0.118910142672,0.00705737688871,-0.000133158054504,1.0,0.0,0.0,0.0,1.0,0.0,0.0,0.0,1.0,0.0562829589844,0.811911621094,9.99202148437,0.1,0.0,0.0,0.0,0.1,0.0,0.0,0.0,0.1
1446038656408672118,30,1446038656405630111,robocape,6.27328291596,4.01064199861,30.0485716365,0.0,10.0,0.0,0.0,0.0,10.0,0.0,0.0,0.0,10.0,0.033555829735,0.0109189604693,0.00745685105222,1.0,0.0,0.0,0.0,1.0,0.0,0.0,0.0,1.0,0.149688720703,0.974772949219,9.96926879883,0.1,0.0,0.0,0.0,0.1,0.0,0.0,0.0,0.1
1446038656441444659,31,1446038656438163042,robocape,6.13661281307,4.02677491273,30.0004365497,0.0,10.0,0.0,0.0,0.0,10.0,0.0,0.0,0.0,10.0,-0.0632500758894,0.0130494893414,0.0134489635049,1.0,0.0,0.0,0.0,1.0,0.0,0.0,0.0,1.0,0.112565917969,0.801134033203,9.98723144531,0.1,0.0,0.0,0.0,0.1,0.0,0.0,0.0,0.1
1446038656474409618,32,1446038656471344947,robocape,5.91974452201,4.04534908257,29.9605269593,0.0,10.0,0.0,0.0,0.0,10.0,0.0,0.0,0.0,10.0,-0.105860653331,0.0147805440499,0.0173105470855,1.0,0.0,0.0,0.0,1.0,0.0,0.0,0.0,1.0,0.0455053710938,0.522114257812,9.94771362305,0.1,0.0,0.0,0.0,0.1,0.0,0.0,0.0,0.1
1446038656507845243,33,1446038656504806995,robocape,5.68320167676,4.06607772219,29.9172847383,0.0,10.0,0.0,0.0,0.0,10.0,0.0,0.0,0.0,10.0,-0.116380139636,0.0157126504315,0.0151800182135,1.0,0.0,0.0,0.0,1.0,0.0,0.0,0.0,1.0,0.01916015625,0.180823974609,9.96567626953,0.1,0.0,0.0,0.0,0.1,0.0,0.0,0.0,0.1
1446038656541537993,34,1446038656538189888,robocape,5.53524588214,4.08451793167,29.8675542931,0.0,10.0,0.0,0.0,0.0,10.0,0.0,0.0,0.0,10.0,-0.0699079786146,0.0142479118319,0.0121173829599,1.0,0.0,0.0,0.0,1.0,0.0,0.0,0.0,1.0,-0.0227526855469,-0.179626464844,9.98842895508,0.1,0.0,0.0,0.0,0.1,0.0,0.0,0.0,0.1
1446038656574446201,35,1446038656571444988,robocape,5.52283673335,4.09926050543,29.8121034216,0.0,10.0,0.0,0.0,0.0,10.0,0.0,0.0,0.0,10.0,0.00133158054504,0.0121173829599,0.00972053797879,1.0,0.0,0.0,0.0,1.0,0.0,0.0,0.0,1.0,-0.0538879394531,-0.155676269531,10.0219592285,0.1,0.0,0.0,0.0,0.1,0.0,0.0,0.0,0.1
1446038656607999868,36,1446038656604963064,robocape,5.6171656325,4.11078650691,29.7451103503,0.0,10.0,0.0,0.0,0.0,10.0,0.0,0.0,0.0,10.0,0.0577905956547,0.00985369603329,0.00386158358061,1.0,0.0,0.0,0.0,1.0,0.0,0.0,0.0,1.0,0.00119750976563,0.0646655273438,9.99202148437,0.1,0.0,0.0,0.0,0.1,0.0,0.0,0.0,0.1
1446038656641265159,37,1446038656638190031,robocape,5.75119131933,4.12124389086,29.6807755738,0.0,10.0,0.0,0.0,0.0,10.0,0.0,0.0,0.0,10.0,0.0786964102118,0.00945422186978,0.00545948023466,1.0,0.0,0.0,0.0,1.0,0.0,0.0,0.0,1.0,0.0538879394531,0.308957519531,9.98723144531,0.1,0.0,0.0,0.0,0.1,0.0,0.0,0.0,0.1
1446038656675868743,38,1446038656672759056,robocape,5.85419532072,4.13267531631,29.619938631,0.0,10.0,0.0,0.0,0.0,10.0,0.0,0.0,0.0,10.0,0.0624511275624,0.0101200121423,0.00705737688871,1.0,0.0,0.0,0.0,1.0,0.0,0.0,0.0,1.0,0.0886157226563,0.578397216797,9.98004638672,0.1,0.0,0.0,0.0,0.1,0.0,0.0,0.0,0.1
1446038656707577909,39,1446038656704582929,robocape,5.87376172682,4.14630389856,29.5613473441,0.0,10.0,0.0,0.0,0.0,10.0,0.0,0.0,0.0,10.0,0.0186421276306,0.0113184346328,0.00759000910673,1.0,0.0,0.0,0.0,1.0,0.0,0.0,0.0,1.0,0.0634680175781,0.765208740234,9.94891113281,0.1,0.0,0.0,0.0,0.1,0.0,0.0,0.0,0.1
1446038656741298451,40,1446038656738176107,robocape,5.7824144481,4.16309921006,29.50778492,0.0,10.0,0.0,0.0,0.0,10.0,0.0,0.0,0.0,10.0,-0.0398142582967,0.0131826473959,0.00945422186978,1.0,0.0,0.0,0.0,1.0,0.0,0.0,0.0,1.0,0.0742456054688,0.692160644531,9.98363891602,0.1,0.0,0.0,0.0,0.1,0.0,0.0,0.0,0.1
1446038656774365326,41,1446038656771327018,robocape,5.59864489138,4.18174203954,29.4591219483,0.0,10.0,0.0,0.0,0.0,10.0,0.0,0.0,0.0,10.0,-0.0886832642996,0.0143810698864,0.0114515926873,1.0,0.0,0.0,0.0,1.0,0.0,0.0,0.0,1.0,0.0586779785156,0.556842041016,9.97884887695,0.1,0.0,0.0,0.0,0.1,0.0,0.0,0.0,0.1
1446038656807724826,42,1446038656804636955,robocape,5.38070396358,4.1999641947,29.4118525409,0.0,10.0,0.0,0.0,0.0,10.0,0.0,0.0,0.0,10.0,-0.106925917767,0.0142479118319,0.0119842249054,1.0,0.0,0.0,0.0,1.0,0.0,0.0,0.0,1.0,0.00359252929688,0.192799072266,10.0004040527,0.1,0.0,0.0,0.0,0.1,0.0,0.0,0.0,0.1
1446038656841173076,43,1446038656838104009,robocape,5.18321488008,4.21651444094,29.3552836297,0.0,10.0,0.0,0.0,0.0,10.0,0.0,0.0,0.0,10.0,-0.0961401153519,0.0129163312869,0.00692421883421,1.0,0.0,0.0,0.0,1.0,0.0,0.0,0.0,1.0,0.01916015625,-0.1149609375,10.0231567383,0.1,0.0,0.0,0.0,0.1,0.0,0.0,0.0,0.1
1446038656874378451,44,1446038656871274948,robocape,5.15226331427,4.23109239482,29.3001668252,0.0,10.0,0.0,0.0,0.0,10.0,0.0,0.0,0.0,10.0,-0.00892158965177,0.0121173829599,0.00852211548825,1.0,0.0,0.0,0.0,1.0,0.0,0.0,0.0,1.0,-0.0299377441406,-0.165256347656,10.0614770508,0.1,0.0,0.0,0.0,0.1,0.0,0.0,0.0,0.1
1446038656907614451,45,1446038656904521942,robocape,5.21439372606,4.24389545601,29.2412501625,0.0,10.0,0.0,0.0,0.0,10.0,0.0,0.0,0.0,10.0,0.0400805744057,0.0110521185238,0.0067910607797,1.0,0.0,0.0,0.0,1.0,0.0,0.0,0.0,1.0,-0.00119750976563,-0.0754431152344,10.024354248,0.1,0.0,0.0,0.0,0.1,0.0,0.0,0.0,0.1
1446038656941394368,46,1446038656937954902,robocape,5.34455314985,4.25497401627,29.1787430203,0.0,10.0,0.0,0.0,0.0,10.0,0.0,0.0,0.0,10.0,0.0760332491218,0.0099868540878,0.00506000607115,1.0,0.0,0.0,0.0,1.0,0.0,0.0,0.0,1.0,0.01916015625,0.0706530761719,9.99561401367,0.1,0.0,0.0,0.0,0.1,0.0,0.0,0.0,0.1
1446038656974793618,47,1446038656971446990,robocape,5.49994052259,4.26460812284,29.1156379382,0.0,10.0,0.0,0.0,0.0,10.0,0.0,0.0,0.0,10.0,0.0894822126267,0.00918790576077,0.00479368996214,1.0,0.0,0.0,0.0,1.0,0.0,0.0,0.0,1.0,0.0275427246094,0.324525146484,10.0004040527,0.1,0.0,0.0,0.0,0.1,0.0,0.0,0.0,0.1
1446038657008326201,48,1446038657004853963,robocape,5.62157273589,4.27550215404,29.0536381016,0.0,10.0,0.0,0.0,0.0,10.0,0.0,0.0,0.0,10.0,0.0719053494321,0.00985369603329,0.00506000607115,1.0,0.0,0.0,0.0,1.0,0.0,0.0,0.0,1.0,0.0407153320313,0.51732421875,10.0171691895,0.1,0.0,0.0,0.0,0.1,0.0,0.0,0.0,0.1
1446038657041779243,49,1446038657038120985,robocape,5.64540072268,4.28840766355,28.9958448152,0.0,10.0,0.0,0.0,0.0,10.0,0.0,0.0,0.0,10.0,0.0205063403936,0.0110521185238,0.0066579027252,1.0,0.0,0.0,0.0,1.0,0.0,0.0,0.0,1.0,0.0682580566406,0.640667724609,9.99681152344,0.1,0.0,0.0,0.0,0.1,0.0,0.0,0.0,0.1
1446038657074522868,50,1446038657071365118,robocape,5.57218147584,4.3040445329,28.9423393624,0.0,10.0,0.0,0.0,0.0,10.0,0.0,0.0,0.0,10.0,-0.0306263525359,0.0126500151779,0.00825579937925,1.0,0.0,0.0,0.0,1.0,0.0,0.0,0.0,1.0,0.0443078613281,0.635877685547,9.98603393555,0.1,0.0,0.0,0.0,0.1,0.0,0.0,0.0,0.1
1446038657107870576,51,1446038657104706048,robocape,5.44094819934,4.32038357433,28.889900685,0.0,10.0,0.0,0.0,0.0,10.0,0.0,0.0,0.0,10.0,-0.0612527050718,0.0130494893414,0.00838895743375,1.0,0.0,0.0,0.0,1.0,0.0,0.0,0.0,1.0,0.0467028808594,0.340092773437,9.98962646484,0.1,0.0,0.0,0.0,0.1,0.0,0.0,0.0,0.1
1446038657141774243,52,1446038657138206958,robocape,5.31401488268,4.33611629687,28.8402074576,0.0,10.0,0.0,0.0,0.0,10.0,0.0,0.0,0.0,10.0,-0.0592553342543,0.0129163312869,0.00985369603329,1.0,0.0,0.0,0.0,1.0,0.0,0.0,0.0,1.0,0.0143701171875,0.119750976563,10.0063916016,0.1,0.0,0.0,0.0,0.1,0.0,0.0,0.0,0.1
1446038657174593285,53,1446038657171561956,robocape,5.22022596215,4.35191798179,28.7889775588,0.0,10.0,0.0,0.0,0.0,10.0,0.0,0.0,0.0,10.0,-0.0419447871687,0.0129163312869,0.00905474770627,1.0,0.0,0.0,0.0,1.0,0.0,0.0,0.0,1.0,0.0263452148438,0.100590820313,10.0063916016,0.1,0.0,0.0,0.0,0.1,0.0,0.0,0.0,0.1
1446038657207719910,54,1446038657204699039,robocape,5.16446926427,4.36642464892,28.734649168,0.0,10.0,0.0,0.0,0.0,10.0,0.0,0.0,0.0,10.0,-0.0219710789932,0.0121173829599,0.00745685105222,1.0,0.0,0.0,0.0,1.0,0.0,0.0,0.0,1.0,0.0443078613281,0.0634680175781,10.0087866211,0.1,0.0,0.0,0.0,0.1,0.0,0.0,0.0,0.1
1446038657241505493,55,1446038657238389968,robocape,5.0967229512,4.37985475114,28.680808304,0.0,10.0,0.0,0.0,0.0,10.0,0.0,0.0,0.0,10.0,-0.0283626656093,0.0115847507418,0.00759000910673,1.0,0.0,0.0,0.0,1.0,0.0,0.0,0.0,1.0,0.0251477050781,0.0490979003906,10.0111816406,0.1,0.0,0.0,0.0,0.1,0.0,0.0,0.0,0.1
1446038657274600910,56,1446038657271425008,robocape,5.13358413312,4.39332489143,28.6275354531,0.0,10.0,0.0,0.0,0.0,10.0,0.0,0.0,0.0,10.0,0.0264984528463,0.0117179087963,0.00825579937925,1.0,0.0,0.0,0.0,1.0,0.0,0.0,0.0,1.0,0.00718505859375,0.0898132324219,10.0219592285,0.1,0.0,0.0,0.0,0.1,0.0,0.0,0.0,0.1
1446038657308908076,57,1446038657305886030,robocape,5.20422707782,4.40612732675,28.5729566369,0.0,10.0,0.0,0.0,0.0,10.0,0.0,0.0,0.0,10.0,0.0443416321498,0.0113184346328,0.00759000910673,1.0,0.0,0.0,0.0,1.0,0.0,0.0,0.0,1.0,-0.00239501953125,0.158071289063,9.9980090332,0.1,0.0,0.0,0.0,0.1,0.0,0.0,0.0,0.1
1446038657342025201,58,1446038657338351011,robocape,5.2782661265,4.41752646417,28.5148573609,0.0,10.0,0.0,0.0,0.0,10.0,0.0,0.0,0.0,10.0,0.0463390029674,0.0103863282513,0.00559263828917,1.0,0.0,0.0,0.0,1.0,0.0,0.0,0.0,1.0,0.0263452148438,0.40236328125,9.99202148437,0.1,0.0,0.0,0.0,0.1,0.0,0.0,0.0,0.1
1446038657378828410,59,1446038657373219966,robocape,5.29301287823,4.43079587121,28.459331948,0.0,10.0,0.0,0.0,0.0,10.0,0.0,0.0,0.0,10.0,0.0151800182135,0.0114515926873,0.00652474467069,1.0,0.0,0.0,0.0,1.0,0.0,0.0,0.0,1.0,0.0467028808594,0.584384765625,10.0183666992,0.1,0.0,0.0,0.0,0.1,0.0,0.0,0.0,0.1
1446038657411106701,60,1446038657407831907,robocape,5.2130720446,4.43462506817,28.4980192865,0.0,10.0,0.0,0.0,0.0,10.0,0.0,0.0,0.0,10.0,-0.0379500455336,0.0115847507418,0.0585895439817,1.0,0.0,0.0,0.0,1.0,0.0,0.0,0.0,1.0,0.076640625,0.889749755859,9.97645385742,0.1,0.0,0.0,0.0,0.1,0.0,0.0,0.0,0.1
1446038657443488035,61,1446038657440287113,robocape,4.90837591319,4.4274687074,28.6510929298,0.0,10.0,0.0,0.0,0.0,10.0,0.0,0.0,0.0,10.0,-0.160322297623,0.0115847507418,0.121573303762,1.0,0.0,0.0,0.0,1.0,0.0,0.0,0.0,1.0,0.110170898438,0.267044677734,9.9668737793,0.1,0.0,0.0,0.0,0.1,0.0,0.0,0.0,0.1
1446038657476133618,62,1446038657472985982,robocape,4.63931739419,4.40785878324,28.8578491741,0.0,10.0,0.0,0.0,0.0,10.0,0.0,0.0,0.0,10.0,-0.143943856919,0.00732369299772,0.152599130462,1.0,0.0,0.0,0.0,1.0,0.0,0.0,0.0,1.0,0.102985839844,-0.13412109375,9.99082397461,0.1,0.0,0.0,0.0,0.1,0.0,0.0,0.0,0.1
1446038657509520660,63,1446038657506402015,robocape,4.46163059682,4.38025241346,29.0688324223,0.0,10.0,0.0,0.0,0.0,10.0,0.0,0.0,0.0,10.0,-0.0964064314609,0.00292947719909,0.156327555988,1.0,0.0,0.0,0.0,1.0,0.0,0.0,0.0,1.0,0.0934057617188,-0.245489501953,9.98842895508,0.1,0.0,0.0,0.0,0.1,0.0,0.0,0.0,0.1
1446038657543186868,64,1446038657539877891,robocape,4.38024609701,4.34957802448,29.2676818215,0.0,10.0,0.0,0.0,0.0,10.0,0.0,0.0,0.0,10.0,-0.0455400546404,0.000532632218016,0.150734917698,1.0,0.0,0.0,0.0,1.0,0.0,0.0,0.0,1.0,-0.197589111328,-0.123343505859,10.0435144043,0.1,0.0,0.0,0.0,0.1,0.0,0.0,0.0,0.1
1446038657578645451,65,1446038657575536966,robocape,4.36047655728,4.3128937656,29.5070841008,0.0,10.0,0.0,0.0,0.0,10.0,0.0,0.0,0.0,10.0,-0.0146473859954,-0.000798948327024,0.1744370514,1.0,0.0,0.0,0.0,1.0,0.0,0.0,0.0,1.0,-0.0538879394531,-0.396375732422,10.0435144043,0.1,0.0,0.0,0.0,0.1,0.0,0.0,0.0,0.1
1446038657611444743,66,1446038657608340024,robocape,4.50061937269,4.28402209723,29.6481037628,0.0,10.0,0.0,0.0,0.0,10.0,0.0,0.0,0.0,10.0,0.0729706138682,-0.00106526443603,0.120641197381,1.0,0.0,0.0,0.0,1.0,0.0,0.0,0.0,1.0,0.160466308594,-0.889749755859,10.1405126953,0.1,0.0,0.0,0.0,0.1,0.0,0.0,0.0,0.1
1446038657645444285,67,1446038657640065908,robocape,4.90758521911,4.27656712108,29.625330888,0.0,10.0,0.0,0.0,0.0,10.0,0.0,0.0,0.0,10.0,0.219178157714,0.00266316109008,0.0299605622634,1.0,0.0,0.0,0.0,1.0,0.0,0.0,0.0,1.0,-0.124541015625,-0.347277832031,10.0075891113,0.1,0.0,0.0,0.0,0.1,0.0,0.0,0.0,0.1
1446038657676062993,68,1446038657673032999,robocape,5.37914960436,4.28798901485,29.5422228703,0.0,10.0,0.0,0.0,0.0,10.0,0.0,0.0,0.0,10.0,0.255796622702,0.00945422186978,-0.00399474163512,1.0,0.0,0.0,0.0,1.0,0.0,0.0,0.0,1.0,-0.137713623047,0.372425537109,9.83275268555,0.1,0.0,0.0,0.0,0.1,0.0,0.0,0.0,0.1
1446038657710299452,69,1446038657706793069,robocape,5.91072041459,4.31330760466,29.3088984344,0.0,10.0,0.0,0.0,0.0,10.0,0.0,0.0,0.0,10.0,0.293080877963,0.00785632521573,-0.0878843159726,1.0,0.0,0.0,0.0,1.0,0.0,0.0,0.0,1.0,0.361647949219,0.781973876953,9.94292358398,0.1,0.0,0.0,0.0,0.1,0.0,0.0,0.0,0.1
1446038657745676410,70,1446038657741319894,robocape,6.16588281766,4.33515872315,29.1391102956,0.0,10.0,0.0,0.0,0.0,10.0,0.0,0.0,0.0,10.0,0.1463407019,0.00905474770627,-0.0540621701286,1.0,0.0,0.0,0.0,1.0,0.0,0.0,0.0,1.0,0.359252929688,1.69687133789,9.89143066406,0.1,0.0,0.0,0.0,0.1,0.0,0.0,0.0,0.1
1446038657778047785,71,1446038657774183988,robocape,5.98706482425,4.36215887399,29.0514382424,0.0,10.0,0.0,0.0,0.0,10.0,0.0,0.0,0.0,10.0,-0.084289048501,0.016378440704,-0.0115847507418,1.0,0.0,0.0,0.0,1.0,0.0,0.0,0.0,1.0,-0.0371228027344,1.6058605957,9.90340576172,0.1,0.0,0.0,0.0,0.1,0.0,0.0,0.0,0.1
1446038657811948535,72,1446038657808388948,robocape,5.6105599865,4.41422639133,28.8612796353,0.0,10.0,0.0,0.0,0.0,10.0,0.0,0.0,0.0,10.0,-0.184823379651,0.0233026595382,-0.0709732430506,1.0,0.0,0.0,0.0,1.0,0.0,0.0,0.0,1.0,0.274229736328,0.586779785156,10.0267492676,0.1,0.0,0.0,0.0,0.1,0.0,0.0,0.0,0.1
1446038657845716535,73,1446038657842226028,robocape,5.26551739396,4.47705672736,28.5701828625,0.0,10.0,0.0,0.0,0.0,10.0,0.0,0.0,0.0,10.0,-0.16498282953,0.0238352917562,-0.12743225816,1.0,0.0,0.0,0.0,1.0,0.0,0.0,0.0,1.0,0.192799072266,0.21076171875,10.0387243652,0.1,0.0,0.0,0.0,0.1,0.0,0.0,0.0,0.1
1446038657879280410,74,1446038657875819921,robocape,5.02792163206,4.55028135741,28.1326200315,0.0,10.0,0.0,0.0,0.0,10.0,0.0,0.0,0.0,10.0,-0.103330650295,0.0222373951022,-0.208791829462,1.0,0.0,0.0,0.0,1.0,0.0,0.0,0.0,1.0,-0.131726074219,0.0826281738281,9.99082397461,0.1,0.0,0.0,0.0,0.1,0.0,0.0,0.0,0.1
1446038657911325910,75,1446038657907895088,robocape,4.85843035682,4.62503274255,27.5964659174,0.0,10.0,0.0,0.0,0.0,10.0,0.0,0.0,0.0,10.0,-0.0637827081074,0.0187752856851,-0.263519789863,1.0,0.0,0.0,0.0,1.0,0.0,0.0,0.0,1.0,-0.00598754882813,-0.0383203125,9.99321899414,0.1,0.0,0.0,0.0,0.1,0.0,0.0,0.0,0.1
1446038657945274910,76,1446038657941973924,robocape,4.77257528697,4.69125645704,26.9638762719,0.0,10.0,0.0,0.0,0.0,10.0,0.0,0.0,0.0,10.0,-0.0159789665405,0.0101200121423,-0.316516695556,1.0,0.0,0.0,0.0,1.0,0.0,0.0,0.0,1.0,0.132923583984,0.251477050781,9.93933105469,0.1,0.0,0.0,0.0,0.1,0.0,0.0,0.0,0.1
1446038657978285618,77,1446038657975019931,robocape,4.64971156685,4.73647953576,26.2837396443,0.0,10.0,0.0,0.0,0.0,10.0,0.0,0.0,0.0,10.0,-0.033289513626,-0.00266316109008,-0.342482516184,1.0,0.0,0.0,0.0,1.0,0.0,0.0,0.0,1.0,-0.102985839844,0.912502441406,9.93334350586,0.1,0.0,0.0,0.0,0.1,0.0,0.0,0.0,0.1
1446038658011429910,78,1446038658008183956,robocape,4.12128338981,4.75362855329,25.8865484118,0.0,10.0,0.0,0.0,0.0,10.0,0.0,0.0,0.0,10.0,-0.257261361302,-0.00266316109008,-0.188285489069,1.0,0.0,0.0,0.0,1.0,0.0,0.0,0.0,1.0,0.180823974609,1.09811645508,9.90340576172,0.1,0.0,0.0,0.0,0.1,0.0,0.0,0.0,0.1
1446038658044154118,79,1446038658040689945,robocape,3.31708810311,4.74227992307,25.6635852407,0.0,10.0,0.0,0.0,0.0,10.0,0.0,0.0,0.0,10.0,-0.4094610176,-0.00852211548825,-0.0930774800983,1.0,0.0,0.0,0.0,1.0,0.0,0.0,0.0,1.0,0.302969970703,0.09580078125,9.9980090332,0.1,0.0,0.0,0.0,0.1,0.0,0.0,0.0,0.1
1446038658078411368,80,1446038658075139999,robocape,2.37810149359,4.70938661127,25.6840297905,0.0,10.0,0.0,0.0,0.0,10.0,0.0,0.0,0.0,10.0,-0.491086905011,-0.0105194863058,0.0407463646782,1.0,0.0,0.0,0.0,1.0,0.0,0.0,0.0,1.0,0.0203576660156,0.0119750976563,10.1297351074,0.1,0.0,0.0,0.0,0.1,0.0,0.0,0.0,0.1
1446038658110305827,81,1446038658107160091,robocape,1.48665725198,4.67634681755,25.6907921411,0.0,10.0,0.0,0.0,0.0,10.0,0.0,0.0,0.0,10.0,-0.466585822982,-0.0111852765783,0.0339553038985,1.0,0.0,0.0,0.0,1.0,0.0,0.0,0.0,1.0,-0.300574951172,-0.340092773437,10.0207617188,0.1,0.0,0.0,0.0,0.1,0.0,0.0,0.0,0.1
1446038658144450410,82,1446038658141017913,robocape,0.603902117656,4.63928416267,25.717766703,0.0,10.0,0.0,0.0,0.0,10.0,0.0,0.0,0.0,10.0,-0.463922661892,-0.0131826473959,0.0456732126949,1.0,0.0,0.0,0.0,1.0,0.0,0.0,0.0,1.0,-0.293389892578,-0.714913330078,9.96807128906,0.1,0.0,0.0,0.0,0.1,0.0,0.0,0.0,0.1
1446038658177528660,83,1446038658174242019,robocape,-0.211474498918,4.59954311933,25.7492547913,0.0,10.0,0.0,0.0,0.0,10.0,0.0,0.0,0.0,10.0,-0.429834199939,-0.0149137021044,0.0487358479485,1.0,0.0,0.0,0.0,1.0,0.0,0.0,0.0,1.0,-0.174836425781,-0.744851074219,10.0782421875,0.1,0.0,0.0,0.0,0.1,0.0,0.0,0.0,0.1
1446038658209734952,84,1446038658206676959,robocape,-0.804918719979,4.56438768288,25.6657537496,0.0,10.0,0.0,0.0,0.0,10.0,0.0,0.0,0.0,10.0,-0.309326160613,-0.0129163312869,-0.0142479118319,1.0,0.0,0.0,0.0,1.0,0.0,0.0,0.0,1.0,0.0622705078125,-1.93397827148,10.0997973633,0.1,0.0,0.0,0.0,0.1,0.0,0.0,0.0,0.1
1446038658244129035,85,1446038658241065979,robocape,-1.05908850689,4.54942329299,25.6582455057,0.0,10.0,0.0,0.0,0.0,10.0,0.0,0.0,0.0,10.0,-0.135288583376,-0.00253000303558,0.0272974011733,1.0,0.0,0.0,0.0,1.0,0.0,0.0,0.0,1.0,0.251477050781,-2.11959228516,10.0626745605,0.1,0.0,0.0,0.0,0.1,0.0,0.0,0.0,0.1
1446038658277078827,86,1446038658273757934,robocape,-0.987624017429,4.56958967231,25.6853510262,0.0,10.0,0.0,0.0,0.0,10.0,0.0,0.0,0.0,10.0,0.033822145844,0.015579492377,0.0462058449129,1.0,0.0,0.0,0.0,1.0,0.0,0.0,0.0,1.0,0.198786621094,-2.11240722656,10.0207617188,0.1,0.0,0.0,0.0,0.1,0.0,0.0,0.0,0.1
1446038658309337660,87,1446038658306283950,robocape,-0.605392395639,4.61540960794,25.7234548003,0.0,10.0,0.0,0.0,0.0,10.0,0.0,0.0,0.0,10.0,0.196541288448,0.0290284558819,0.0519316412565,1.0,0.0,0.0,0.0,1.0,0.0,0.0,0.0,1.0,0.235909423828,-1.71124145508,9.9980090332,0.1,0.0,0.0,0.0,0.1,0.0,0.0,0.0,0.1
1446038658343242660,88,1446038658340141057,robocape,-0.0401405574326,4.6692428442,25.7695297371,0.0,10.0,0.0,0.0,0.0,10.0,0.0,0.0,0.0,10.0,0.2926814038,0.033555829735,0.0560595409462,1.0,0.0,0.0,0.0,1.0,0.0,0.0,0.0,1.0,-0.0826281738281,-1.04782104492,10.1944006348,0.1,0.0,0.0,0.0,0.1,0.0,0.0,0.0,0.1
1446038658377301910,89,1446038658374227046,robocape,0.51705174692,4.71532374586,25.809638175,0.0,10.0,0.0,0.0,0.0,10.0,0.0,0.0,0.0,10.0,0.289352452437,0.0299605622634,0.0528637476381,1.0,0.0,0.0,0.0,1.0,0.0,0.0,0.0,1.0,-0.262254638672,-0.819096679688,9.98962646484,0.1,0.0,0.0,0.0,0.1,0.0,0.0,0.0,0.1
1446038658411458994,90,1446038658408340930,robocape,1.17656081703,4.75608797666,25.7393232343,0.0,10.0,0.0,0.0,0.0,10.0,0.0,0.0,0.0,10.0,0.348474628637,0.0262321367373,-0.00785632521573,1.0,0.0,0.0,0.0,1.0,0.0,0.0,0.0,1.0,-0.00838256835938,-0.707728271484,9.97405883789,0.1,0.0,0.0,0.0,0.1,0.0,0.0,0.0,0.1
1446038658442199827,91,1446038658439172029,robocape,1.93400511795,4.7957895564,25.5902395624,0.0,10.0,0.0,0.0,0.0,10.0,0.0,0.0,0.0,10.0,0.404001537365,0.0239684498107,-0.0511326929295,1.0,0.0,0.0,0.0,1.0,0.0,0.0,0.0,1.0,0.111368408203,-0.817899169922,9.97166381836,0.1,0.0,0.0,0.0,0.1,0.0,0.0,0.0,0.1
1446038658475006369,92,1446038658471869945,robocape,2.8828847418,4.83768796225,25.2201198038,0.0,10.0,0.0,0.0,0.0,10.0,0.0,0.0,0.0,10.0,0.514655880658,0.018242653467,-0.172306522528,1.0,0.0,0.0,0.0,1.0,0.0,0.0,0.0,1.0,-0.00119750976563,0.280217285156,9.99082397461,0.1,0.0,0.0,0.0,0.1,0.0,0.0,0.0,0.1
1446038658508252410,93,1446038658505214929,robocape,3.45352015148,4.86100744836,24.9457272596,0.0,10.0,0.0,0.0,0.0,10.0,0.0,0.0,0.0,10.0,0.313187744193,0.00945422186978,-0.119842249054,1.0,0.0,0.0,0.0,1.0,0.0,0.0,0.0,1.0,-0.131726074219,2.02858154297,9.97166381836,0.1,0.0,0.0,0.0,0.1,0.0,0.0,0.0,0.1
1446038658541659452,94,1446038658538403034,robocape,3.47711353228,4.87748010232,24.7906379652,0.0,10.0,0.0,0.0,0.0,10.0,0.0,0.0,0.0,10.0,0.0217047628841,0.00945422186978,-0.0557932248372,1.0,0.0,0.0,0.0,1.0,0.0,0.0,0.0,1.0,0.269439697266,1.45377685547,9.93693603516,0.1,0.0,0.0,0.0,0.1,0.0,0.0,0.0,0.1
1446038658575068035,95,1446038658572020053,robocape,3.2076358115,4.88396705008,24.5074427032,0.0,10.0,0.0,0.0,0.0,10.0,0.0,0.0,0.0,10.0,-0.126633309833,-0.000399474163512,-0.126500151779,1.0,0.0,0.0,0.0,1.0,0.0,0.0,0.0,1.0,-0.0718505859375,1.09212890625,9.94292358398,0.1,0.0,0.0,0.0,0.1,0.0,0.0,0.0,0.1
1446038658608131869,96,1446038658605093002,robocape,2.57536464739,4.8686518313,24.2579014318,0.0,10.0,0.0,0.0,0.0,10.0,0.0,0.0,0.0,10.0,-0.318647224428,-0.00985369603329,-0.10879013053,1.0,0.0,0.0,0.0,1.0,0.0,0.0,0.0,1.0,0.147293701172,1.25379272461,9.90939331055,0.1,0.0,0.0,0.0,0.1,0.0,0.0,0.0,0.1
1446038658641448660,97,1446038658638428926,robocape,1.54755136807,4.80860817292,24.207356288,0.0,10.0,0.0,0.0,0.0,10.0,0.0,0.0,0.0,10.0,-0.53542853716,-0.0268979270098,-0.000266316109008,1.0,0.0,0.0,0.0,1.0,0.0,0.0,0.0,1.0,0.0526904296875,0.573607177734,10.1021923828,0.1,0.0,0.0,0.0,0.1,0.0,0.0,0.0,0.1
1446038658674934160,98,1446038658671827077,robocape,0.250298766198,4.73367922575,24.2862849701,0.0,10.0,0.0,0.0,0.0,10.0,0.0,0.0,0.0,10.0,-0.683633451823,-0.0326237233535,0.0707069269416,1.0,0.0,0.0,0.0,1.0,0.0,0.0,0.0,1.0,-0.207169189453,-0.0227526855469,10.0734521484,0.1,0.0,0.0,0.0,0.1,0.0,0.0,0.0,0.1
1446038658707721785,99,1446038658704701900,robocape,-1.12337735612,4.62528378417,24.3648743453,0.0,10.0,0.0,0.0,0.0,10.0,0.0,0.0,0.0,10.0,-0.725311922883,-0.051265850984,0.0712395591596,1.0,0.0,0.0,0.0,1.0,0.0,0.0,0.0,1.0,-0.477806396484,-2.13635742188,10.0051940918,0.1,0.0,0.0,0.0,0.1,0.0,0.0,0.0,0.1
1446038658741171077,100,1446038658738142967,robocape,-2.01125879046,4.54612030504,24.3096583688,0.0,10.0,0.0,0.0,0.0,10.0,0.0,0.0,0.0,10.0,-0.466053190764,-0.0356863586071,-0.00146473859954,1.0,0.0,0.0,0.0,1.0,0.0,0.0,0.0,1.0,0.329315185547,-2.25610839844,9.95729370117,0.1,0.0,0.0,0.0,0.1,0.0,0.0,0.0,0.1
1446038658774355577,101,1446038658771316051,robocape,-2.54883297139,4.51448887921,24.3310155904,0.0,10.0,0.0,0.0,0.0,10.0,0.0,0.0,0.0,10.0,-0.286689291347,-0.0119842249054,0.0408795227327,1.0,0.0,0.0,0.0,1.0,0.0,0.0,0.0,1.0,0.547261962891,-3.00694702148,10.0339343262,0.1,0.0,0.0,0.0,0.1,0.0,0.0,0.0,0.1
1446038658807891744,102,1446038658804784059,robocape,-2.45254667065,4.5397574461,24.2781751599,0.0,10.0,0.0,0.0,0.0,10.0,0.0,0.0,0.0,10.0,0.048869006003,0.0187752856851,0.0,1.0,0.0,0.0,0.0,1.0,0.0,0.0,0.0,1.0,0.276624755859,-3.34823730469,10.0375268555,0.1,0.0,0.0,0.0,0.1,0.0,0.0,0.0,0.1
1446038658841524535,103,1446038658838447093,robocape,-1.83831206441,4.62212283501,24.2258510395,0.0,10.0,0.0,0.0,0.0,10.0,0.0,0.0,0.0,10.0,0.320910911355,0.0483363737849,-0.000266316109008,1.0,0.0,0.0,0.0,1.0,0.0,0.0,0.0,1.0,0.362845458984,-2.23814575195,9.97765136719,0.1,0.0,0.0,0.0,0.1,0.0,0.0,0.0,0.1
1446038658875090369,104,1446038658871707916,robocape,-1.02604968558,4.71588627102,24.2162057835,0.0,10.0,0.0,0.0,0.0,10.0,0.0,0.0,0.0,10.0,0.423575771377,0.0537958540196,0.0223705531567,1.0,0.0,0.0,0.0,1.0,0.0,0.0,0.0,1.0,0.128133544922,-1.16158447266,10.0387243652,0.1,0.0,0.0,0.0,0.1,0.0,0.0,0.0,0.1
1446038658907978619,105,1446038658904891967,robocape,-0.208825681616,4.78548987303,24.220749279,0.0,10.0,0.0,0.0,0.0,10.0,0.0,0.0,0.0,10.0,0.426372090522,0.0414121549507,0.0296942461544,1.0,0.0,0.0,0.0,1.0,0.0,0.0,0.0,1.0,-0.17244140625,-0.528101806641,10.1979931641,0.1,0.0,0.0,0.0,0.1,0.0,0.0,0.0,0.1
1446038658941462077,106,1446038658938343048,robocape,0.580479328447,4.84616576994,24.1428841497,0.0,10.0,0.0,0.0,0.0,10.0,0.0,0.0,0.0,10.0,0.416252078379,0.0366184649886,-0.015313176268,1.0,0.0,0.0,0.0,1.0,0.0,0.0,0.0,1.0,-0.123343505859,-0.323327636719,10.0818347168,0.1,0.0,0.0,0.0,0.1,0.0,0.0,0.0,0.1
1446038658975019285,107,1446038658972006082,robocape,1.2839653973,4.90230177294,24.0478614082,0.0,10.0,0.0,0.0,0.0,10.0,0.0,0.0,0.0,10.0,0.372842552611,0.033822145844,-0.0246342400832,1.0,0.0,0.0,0.0,1.0,0.0,0.0,0.0,1.0,-0.0131726074219,-0.258662109375,10.0087866211,0.1,0.0,0.0,0.0,0.1,0.0,0.0,0.0,0.1
1446038659009260869,108,1446038659006160974,robocape,1.86490872404,4.9481873463,23.9559429314,0.0,10.0,0.0,0.0,0.0,10.0,0.0,0.0,0.0,10.0,0.309193002558,0.0282295075548,-0.0229031853747,1.0,0.0,0.0,0.0,1.0,0.0,0.0,0.0,1.0,0.0934057617188,-0.0179626464844,9.98962646484,0.1,0.0,0.0,0.0,0.1,0.0,0.0,0.0,0.1
1446038659041402577,109,1446038659038131952,robocape,2.24269656963,4.97626046564,23.946377245,0.0,10.0,0.0,0.0,0.0,10.0,0.0,0.0,0.0,10.0,0.199603923701,0.0206394984481,0.0221042370477,1.0,0.0,0.0,0.0,1.0,0.0,0.0,0.0,1.0,0.0179626464844,0.70892578125,9.98842895508,0.1,0.0,0.0,0.0,0.1,0.0,0.0,0.0,0.1
1446038659074851827,110,1446038659071691989,robocape,2.32572049462,4.99160853154,23.9203492808,0.0,10.0,0.0,0.0,0.0,10.0,0.0,0.0,0.0,10.0,0.0460726868584,0.0135821215594,0.0130494893414,1.0,0.0,0.0,0.0,1.0,0.0,0.0,0.0,1.0,0.0047900390625,0.863404541016,10.0004040527,0.1,0.0,0.0,0.0,0.1,0.0,0.0,0.0,0.1
1446038659108016827,111,1446038659105000019,robocape,2.16608789564,4.99667179863,23.8775431744,0.0,10.0,0.0,0.0,0.0,10.0,0.0,0.0,0.0,10.0,-0.0804274649204,0.00772316716123,0.00372842552611,1.0,0.0,0.0,0.0,1.0,0.0,0.0,0.0,1.0,-0.0251477050781,0.445473632813,10.0123791504,0.1,0.0,0.0,0.0,0.1,0.0,0.0,0.0,0.1
1446038659145130994,112,1446038659141680002,robocape,1.84510471476,4.98740936714,23.8877305066,0.0,10.0,0.0,0.0,0.0,10.0,0.0,0.0,0.0,10.0,-0.16764599062,0.00146473859954,0.0326237233535,1.0,0.0,0.0,0.0,1.0,0.0,0.0,0.0,1.0,0.0490979003906,0.197589111328,10.055489502,0.1,0.0,0.0,0.0,0.1,0.0,0.0,0.0,0.1
1446038659177594619,113,1446038659174107074,robocape,1.39284707876,4.97507370359,23.8449325395,0.0,10.0,0.0,0.0,0.0,10.0,0.0,0.0,0.0,10.0,-0.234491333981,-0.00133158054504,0.00372842552611,1.0,0.0,0.0,0.0,1.0,0.0,0.0,0.0,1.0,0.0047900390625,0.0814306640625,10.0578845215,0.1,0.0,0.0,0.0,0.1,0.0,0.0,0.0,0.1
1446038659210552411,114,1446038659207278966,robocape,0.820945898327,4.94726467014,23.866092982,0.0,10.0,0.0,0.0,0.0,10.0,0.0,0.0,0.0,10.0,-0.30067088707,-0.00838895743375,0.0387489938607,1.0,0.0,0.0,0.0,1.0,0.0,0.0,0.0,1.0,-0.0215551757813,-0.0814306640625,10.0027990723,0.1,0.0,0.0,0.0,0.1,0.0,0.0,0.0,0.1
1446038659244471994,115,1446038659241373062,robocape,0.135279973473,4.90878657032,23.898271607,0.0,10.0,0.0,0.0,0.0,10.0,0.0,0.0,0.0,10.0,-0.361524117978,-0.0141147537774,0.0450074224223,1.0,0.0,0.0,0.0,1.0,0.0,0.0,0.0,1.0,-0.0431103515625,-0.219144287109,10.039921875,0.1,0.0,0.0,0.0,0.1,0.0,0.0,0.0,0.1
1446038659277765494,116,1446038659274688959,robocape,-0.470043414733,4.87486781662,23.8226620229,0.0,10.0,0.0,0.0,0.0,10.0,0.0,0.0,0.0,10.0,-0.315185115011,-0.0123836990689,-0.0135821215594,1.0,0.0,0.0,0.0,1.0,0.0,0.0,0.0,1.0,-0.174836425781,-1.31845825195,10.0542919922,0.1,0.0,0.0,0.0,0.1,0.0,0.0,0.0,0.1
1446038659310966661,117,1446038659307737112,robocape,-0.930313229103,4.83566725012,23.8032266945,0.0,10.0,0.0,0.0,0.0,10.0,0.0,0.0,0.0,10.0,-0.242347659197,-0.0150468601589,0.016911072922,1.0,0.0,0.0,0.0,1.0,0.0,0.0,0.0,1.0,-0.137713623047,-1.82859741211,10.0746496582,0.1,0.0,0.0,0.0,0.1,0.0,0.0,0.0,0.1
1446038659343751244,118,1446038659340570926,robocape,-1.12066985964,4.86373057298,23.7659756231,0.0,10.0,0.0,0.0,0.0,10.0,0.0,0.0,0.0,10.0,-0.100401173096,0.0202400242846,0.00772316716123,1.0,0.0,0.0,0.0,1.0,0.0,0.0,0.0,1.0,-0.486188964844,-1.96391601563,10.2171533203,0.1,0.0,0.0,0.0,0.1,0.0,0.0,0.0,0.1
1446038659382271536,119,1446038659375866889,robocape,-1.10333381247,4.95644742854,23.7457416008,0.0,10.0,0.0,0.0,0.0,10.0,0.0,0.0,0.0,10.0,0.00759000910673,0.0540621701286,0.0175768631945,1.0,0.0,0.0,0.0,1.0,0.0,0.0,0.0,1.0,-3.29434936523,-1.56873779297,10.6650219727,0.1,0.0,0.0,0.0,0.1,0.0,0.0,0.0,0.1
1446038659410794952,120,1446038659407557010,robocape,-0.951886327307,5.09845350352,23.6077723703,0.0,10.0,0.0,0.0,0.0,10.0,0.0,0.0,0.0,10.0,0.0836232582285,0.0805606229749,-0.0463390029674,1.0,0.0,0.0,0.0,1.0,0.0,0.0,0.0,1.0,-7.39821533203,-1.52323242188,11.8960620117,0.1,0.0,0.0,0.0,0.1,0.0,0.0,0.0,0.1
1446038659444096994,121,1446038659440965890,robocape,-0.540351855049,5.11232348149,23.4117688311,0.0,10.0,0.0,0.0,0.0,10.0,0.0,0.0,0.0,10.0,0.223172899349,0.0130494893414,-0.0805606229749,1.0,0.0,0.0,0.0,1.0,0.0,0.0,0.0,1.0,-9.53577026367,-2.76385253906,11.0338549805,0.1,0.0,0.0,0.0,0.1,0.0,0.0,0.0,0.1
1446038659477041994,122,1446038659473956108,robocape,0.0195933074858,5.12731189316,23.1452307988,0.0,10.0,0.0,0.0,0.0,10.0,0.0,0.0,0.0,10.0,0.30479878676,0.0126500151779,-0.11944277489,1.0,0.0,0.0,0.0,1.0,0.0,0.0,0.0,1.0,-7.50599121094,-1.19990478516,10.745255127,0.1,0.0,0.0,0.0,0.1,0.0,0.0,0.0,0.1
1446038659509504869,123,1446038659506225109,robocape,0.174021969836,5.17246199581,22.3854352348,0.0,10.0,0.0,0.0,0.0,10.0,0.0,0.0,0.0,10.0,0.116246981582,0.0250337142467,-0.387223622498,1.0,0.0,0.0,0.0,1.0,0.0,0.0,0.0,1.0,-7.67484008789,-1.97948364258,11.2601843262,0.1,0.0,0.0,0.0,0.1,0.0,0.0,0.0,0.1
1446038659542478327,124,1446038659539154052,robocape,0.856969715557,5.14853580685,21.6480837222,0.0,10.0,0.0,0.0,0.0,10.0,0.0,0.0,0.0,10.0,0.392283628569,-0.0139815957229,-0.375905187865,1.0,0.0,0.0,0.0,1.0,0.0,0.0,0.0,1.0,-6.821015625,-1.30408813477,10.8326733398,0.1,0.0,0.0,0.0,0.1,0.0,0.0,0.0,0.1
1446038659577298411,125,1446038659574191093,robocape,1.99696660065,5.2323491612,20.93527957,0.0,10.0,0.0,0.0,0.0,10.0,0.0,0.0,0.0,10.0,0.631169178349,0.0370179391521,-0.363255172687,1.0,0.0,0.0,0.0,1.0,0.0,0.0,0.0,1.0,-7.15272583008,-1.20349731445,11.4936987305,0.1,0.0,0.0,0.0,0.1,0.0,0.0,0.0,0.1
1446038659609387244,126,1446038659605801105,robocape,3.59450866903,5.50564179854,20.241603369,0.0,10.0,0.0,0.0,0.0,10.0,0.0,0.0,0.0,10.0,0.872052098946,0.128630680651,-0.356597269962,1.0,0.0,0.0,0.0,1.0,0.0,0.0,0.0,1.0,-6.27734619141,-1.51963989258,10.3967797852,0.1,0.0,0.0,0.0,0.1,0.0,0.0,0.0,0.1
1446038659641895119,127,1446038659638786077,robocape,5.81493431335,5.83123805091,19.4625619235,0.0,10.0,0.0,0.0,0.0,10.0,0.0,0.0,0.0,10.0,1.20641197381,0.14101437972,-0.40533311791,1.0,0.0,0.0,0.0,1.0,0.0,0.0,0.0,1.0,-6.41865234375,-0.911304931641,11.1116931152,0.1,0.0,0.0,0.0,0.1,0.0,0.0,0.0,0.1
1446038659677739619,128,1446038659672713994,robocape,8.65907728327,5.8983729382,18.671227458,0.0,10.0,0.0,0.0,0.0,10.0,0.0,0.0,0.0,10.0,1.53930711007,-0.0105194863058,-0.395612579931,1.0,0.0,0.0,0.0,1.0,0.0,0.0,0.0,1.0,-6.00431396484,-2.08007446289,10.2231408691,0.1,0.0,0.0,0.0,0.1,0.0,0.0,0.0,0.1
1446038659708348369,129,1446038659705250024,robocape,12.0214974264,6.0374887484,17.8318616753,0.0,10.0,0.0,0.0,0.0,10.0,0.0,0.0,0.0,10.0,1.82306692421,0.00386158358061,-0.417716816979,1.0,0.0,0.0,0.0,1.0,0.0,0.0,0.0,1.0,-10.3416943359,-1.14841186523,9.87825805664,0.1,0.0,0.0,0.0,0.1,0.0,0.0,0.0,0.1
1446038659741785202,130,1446038659738677024,robocape,16.2070939068,6.09983846951,17.2102575049,0.0,10.0,0.0,0.0,0.0,10.0,0.0,0.0,0.0,10.0,2.26515166517,-0.0278300333913,-0.28056402084,1.0,0.0,0.0,0.0,1.0,0.0,0.0,0.0,1.0,-2.56027587891,-1.42503662109,9.84592529297,0.1,0.0,0.0,0.0,0.1,0.0,0.0,0.0,0.1
1446038659775114077,131,1446038659772016048,robocape,20.6291201992,6.06311085261,16.6209546121,0.0,10.0,0.0,0.0,0.0,10.0,0.0,0.0,0.0,10.0,2.41761763757,-0.0865527354276,-0.230496592346,1.0,0.0,0.0,0.0,1.0,0.0,0.0,0.0,1.0,-1.87051025391,-1.4214440918,7.87242919922,0.1,0.0,0.0,0.0,0.1,0.0,0.0,0.0,0.1
1446038659808196703,132,1446038659805109977,robocape,25.6987275707,6.12347481668,16.6142077514,0.0,10.0,0.0,0.0,0.0,10.0,0.0,0.0,0.0,10.0,2.78859597742,0.0760332491218,0.066579027252,1.0,0.0,0.0,0.0,1.0,0.0,0.0,0.0,1.0,-2.45968505859,0.271834716797,10.4159399414,0.1,0.0,0.0,0.0,0.1,0.0,0.0,0.0,0.1
1446038659841592453,133,1446038659838512897,robocape,30.9550030216,6.30363798134,17.215024147,0.0,10.0,0.0,0.0,0.0,10.0,0.0,0.0,0.0,10.0,2.9358687857,0.305331418978,0.342615674239,1.0,0.0,0.0,0.0,1.0,0.0,0.0,0.0,1.0,-5.50016235352,0.6514453125,7.99577270508,0.1,0.0,0.0,0.0,0.1,0.0,0.0,0.0,0.1
1446038659875146286,134,1446038659871825933,robocape,35.9899160258,6.9171284616,18.9727959595,0.0,10.0,0.0,0.0,0.0,10.0,0.0,0.0,0.0,10.0,2.85064763082,0.885634220506,0.735698251134,1.0,0.0,0.0,0.0,1.0,0.0,0.0,0.0,1.0,-2.70637207031,2.75427246094,12.0708984375,0.1,0.0,0.0,0.0,0.1,0.0,0.0,0.0,0.1
1446038659907927578,135,1446038659904844999,robocape,38.3461067141,6.70839688814,22.5680634025,0.0,10.0,0.0,0.0,0.0,10.0,0.0,0.0,0.0,10.0,1.30361735359,1.15954033862,1.70961626178,1.0,0.0,0.0,0.0,1.0,0.0,0.0,0.0,1.0,-3.92304199219,15.7077355957,14.6479394531,0.1,0.0,0.0,0.0,0.1,0.0,0.0,0.0,0.1
1446038659941317869,136,1446038659938157081,robocape,36.8527031336,6.94873587295,28.4659143142,0.0,10.0,0.0,0.0,0.0,10.0,0.0,0.0,0.0,10.0,-0.983505390566,2.05689246792,2.46968243688,1.0,0.0,0.0,0.0,1.0,0.0,0.0,0.0,1.0,2.09803710938,10.4303100586,14.1042700195,0.1,0.0,0.0,0.0,0.1,0.0,0.0,0.0,0.1
1446038659974511078,137,1446038659971445083,robocape,33.3339483807,6.99925496986,33.5322415048,0.0,10.0,0.0,0.0,0.0,10.0,0.0,0.0,0.0,10.0,-2.08578776575,1.58591242914,2.21841318804,1.0,0.0,0.0,0.0,1.0,0.0,0.0,0.0,1.0,-6.25579101563,1.58071289063,10.7668103027,0.1,0.0,0.0,0.0,0.1,0.0,0.0,0.0,0.1
1446038660007953578,138,1446038660004940986,robocape,29.58057889,7.00397869334,37.3544474376,0.0,10.0,0.0,0.0,0.0,10.0,0.0,0.0,0.0,10.0,-2.14464362584,1.08523814421,1.77872529206,1.0,0.0,0.0,0.0,1.0,0.0,0.0,0.0,1.0,-8.6256628418,0.661025390625,8.8939050293,0.1,0.0,0.0,0.0,0.1,0.0,0.0,0.0,0.1
1446038660041499661,139,1446038660038275003,robocape,25.6816965522,6.46420264761,39.9864932771,0.0,10.0,0.0,0.0,0.0,10.0,0.0,0.0,0.0,10.0,-2.16048943433,0.417849975033,1.41746749019,1.0,0.0,0.0,0.0,1.0,0.0,0.0,0.0,1.0,-3.53145629883,0.540076904297,10.8530310059,0.1,0.0,0.0,0.0,0.1,0.0,0.0,0.0,0.1
1446038660074704786,140,1446038660071624994,robocape,21.7284212098,5.99484640467,42.2394994856,0.0,10.0,0.0,0.0,0.0,10.0,0.0,0.0,0.0,10.0,-2.1567610088,0.282161917494,1.26513467584,1.0,0.0,0.0,0.0,1.0,0.0,0.0,0.0,1.0,-3.62605957031,-1.18673217773,7.61855712891,0.1,0.0,0.0,0.0,0.1,0.0,0.0,0.0,0.1
1446038660108209994,141,1446038660105168104,robocape,17.7635009997,5.83732679296,44.2279278505,0.0,10.0,0.0,0.0,0.0,10.0,0.0,0.0,0.0,10.0,-2.14437730973,0.311190373376,1.11945976421,1.0,0.0,0.0,0.0,1.0,0.0,0.0,0.0,1.0,-2.43453735352,-0.221539306641,10.8027355957,0.1,0.0,0.0,0.0,0.1,0.0,0.0,0.0,0.1
1446038660141662619,142,1446038660138544082,robocape,13.6818104944,5.4298990011,45.8586066354,0.0,10.0,0.0,0.0,0.0,10.0,0.0,0.0,0.0,10.0,-2.19124894492,0.0608532309083,1.00547646956,1.0,0.0,0.0,0.0,1.0,0.0,0.0,0.0,1.0,-1.05740112305,-0.775986328125,8.44004882813,0.1,0.0,0.0,0.0,0.1,0.0,0.0,0.0,0.1
1446038660174562994,143,1446038660171506881,robocape,9.5408022399,5.4384726844,47.3333338609,0.0,10.0,0.0,0.0,0.0,10.0,0.0,0.0,0.0,10.0,-2.21921213636,0.196674446502,0.912265831407,1.0,0.0,0.0,0.0,1.0,0.0,0.0,0.0,1.0,-7.01501220703,-0.86220703125,10.4782104492,0.1,0.0,0.0,0.0,0.1,0.0,0.0,0.0,0.1
1446038660209411244,144,1446038660206357955,robocape,5.37127484143,5.46367334751,48.5204382326,0.0,10.0,0.0,0.0,0.0,10.0,0.0,0.0,0.0,10.0,-2.23306057403,0.128098048433,0.792157266244,1.0,0.0,0.0,0.0,1.0,0.0,0.0,0.0,1.0,-3.08718017578,-1.32205078125,10.3895947266,0.1,0.0,0.0,0.0,0.1,0.0,0.0,0.0,0.1
1446038660241272994,145,1446038660238177061,robocape,1.01131635251,5.58232305108,49.4566895592,0.0,10.0,0.0,0.0,0.0,10.0,0.0,0.0,0.0,10.0,-2.33719017265,0.120374881272,0.686030296804,1.0,0.0,0.0,0.0,1.0,0.0,0.0,0.0,1.0,-3.60091186523,-1.11847412109,10.6267016602,0.1,0.0,0.0,0.0,0.1,0.0,0.0,0.0,0.1
1446038660274646411,146,1446038660271532058,robocape,-3.36666491227,5.5169071923,50.1120151318,0.0,10.0,0.0,0.0,0.0,10.0,0.0,0.0,0.0,10.0,-2.35143808449,-0.016644756813,0.561261199734,1.0,0.0,0.0,0.0,1.0,0.0,0.0,0.0,1.0,-2.02858154297,-1.44659179688,9.07712402344,0.1,0.0,0.0,0.0,0.1,0.0,0.0,0.0,0.1
1446038660307841744,147,1446038660304745912,robocape,-7.83214734209,5.41336347367,50.5239044698,0.0,10.0,0.0,0.0,0.0,10.0,0.0,0.0,0.0,10.0,-2.4066986771,-0.0579237537092,0.451006330605,1.0,0.0,0.0,0.0,1.0,0.0,0.0,0.0,1.0,2.09803710938,-1.50886230469,9.56570800781,0.1,0.0,0.0,0.0,0.1,0.0,0.0,0.0,0.1
1446038660341322744,148,1446038660338196039,robocape,-12.4526328148,4.9696355573,50.7062080201,0.0,10.0,0.0,0.0,0.0,10.0,0.0,0.0,0.0,10.0,-2.50110773775,-0.239684498107,0.313454060302,1.0,0.0,0.0,0.0,1.0,0.0,0.0,0.0,1.0,0.129331054688,-1.7208215332,6.05580688477,0.1,0.0,0.0,0.0,0.1,0.0,0.0,0.0,0.1
1446038660379454953,149,1446038660372950077,robocape,-17.1809933095,4.50887397933,50.5459580777,0.0,10.0,0.0,0.0,0.0,10.0,0.0,0.0,0.0,10.0,-2.567686765,-0.21877868355,0.129163312869,1.0,0.0,0.0,0.0,1.0,0.0,0.0,0.0,1.0,-0.548459472656,-2.08366699219,9.35734130859,0.1,0.0,0.0,0.0,0.1,0.0,0.0,0.0,0.1
1446038660408363369,150,1446038660405137062,robocape,-21.8757947199,4.26198948227,49.9776051645,0.0,10.0,0.0,0.0,0.0,10.0,0.0,0.0,0.0,10.0,-2.560363072,-0.0416784710597,-0.0451405804768,1.0,0.0,0.0,0.0,1.0,0.0,0.0,0.0,1.0,-4.45713134766,-2.4872277832,8.49154174805,0.1,0.0,0.0,0.0,0.1,0.0,0.0,0.0,0.1
1446038660441556953,151,1446038660438298940,robocape,-26.5860526259,4.20030992004,49.0376384355,0.0,10.0,0.0,0.0,0.0,10.0,0.0,0.0,0.0,10.0,-2.58819310539,0.140881221665,-0.170175993656,1.0,0.0,0.0,0.0,1.0,0.0,0.0,0.0,1.0,-0.912502441406,-2.82492553711,9.27471313477,0.1,0.0,0.0,0.0,0.1,0.0,0.0,0.0,0.1
1446038660475220536,152,1446038660471877098,robocape,-30.9793016079,4.06833004643,47.7015320425,0.0,10.0,0.0,0.0,0.0,10.0,0.0,0.0,0.0,10.0,-2.4257402789,0.235556598418,-0.37191044623,1.0,0.0,0.0,0.0,1.0,0.0,0.0,0.0,1.0,-1.97948364258,-4.47509399414,10.362052002,0.1,0.0,0.0,0.0,0.1,0.0,0.0,0.0,0.1
1446038660508475495,153,1446038660504976034,robocape,-32.3875581898,4.44343817268,44.9192227984,0.0,10.0,0.0,0.0,0.0,10.0,0.0,0.0,0.0,10.0,-0.612926524882,0.9342369104,-1.15674401948,1.0,0.0,0.0,0.0,1.0,0.0,0.0,0.0,1.0,3.64282470703,-16.1077038574,12.8025769043,0.1,0.0,0.0,0.0,0.1,0.0,0.0,0.0,0.1
1446038660541490703,154,1446038660538175106,robocape,-30.7730456652,4.5266368267,41.9755684293,0.0,10.0,0.0,0.0,0.0,10.0,0.0,0.0,0.0,10.0,1.13037872468,0.880174740271,-1.51493918609,1.0,0.0,0.0,0.0,1.0,0.0,0.0,0.0,1.0,-2.0273840332,-5.99353637695,10.1189575195,0.1,0.0,0.0,0.0,0.1,0.0,0.0,0.0,0.1
1446038660574972870,155,1446038660571675062,robocape,-28.3132910712,4.91456073527,39.6078233382,0.0,10.0,0.0,0.0,0.0,10.0,0.0,0.0,0.0,10.0,1.53091815263,0.814128345237,-1.17432088267,1.0,0.0,0.0,0.0,1.0,0.0,0.0,0.0,1.0,2.22018310547,-4.35893554688,11.5894995117,0.1,0.0,0.0,0.0,0.1,0.0,0.0,0.0,0.1
1446038660608270995,156,1446038660605156898,robocape,-25.2711973546,4.99460804952,38.0362185219,0.0,10.0,0.0,0.0,0.0,10.0,0.0,0.0,0.0,10.0,1.77113528296,0.42543998414,-0.872984205328,1.0,0.0,0.0,0.0,1.0,0.0,0.0,0.0,1.0,-0.461041259766,-2.27167602539,5.28700561523,0.1,0.0,0.0,0.0,0.1,0.0,0.0,0.0,0.1
1446038660641431078,157,1446038660638364076,robocape,-21.9189569166,5.01897982871,36.365887831,0.0,10.0,0.0,0.0,0.0,10.0,0.0,0.0,0.0,10.0,1.93039231614,0.373641500938,-0.95434377663,1.0,0.0,0.0,0.0,1.0,0.0,0.0,0.0,1.0,-0.118553466797,-4.74692871094,12.7235412598,0.1,0.0,0.0,0.0,0.1,0.0,0.0,0.0,0.1
1446038660674559703,158,1446038660671531915,robocape,-17.8481990752,5.73250082521,34.5191601195,0.0,10.0,0.0,0.0,0.0,10.0,0.0,0.0,0.0,10.0,2.30869434899,0.683500293769,-0.941027971179,1.0,0.0,0.0,0.0,1.0,0.0,0.0,0.0,1.0,0.204774169922,-3.89909179688,8.82804199219,0.1,0.0,0.0,0.0,0.1,0.0,0.0,0.0,0.1
1446038660707958495,159,1446038660704912900,robocape,-13.2863149085,6.0324216844,33.1883262147,0.0,10.0,0.0,0.0,0.0,10.0,0.0,0.0,0.0,10.0,2.51548880763,0.334759349023,-0.752742482111,1.0,0.0,0.0,0.0,1.0,0.0,0.0,0.0,1.0,0.795146484375,-3.32668212891,10.5799987793,0.1,0.0,0.0,0.0,0.1,0.0,0.0,0.0,0.1
1446038660741644578,160,1446038660738507986,robocape,-8.0857059625,5.75435251947,32.1136269569,0.0,10.0,0.0,0.0,0.0,10.0,0.0,0.0,0.0,10.0,2.8129639014,-0.0454068965859,-0.681103448788,1.0,0.0,0.0,0.0,1.0,0.0,0.0,0.0,1.0,-0.856219482422,-1.69567382813,6.39110961914,0.1,0.0,0.0,0.0,0.1,0.0,0.0,0.0,0.1
1446038660775928078,161,1446038660771941900,robocape,-3.01312896588,6.15129089791,31.2411255785,0.0,10.0,0.0,0.0,0.0,10.0,0.0,0.0,0.0,10.0,2.71216325414,0.245143978342,-0.48189899925,1.0,0.0,0.0,0.0,1.0,0.0,0.0,0.0,1.0,1.99385375977,-0.329315185547,9.24238037109,0.1,0.0,0.0,0.0,0.1,0.0,0.0,0.0,0.1
1446038660808066453,162,1446038660804941892,robocape,1.89975043372,6.17004507711,30.4870125841,0.0,10.0,0.0,0.0,0.0,10.0,0.0,0.0,0.0,10.0,2.61628945489,0.0111852765783,-0.407330488728,1.0,0.0,0.0,0.0,1.0,0.0,0.0,0.0,1.0,0.556842041016,-0.482596435547,7.05932006836,0.1,0.0,0.0,0.0,0.1,0.0,0.0,0.0,0.1
1446038660842429161,163,1446038660839272975,robocape,6.72591275589,5.87106987477,30.0306620867,0.0,10.0,0.0,0.0,0.0,10.0,0.0,0.0,0.0,10.0,2.55769991091,-0.168977571166,-0.200536030083,1.0,0.0,0.0,0.0,1.0,0.0,0.0,0.0,1.0,-4.19367919922,-0.890947265625,9.53217773438,0.1,0.0,0.0,0.0,0.1,0.0,0.0,0.0,0.1
1446038660875469203,164,1446038660871989011,robocape,11.198512621,6.12883506676,29.8957888984,0.0,10.0,0.0,0.0,0.0,10.0,0.0,0.0,0.0,10.0,2.37141179266,0.139682799175,-0.0247673981377,1.0,0.0,0.0,0.0,1.0,0.0,0.0,0.0,1.0,-4.81159423828,0.865799560547,10.3536694336,0.1,0.0,0.0,0.0,0.1,0.0,0.0,0.0,0.1
1446038660909006953,165,1446038660905950069,robocape,15.0397473033,6.37501624611,30.235148592,0.0,10.0,0.0,0.0,0.0,10.0,0.0,0.0,0.0,10.0,2.03731823391,0.19720707872,0.243679239742,1.0,0.0,0.0,0.0,1.0,0.0,0.0,0.0,1.0,-1.80225219727,1.14481933594,7.45330078125,0.1,0.0,0.0,0.0,0.1,0.0,0.0,0.0,0.1
1446038660943368328,166,1446038660939939975,robocape,17.9455453325,6.28244350371,30.9856710434,0.0,10.0,0.0,0.0,0.0,10.0,0.0,0.0,0.0,10.0,1.54276921948,0.106393285549,0.510661139023,1.0,0.0,0.0,0.0,1.0,0.0,0.0,0.0,1.0,-2.15192504883,0.365240478516,10.6853796387,0.1,0.0,0.0,0.0,0.1,0.0,0.0,0.0,0.1
1446038660975340495,167,1446038660972281932,robocape,20.3980778259,6.81064555328,32.1968149154,0.0,10.0,0.0,0.0,0.0,10.0,0.0,0.0,0.0,10.0,1.29975577001,0.525574841127,0.653539731505,1.0,0.0,0.0,0.0,1.0,0.0,0.0,0.0,1.0,-2.65847167969,1.44778930664,12.0469482422,0.1,0.0,0.0,0.0,0.1,0.0,0.0,0.0,0.1
1446038661009884120,168,1446038661006362915,robocape,22.3342906567,7.057987712,33.3561694821,0.0,10.0,0.0,0.0,0.0,10.0,0.0,0.0,0.0,10.0,1.03517071571,0.402270482656,0.665923430574,1.0,0.0,0.0,0.0,1.0,0.0,0.0,0.0,1.0,-1.07177124023,0.0814306640625,10.0267492676,0.1,0.0,0.0,0.0,0.1,0.0,0.0,0.0,0.1
1446038661043476453,169,1446038661039860010,robocape,23.851584013,7.15587032149,34.6324483729,0.0,10.0,0.0,0.0,0.0,10.0,0.0,0.0,0.0,10.0,0.815193609673,0.375505713701,0.751011427402,1.0,0.0,0.0,0.0,1.0,0.0,0.0,0.0,1.0,-1.59149047852,0.543669433594,11.9056420898,0.1,0.0,0.0,0.0,0.1,0.0,0.0,0.0,0.1
1446038661076159786,170,1446038661072767972,robocape,25.1686653956,7.25782690922,36.0390065037,0.0,10.0,0.0,0.0,0.0,10.0,0.0,0.0,0.0,10.0,0.712395591596,0.428369461339,0.819321509363,1.0,0.0,0.0,0.0,1.0,0.0,0.0,0.0,1.0,3.9889050293,-0.499361572266,9.58726318359,0.1,0.0,0.0,0.0,0.1,0.0,0.0,0.0,0.1
1446038661107998786,171,1446038661104850053,robocape,26.5439530864,7.56211230139,37.4059540908,0.0,10.0,0.0,0.0,0.0,10.0,0.0,0.0,0.0,10.0,0.755139327092,0.538757488523,0.760865123436,1.0,0.0,0.0,0.0,1.0,0.0,0.0,0.0,1.0,1.26936035156,-1.05141357422,10.6638244629,0.1,0.0,0.0,0.0,0.1,0.0,0.0,0.0,0.1
1446038661141774786,172,1446038661138489961,robocape,28.1860106149,7.7824852968,38.5943405583,0.0,10.0,0.0,0.0,0.0,10.0,0.0,0.0,0.0,10.0,0.918524259968,0.481366367032,0.702009263345,1.0,0.0,0.0,0.0,1.0,0.0,0.0,0.0,1.0,0.494571533203,-1.14481933594,9.79682739258,0.1,0.0,0.0,0.0,0.1,0.0,0.0,0.0,0.1
1446038661174580453,173,1446038661171545028,robocape,30.1161681349,8.13444115411,39.6637928349,0.0,10.0,0.0,0.0,0.0,10.0,0.0,0.0,0.0,10.0,1.09535815635,0.540089069068,0.62144864037,1.0,0.0,0.0,0.0,1.0,0.0,0.0,0.0,1.0,-1.17475708008,-0.581989746094,10.5931713867,0.1,0.0,0.0,0.0,0.1,0.0,0.0,0.0,0.1
1446038661208328287,174,1446038661204924106,robocape,32.4649896999,8.10179286855,40.4430259184,0.0,10.0,0.0,0.0,0.0,10.0,0.0,0.0,0.0,10.0,1.35914426232,0.316916169719,0.600809141922,1.0,0.0,0.0,0.0,1.0,0.0,0.0,0.0,1.0,5.16366210938,-1.29570556641,8.05804321289,0.1,0.0,0.0,0.0,0.1,0.0,0.0,0.0,0.1
1446038661241700787,175,1446038661238332033,robocape,35.2442790569,8.2638091121,40.9979763323,0.0,10.0,0.0,0.0,0.0,10.0,0.0,0.0,0.0,10.0,1.63611301569,0.370578865685,0.461392658856,1.0,0.0,0.0,0.0,1.0,0.0,0.0,0.0,1.0,-0.653840332031,-0.789158935547,12.0625158691,0.1,0.0,0.0,0.0,0.1,0.0,0.0,0.0,0.1
1446038661274977495,176,1446038661271867990,robocape,38.5717671578,8.9650969423,41.8915754261,0.0,10.0,0.0,0.0,0.0,10.0,0.0,0.0,0.0,10.0,1.97579921273,0.76246302009,0.485627424776,1.0,0.0,0.0,0.0,1.0,0.0,0.0,0.0,1.0,3.77335327148,-0.342487792969,9.76090209961,0.1,0.0,0.0,0.0,0.1,0.0,0.0,0.0,0.1
1446038661308353870,177,1446038661304969072,robocape,39.6246795108,9.16586928942,44.1183453595,0.0,10.0,0.0,0.0,0.0,10.0,0.0,0.0,0.0,10.0,0.663260269484,1.0126670045,1.16220349971,1.0,0.0,0.0,0.0,1.0,0.0,0.0,0.0,1.0,-0.591569824219,12.7858117676,15.0742529297,0.1,0.0,0.0,0.0,0.1,0.0,0.0,0.0,0.1
1446038661342738620,178,1446038661339442014,robocape,38.0276064699,8.85688798751,47.0750056594,0.0,10.0,0.0,0.0,0.0,10.0,0.0,0.0,0.0,10.0,-0.873117363382,0.992560138273,1.55768292159,1.0,0.0,0.0,0.0,1.0,0.0,0.0,0.0,1.0,3.25004150391,1.57233032227,10.1465002441,0.1,0.0,0.0,0.0,0.1,0.0,0.0,0.0,0.1
1446038661378300745,179,1446038661373033046,robocape,36.4699023889,8.94979712062,49.262925208,0.0,10.0,0.0,0.0,0.0,10.0,0.0,0.0,0.0,10.0,-0.825713095979,0.86033419015,1.11266870344,1.0,0.0,0.0,0.0,1.0,0.0,0.0,0.0,1.0,-0.162861328125,-0.719703369141,9.59085571289,0.1,0.0,0.0,0.0,0.1,0.0,0.0,0.0,0.1
1446038661408942370,180,1446038661405584096,robocape,35.4301514962,9.25072543418,50.6514587219,0.0,10.0,0.0,0.0,0.0,10.0,0.0,0.0,0.0,10.0,-0.515721145094,0.670450804427,0.713061381869,1.0,0.0,0.0,0.0,1.0,0.0,0.0,0.0,1.0,-0.934057617188,-1.05141357422,10.1033898926,0.1,0.0,0.0,0.0,0.1,0.0,0.0,0.0,0.1
1446038661441530328,181,1446038661438296079,robocape,35.2564790525,9.48054232106,51.6177300567,0.0,10.0,0.0,0.0,0.0,10.0,0.0,0.0,0.0,10.0,-0.0170442309765,0.520914309219,0.592020710325,1.0,0.0,0.0,0.0,1.0,0.0,0.0,0.0,1.0,-0.902922363281,-1.49928222656,9.55493041992,0.1,0.0,0.0,0.0,0.1,0.0,0.0,0.0,0.1
1446038661474778995,182,1446038661471751928,robocape,36.0451701368,9.68674169963,52.4536775044,0.0,10.0,0.0,0.0,0.0,10.0,0.0,0.0,0.0,10.0,0.533031692179,0.504269552407,0.602407038576,1.0,0.0,0.0,0.0,1.0,0.0,0.0,0.0,1.0,-0.398770751953,-1.4142590332,12.512779541,0.1,0.0,0.0,0.0,0.1,0.0,0.0,0.0,0.1
1446038661507860578,183,1446038661504673957,robocape,37.4200090269,9.39170322876,53.0151050415,0.0,10.0,0.0,0.0,0.0,10.0,0.0,0.0,0.0,10.0,0.888696855759,0.23089606651,0.671782384972,1.0,0.0,0.0,0.0,1.0,0.0,0.0,0.0,1.0,-1.43940673828,-0.581989746094,6.56834106445,0.1,0.0,0.0,0.0,0.1,0.0,0.0,0.0,0.1
1446038661541377287,184,1446038661538212060,robocape,37.8154260707,10.8169159124,55.4790468174,0.0,10.0,0.0,0.0,0.0,10.0,0.0,0.0,0.0,10.0,0.275504014769,1.63837670262,1.02691491633,1.0,0.0,0.0,0.0,1.0,0.0,0.0,0.0,1.0,9.94531860352,7.0473449707,19.6194012451,0.1,0.0,0.0,0.0,0.1,0.0,0.0,0.0,0.1
1446038661574868370,185,1446038661571626901,robocape,36.1622710044,11.3162466809,58.7545162786,0.0,10.0,0.0,0.0,0.0,10.0,0.0,0.0,0.0,10.0,-0.927046375457,1.51267549917,1.69283834691,1.0,0.0,0.0,0.0,1.0,0.0,0.0,0.0,1.0,-1.02506835938,3.48954345703,12.6121728516,0.1,0.0,0.0,0.0,0.1,0.0,0.0,0.0,0.1
1446038661608481703,186,1446038661605020046,robocape,32.9751173702,12.0606131158,62.3649230049,0.0,10.0,0.0,0.0,0.0,10.0,0.0,0.0,0.0,10.0,-1.8271948239,1.66514147157,1.83292062025,1.0,0.0,0.0,0.0,1.0,0.0,0.0,0.0,1.0,-2.70038452148,4.2882824707,15.2969897461,0.1,0.0,0.0,0.0,0.1,0.0,0.0,0.0,0.1
1446038661641749995,187,1446038661638330936,robocape,28.5722011657,10.7207890098,64.345348563,0.0,10.0,0.0,0.0,0.0,10.0,0.0,0.0,0.0,10.0,-2.40550025461,0.0761664071763,1.5670039854,1.0,0.0,0.0,0.0,1.0,0.0,0.0,0.0,1.0,-3.76976074219,-0.665815429688,11.2338391113,0.1,0.0,0.0,0.0,0.1,0.0,0.0,0.0,0.1
1446038661675006703,188,1446038661671561002,robocape,24.4549687262,10.1534044829,65.8438171052,0.0,10.0,0.0,0.0,0.0,10.0,0.0,0.0,0.0,10.0,-2.21495107862,0.215716048296,1.15594507115,1.0,0.0,0.0,0.0,1.0,0.0,0.0,0.0,1.0,-5.14450195313,-1.87649780273,8.14546142578,0.1,0.0,0.0,0.0,0.1,0.0,0.0,0.0,0.1
1446038661708117037,189,1446038661704649925,robocape,20.9819542558,9.70009127691,66.791808696,0.0,10.0,0.0,0.0,0.0,10.0,0.0,0.0,0.0,10.0,-1.84051062935,0.085354312937,0.864861564003,1.0,0.0,0.0,0.0,1.0,0.0,0.0,0.0,1.0,-4.22361694336,-2.38184692383,8.89151000977,0.1,0.0,0.0,0.0,0.1,0.0,0.0,0.0,0.1
1446038661741556287,190,1446038661738306045,robocape,18.1951429388,9.36674379154,67.322903249,0.0,10.0,0.0,0.0,0.0,10.0,0.0,0.0,0.0,10.0,-1.45648280016,0.0246342400832,0.623446011188,1.0,0.0,0.0,0.0,1.0,0.0,0.0,0.0,1.0,-2.83450561523,-2.0345690918,9.93094848633,0.1,0.0,0.0,0.0,0.1,0.0,0.0,0.0,0.1
1446038661774938662,191,1446038661771727085,robocape,16.1079851408,9.00369635036,67.6161414501,0.0,10.0,0.0,0.0,0.0,10.0,0.0,0.0,0.0,10.0,-1.07698234483,-0.0500674284935,0.507065871551,1.0,0.0,0.0,0.0,1.0,0.0,0.0,0.0,1.0,-2.23694824219,-1.39988891602,9.34297119141,0.1,0.0,0.0,0.0,0.1,0.0,0.0,0.0,0.1
1446038661808028120,192,1446038661804832935,robocape,14.4295677577,9.25496669866,67.9482061143,0.0,10.0,0.0,0.0,0.0,10.0,0.0,0.0,0.0,10.0,-0.868589989529,0.262987157645,0.47124635489,1.0,0.0,0.0,0.0,1.0,0.0,0.0,0.0,1.0,-4.28588745117,-1.13523925781,10.8362658691,0.1,0.0,0.0,0.0,0.1,0.0,0.0,0.0,0.1
1446038661841464953,193,1446038661838059902,robocape,13.0044161405,9.25246112663,68.2771223474,0.0,10.0,0.0,0.0,0.0,10.0,0.0,0.0,0.0,10.0,-0.741956679696,0.129429628978,0.526373789454,1.0,0.0,0.0,0.0,1.0,0.0,0.0,0.0,1.0,-2.4908203125,-0.922082519531,9.63396606445,0.1,0.0,0.0,0.0,0.1,0.0,0.0,0.0,0.1
1446038661874671662,194,1446038661871555089,robocape,11.5059253374,9.44416885316,68.6524202702,0.0,10.0,0.0,0.0,0.0,10.0,0.0,0.0,0.0,10.0,-0.790692527645,0.230762908455,0.551008029537,1.0,0.0,0.0,0.0,1.0,0.0,0.0,0.0,1.0,0.177231445313,-0.564027099609,12.395423584,0.1,0.0,0.0,0.0,0.1,0.0,0.0,0.0,0.1
1446038661907826620,195,1446038661904711008,robocape,9.86132171958,9.53145194973,69.0050344909,0.0,10.0,0.0,0.0,0.0,10.0,0.0,0.0,0.0,10.0,-0.874715260037,0.16644756813,0.559796461135,1.0,0.0,0.0,0.0,1.0,0.0,0.0,0.0,1.0,-6.06059692383,-0.888552246094,8.76217895508,0.1,0.0,0.0,0.0,0.1,0.0,0.0,0.0,0.1
1446038661941494079,196,1446038661938249111,robocape,7.9268396064,9.26569932762,69.3129079667,0.0,10.0,0.0,0.0,0.0,10.0,0.0,0.0,0.0,10.0,-1.03277387073,-0.0331563555715,0.565655415533,1.0,0.0,0.0,0.0,1.0,0.0,0.0,0.0,1.0,-4.24038208008,-0.791553955078,12.0349731445,0.1,0.0,0.0,0.0,0.1,0.0,0.0,0.0,0.1
1446038661974506787,197,1446038661971426963,robocape,6.01815869388,8.70979446558,69.443099913,0.0,10.0,0.0,0.0,0.0,10.0,0.0,0.0,0.0,10.0,-1.01200121423,-0.216781312732,0.456332652785,1.0,0.0,0.0,0.0,1.0,0.0,0.0,0.0,1.0,-5.15048950195,-2.01421142578,8.45441894531,0.1,0.0,0.0,0.0,0.1,0.0,0.0,0.0,0.1
1446038662009162454,198,1446038662005999088,robocape,4.51871418445,8.91797604029,69.2275124102,0.0,10.0,0.0,0.0,0.0,10.0,0.0,0.0,0.0,10.0,-0.773381980559,0.146740176063,0.170175993656,1.0,0.0,0.0,0.0,1.0,0.0,0.0,0.0,1.0,-5.08702148438,-2.87162841797,10.1309326172,0.1,0.0,0.0,0.0,0.1,0.0,0.0,0.0,0.1
1446038662042124329,199,1446038662038319110,robocape,3.98357466012,9.38300084017,68.5233857551,0.0,10.0,0.0,0.0,0.0,10.0,0.0,0.0,0.0,10.0,-0.226235534602,0.243945555851,-0.205196561991,1.0,0.0,0.0,0.0,1.0,0.0,0.0,0.0,1.0,-2.01421142578,-3.28836181641,9.93334350586,0.1,0.0,0.0,0.0,0.1,0.0,0.0,0.0,0.1
1446038662077572037,200,1446038662073956966,robocape,4.99246037825,9.46836368382,67.6200993855,0.0,10.0,0.0,0.0,0.0,10.0,0.0,0.0,0.0,10.0,0.60400493523,0.0246342400832,-0.36365464685,1.0,0.0,0.0,0.0,1.0,0.0,0.0,0.0,1.0,-1.46215942383,-3.25962158203,9.35494628906,0.1,0.0,0.0,0.0,0.1,0.0,0.0,0.0,0.1
1446038662109684537,201,1446038662106549024,robocape,7.03969967367,10.0128932835,66.7814339156,0.0,10.0,0.0,0.0,0.0,10.0,0.0,0.0,0.0,10.0,1.14768927177,0.259258732119,-0.341017777585,1.0,0.0,0.0,0.0,1.0,0.0,0.0,0.0,1.0,3.23327636719,-2.61536132813,11.7008679199,0.1,0.0,0.0,0.0,0.1,0.0,0.0,0.0,0.1
1446038662142920912,202,1446038662139853000,robocape,10.0899072947,10.14246199,65.9484915835,0.0,10.0,0.0,0.0,0.0,10.0,0.0,0.0,0.0,10.0,1.67978885757,0.0271642431188,-0.313720376411,1.0,0.0,0.0,0.0,1.0,0.0,0.0,0.0,1.0,-0.969982910156,-2.45968505859,6.87131103516,0.1,0.0,0.0,0.0,0.1,0.0,0.0,0.0,0.1
1446038662177432787,203,1446038662174061059,robocape,13.7300059947,10.3994286837,65.268017444,0.0,10.0,0.0,0.0,0.0,10.0,0.0,0.0,0.0,10.0,1.98844922791,0.101466437532,-0.189084437396,1.0,0.0,0.0,0.0,1.0,0.0,0.0,0.0,1.0,-4.45473632813,-1.42982666016,10.918894043,0.1,0.0,0.0,0.0,0.1,0.0,0.0,0.0,0.1
1446038662209864579,204,1446038662206526994,robocape,17.747570365,10.3230237565,64.7181451009,0.0,10.0,0.0,0.0,0.0,10.0,0.0,0.0,0.0,10.0,2.19551000266,-0.049135322112,-0.0126500151779,1.0,0.0,0.0,0.0,1.0,0.0,0.0,0.0,1.0,-2.78660522461,-0.86220703125,7.82572631836,0.1,0.0,0.0,0.0,0.1,0.0,0.0,0.0,0.1
1446038662243703745,205,1446038662240185976,robocape,21.7201441319,10.5008085316,64.6081456977,0.0,10.0,0.0,0.0,0.0,10.0,0.0,0.0,0.0,10.0,2.17353892367,0.18535601187,0.294412458508,1.0,0.0,0.0,0.0,1.0,0.0,0.0,0.0,1.0,-1.09452392578,0.216749267578,9.84712280273,0.1,0.0,0.0,0.0,0.1,0.0,0.0,0.0,0.1
1446038662278831329,206,1446038662275562047,robocape,25.3684649795,10.9223412985,64.6855473196,0.0,10.0,0.0,0.0,0.0,10.0,0.0,0.0,0.0,10.0,2.02280400597,0.37457360732,0.390419415806,1.0,0.0,0.0,0.0,1.0,0.0,0.0,0.0,1.0,-0.571212158203,0.124541015625,9.43877197266,0.1,0.0,0.0,0.0,0.1,0.0,0.0,0.0,0.1
1446038662311489412,207,1446038662308242082,robocape,28.6253560139,11.4115215029,65.0545392152,0.0,10.0,0.0,0.0,0.0,10.0,0.0,0.0,0.0,10.0,1.8301243011,0.518783780347,0.566986996078,1.0,0.0,0.0,0.0,1.0,0.0,0.0,0.0,1.0,0.142503662109,0.778381347656,10.5931713867,0.1,0.0,0.0,0.0,0.1,0.0,0.0,0.0,0.1
1446038662345522787,208,1446038662342118978,robocape,31.545445722,11.7330660121,65.4915430985,0.0,10.0,0.0,0.0,0.0,10.0,0.0,0.0,0.0,10.0,1.67552779982,0.495081646646,0.654604995941,1.0,0.0,0.0,0.0,1.0,0.0,0.0,0.0,1.0,0.992735595703,0.687370605469,10.5045556641,0.1,0.0,0.0,0.0,0.1,0.0,0.0,0.0,0.1
1446038662380090620,209,1446038662373526096,robocape,33.8206234852,12.2568402753,66.318088246,0.0,10.0,0.0,0.0,0.0,10.0,0.0,0.0,0.0,10.0,1.33104791282,0.744886156895,0.811465184147,1.0,0.0,0.0,0.0,1.0,0.0,0.0,0.0,1.0,4.68465820313,1.64657592773,12.5606799316,0.1,0.0,0.0,0.0,0.1,0.0,0.0,0.0,0.1
1446038662412058162,210,1446038662408793926,robocape,35.3314679264,12.3831376708,67.4232461235,0.0,10.0,0.0,0.0,0.0,10.0,0.0,0.0,0.0,10.0,0.920122156622,0.696949257274,1.07458549985,1.0,0.0,0.0,0.0,1.0,0.0,0.0,0.0,1.0,4.37450317383,2.91833129883,12.5798400879,0.1,0.0,0.0,0.0,0.1,0.0,0.0,0.0,0.1
1446038662446145662,211,1446038662442102909,robocape,35.4346731864,12.5748105467,69.0349044624,0.0,10.0,0.0,0.0,0.0,10.0,0.0,0.0,0.0,10.0,0.126633309833,0.904409506191,1.28590733234,1.0,0.0,0.0,0.0,1.0,0.0,0.0,0.0,1.0,0.462238769531,2.74588989258,13.1294970703,0.1,0.0,0.0,0.0,0.1,0.0,0.0,0.0,0.1
1446038662479573495,212,1446038662475689888,robocape,33.941699089,12.6594828177,70.9295608499,0.0,10.0,0.0,0.0,0.0,10.0,0.0,0.0,0.0,10.0,-0.776045141649,0.921187421058,1.42439170903,1.0,0.0,0.0,0.0,1.0,0.0,0.0,0.0,1.0,-1.13883178711,3.05484741211,12.7307263184,0.1,0.0,0.0,0.0,0.1,0.0,0.0,0.0,0.1
1446038662511462162,213,1446038662508054018,robocape,31.2366555098,12.3318280878,72.7070683301,0.0,10.0,0.0,0.0,0.0,10.0,0.0,0.0,0.0,10.0,-1.44396594304,0.638226555237,1.46646965425,1.0,0.0,0.0,0.0,1.0,0.0,0.0,0.0,1.0,-3.13508056641,2.44651245117,11.3008996582,0.1,0.0,0.0,0.0,0.1,0.0,0.0,0.0,0.1
1446038662546040245,214,1446038662542205095,robocape,27.627199225,11.8161396012,74.2524262953,0.0,10.0,0.0,0.0,0.0,10.0,0.0,0.0,0.0,10.0,-1.93105810642,0.401072060166,1.3849769249,1.0,0.0,0.0,0.0,1.0,0.0,0.0,0.0,1.0,-6.13005249023,1.32684082031,11.1583959961,0.1,0.0,0.0,0.0,0.1,0.0,0.0,0.0,0.1
1446038662580183704,215,1446038662576338052,robocape,23.5563282512,10.9099897599,75.2079172942,0.0,10.0,0.0,0.0,0.0,10.0,0.0,0.0,0.0,10.0,-2.1509020544,-0.0392816260787,1.1072092232,1.0,0.0,0.0,0.0,1.0,0.0,0.0,0.0,1.0,-0.294587402344,-0.328117675781,7.18745361328,0.1,0.0,0.0,0.0,0.1,0.0,0.0,0.0,0.1
1446038662612409621,216,1446038662609061956,robocape,19.499518638,10.5043828863,75.8659328173,0.0,10.0,0.0,0.0,0.0,10.0,0.0,0.0,0.0,10.0,-2.13345834926,0.0715058752686,0.823449409053,1.0,0.0,0.0,0.0,1.0,0.0,0.0,0.0,1.0,5.00199829102,0.0874182128906,11.5679443359,0.1,0.0,0.0,0.0,0.1,0.0,0.0,0.0,0.1
1446038662644917079,217,1446038662641434907,robocape,15.7970972731,10.205992863,76.2677428165,0.0,10.0,0.0,0.0,0.0,10.0,0.0,0.0,0.0,10.0,-1.93971337996,0.0394147841332,0.674445546063,1.0,0.0,0.0,0.0,1.0,0.0,0.0,0.0,1.0,0.681383056641,-1.18194213867,5.67140625,0.1,0.0,0.0,0.0,0.1,0.0,0.0,0.0,0.1
1446038662678307287,218,1446038662675081968,robocape,12.4418767892,9.66467715893,76.3966947275,0.0,10.0,0.0,0.0,0.0,10.0,0.0,0.0,0.0,10.0,-1.74863157175,-0.157392820424,0.538890646578,1.0,0.0,0.0,0.0,1.0,0.0,0.0,0.0,1.0,-2.32676147461,-0.90052734375,8.63524291992,0.1,0.0,0.0,0.0,0.1,0.0,0.0,0.0,0.1
1446038662710913454,219,1446038662707607984,robocape,9.25649738671,10.2983008857,76.466107689,0.0,10.0,0.0,0.0,0.0,10.0,0.0,0.0,0.0,10.0,-1.66660621017,0.430499990211,0.404800485692,1.0,0.0,0.0,0.0,1.0,0.0,0.0,0.0,1.0,10.2530786133,-0.907712402344,12.3343505859,0.1,0.0,0.0,0.0,0.1,0.0,0.0,0.0,0.1
1446038662744871496,220,1446038662741677045,robocape,6.31170947819,11.5248782297,76.3932509614,0.0,10.0,0.0,0.0,0.0,10.0,0.0,0.0,0.0,10.0,-1.54410080003,0.726377187319,0.325038811044,1.0,0.0,0.0,0.0,1.0,0.0,0.0,0.0,1.0,-1.88847290039,-1.39150634766,7.86524414063,0.1,0.0,0.0,0.0,0.1,0.0,0.0,0.0,0.1
1446038662777186746,221,1446038662773894071,robocape,3.51018727625,11.4790319595,76.2296344054,0.0,10.0,0.0,0.0,0.0,10.0,0.0,0.0,0.0,10.0,-1.47725545667,0.049401638221,0.355132531362,1.0,0.0,0.0,0.0,1.0,0.0,0.0,0.0,1.0,2.72912475586,-0.155676269531,11.6517700195,0.1,0.0,0.0,0.0,0.1,0.0,0.0,0.0,0.1
1446038662810360329,222,1446038662806852102,robocape,0.54227324579,10.8121738731,76.0714188175,0.0,10.0,0.0,0.0,0.0,10.0,0.0,0.0,0.0,10.0,-1.58045294891,-0.284292446366,0.375905187865,1.0,0.0,0.0,0.0,1.0,0.0,0.0,0.0,1.0,-2.56626342773,-0.489781494141,7.78980102539,0.1,0.0,0.0,0.0,0.1,0.0,0.0,0.0,0.1
1446038662843650871,223,1446038662840015888,robocape,-2.71506432847,10.5347323622,75.877093854,0.0,10.0,0.0,0.0,0.0,10.0,0.0,0.0,0.0,10.0,-1.7472999912,-0.0841558904465,0.378967823118,1.0,0.0,0.0,0.0,1.0,0.0,0.0,0.0,1.0,2.48603027344,-0.118553466797,9.17531982422,0.1,0.0,0.0,0.0,0.1,0.0,0.0,0.0,0.1
1446038662878053246,224,1446038662874864101,robocape,-6.26706177352,9.57329845506,75.6099361292,0.0,10.0,0.0,0.0,0.0,10.0,0.0,0.0,0.0,10.0,-1.9114838724,-0.452071595041,0.289485610492,1.0,0.0,0.0,0.0,1.0,0.0,0.0,0.0,1.0,-4.92296264648,-1.00590820312,6.42823242188,0.1,0.0,0.0,0.0,0.1,0.0,0.0,0.0,0.1
1446038662911211037,225,1446038662908067941,robocape,-10.0279696229,8.74408224085,75.1935748384,0.0,10.0,0.0,0.0,0.0,10.0,0.0,0.0,0.0,10.0,-2.02639927344,-0.378701507009,0.191348124322,1.0,0.0,0.0,0.0,1.0,0.0,0.0,0.0,1.0,-7.02818481445,-1.24062011719,9.17292480469,0.1,0.0,0.0,0.0,0.1,0.0,0.0,0.0,0.1
1446038662944065579,226,1446038662940623044,robocape,-13.813232664,8.21630548117,74.4921983413,0.0,10.0,0.0,0.0,0.0,10.0,0.0,0.0,0.0,10.0,-2.02879611842,-0.192280230704,0.0198405501211,1.0,0.0,0.0,0.0,1.0,0.0,0.0,0.0,1.0,0.391585693359,-1.63100830078,8.35981567383,0.1,0.0,0.0,0.0,0.1,0.0,0.0,0.0,0.1
1446038662976751621,227,1446038662973695039,robocape,-17.6473070689,8.0824420001,73.5201640313,0.0,10.0,0.0,0.0,0.0,10.0,0.0,0.0,0.0,10.0,-2.05090035547,0.0585895439817,-0.083756416283,1.0,0.0,0.0,0.0,1.0,0.0,0.0,0.0,1.0,1.64298339844,-2.35190917969,11.1452233887,0.1,0.0,0.0,0.0,0.1,0.0,0.0,0.0,0.1
1446038663009697329,228,1446038663006455898,robocape,-21.3537114838,7.90780819078,72.3563161288,0.0,10.0,0.0,0.0,0.0,10.0,0.0,0.0,0.0,10.0,-1.98245711545,0.0924116898257,-0.204930245882,1.0,0.0,0.0,0.0,1.0,0.0,0.0,0.0,1.0,-1.02626586914,-2.19503540039,8.52507202148,0.1,0.0,0.0,0.0,0.1,0.0,0.0,0.0,0.1
1446038663042117162,229,1446038663038980007,robocape,-24.9268274762,7.78887030397,70.9487773235,0.0,10.0,0.0,0.0,0.0,10.0,0.0,0.0,0.0,10.0,-1.90189649248,0.198006027047,-0.337955142331,1.0,0.0,0.0,0.0,1.0,0.0,0.0,0.0,1.0,-1.92320068359,-2.65487915039,11.1045080566,0.1,0.0,0.0,0.0,0.1,0.0,0.0,0.0,0.1
1446038663076803454,230,1446038663073693990,robocape,-27.9318493032,7.46175362317,69.424111476,0.0,10.0,0.0,0.0,0.0,10.0,0.0,0.0,0.0,10.0,-1.58564611303,0.164317039258,-0.498277439954,1.0,0.0,0.0,0.0,1.0,0.0,0.0,0.0,1.0,-3.70150268555,-3.4835559082,10.4949755859,0.1,0.0,0.0,0.0,0.1,0.0,0.0,0.0,0.1
1446038663109260537,231,1446038663106153011,robocape,-29.9250634443,7.11832519304,67.6121778359,0.0,10.0,0.0,0.0,0.0,10.0,0.0,0.0,0.0,10.0,-0.978179068386,0.279765072513,-0.787629892391,1.0,0.0,0.0,0.0,1.0,0.0,0.0,0.0,1.0,-4.00327514648,-7.20661376953,11.838581543,0.1,0.0,0.0,0.0,0.1,0.0,0.0,0.0,0.1
1446038663141732371,232,1446038663138386011,robocape,-29.9318786481,7.11479747453,65.450104119,0.0,10.0,0.0,0.0,0.0,10.0,0.0,0.0,0.0,10.0,0.201468136464,0.581634382073,-1.11613081285,1.0,0.0,0.0,0.0,1.0,0.0,0.0,0.0,1.0,2.46687011719,-4.51461181641,12.4481140137,0.1,0.0,0.0,0.0,0.1,0.0,0.0,0.0,0.1
1446038663174601537,233,1446038663171399116,robocape,-28.7636256857,7.60827448101,63.3131961368,0.0,10.0,0.0,0.0,0.0,10.0,0.0,0.0,0.0,10.0,0.853276813261,0.801478330059,-1.05567705611,1.0,0.0,0.0,0.0,1.0,0.0,0.0,0.0,1.0,-1.6441809082,-4.22840698242,12.4026086426,0.1,0.0,0.0,0.0,0.1,0.0,0.0,0.0,0.1
1446038663207709371,234,1446038663204622983,robocape,-26.7606509456,8.2238730351,61.2575566074,0.0,10.0,0.0,0.0,0.0,10.0,0.0,0.0,0.0,10.0,1.31466947212,0.815326767728,-1.05607653027,1.0,0.0,0.0,0.0,1.0,0.0,0.0,0.0,1.0,-4.78405151367,-3.59133178711,11.6876953125,0.1,0.0,0.0,0.0,0.1,0.0,0.0,0.0,0.1
1446038663241687121,235,1446038663238289117,robocape,-24.0233139999,8.49748361237,59.7348531456,0.0,10.0,0.0,0.0,0.0,10.0,0.0,0.0,0.0,10.0,1.64849671476,0.491619537229,-0.883770007743,1.0,0.0,0.0,0.0,1.0,0.0,0.0,0.0,1.0,-4.07392822266,-2.72193969727,9.48547485352,0.1,0.0,0.0,0.0,0.1,0.0,0.0,0.0,0.1
1446038663275027871,236,1446038663271708011,robocape,-20.9847918193,8.54335808492,58.5944732279,0.0,10.0,0.0,0.0,0.0,10.0,0.0,0.0,0.0,10.0,1.75062894256,0.261921893209,-0.717189281558,1.0,0.0,0.0,0.0,1.0,0.0,0.0,0.0,1.0,-3.88352416992,-2.01900146484,8.45082641602,0.1,0.0,0.0,0.0,0.1,0.0,0.0,0.0,0.1
1446038663307812829,237,1446038663304721117,robocape,-17.9161359842,8.20939492898,57.8369160774,0.0,10.0,0.0,0.0,0.0,10.0,0.0,0.0,0.0,10.0,1.70508888792,-0.0282295075548,-0.542619072104,1.0,0.0,0.0,0.0,1.0,0.0,0.0,0.0,1.0,-2.86803588867,-1.66094604492,8.99689086914,0.1,0.0,0.0,0.0,0.1,0.0,0.0,0.0,0.1
1446038663341526246,238,1446038663338114976,robocape,-15.0447155779,7.91004462098,57.1811785007,0.0,10.0,0.0,0.0,0.0,10.0,0.0,0.0,0.0,10.0,1.57113188509,-0.052064799311,-0.432896835192,1.0,0.0,0.0,0.0,1.0,0.0,0.0,0.0,1.0,-2.71475463867,-1.00710571289,8.61129272461,0.1,0.0,0.0,0.0,0.1,0.0,0.0,0.0,0.1
1446038663382904954,239,1446038663373267889,robocape,-12.5154456171,8.31932941169,56.4730348853,0.0,10.0,0.0,0.0,0.0,10.0,0.0,0.0,0.0,10.0,1.37951744466,0.295610880999,-0.315318273065,1.0,0.0,0.0,0.0,1.0,0.0,0.0,0.0,1.0,2.60458374023,-0.901724853516,12.0373681641,0.1,0.0,0.0,0.0,0.1,0.0,0.0,0.0,0.1
1446038663409606579,240,1446038663406359910,robocape,-10.146329672,8.64318588108,55.8473950525,0.0,10.0,0.0,0.0,0.0,10.0,0.0,0.0,0.0,10.0,1.28524154207,0.230496592346,-0.268579795934,1.0,0.0,0.0,0.0,1.0,0.0,0.0,0.0,1.0,1.97708862305,-0.641865234375,8.02810546875,0.1,0.0,0.0,0.0,0.1,0.0,0.0,0.0,0.1
1446038663441801996,241,1446038663438591003,robocape,-8.01980252602,8.7703110638,55.2506848806,0.0,10.0,0.0,0.0,0.0,10.0,0.0,0.0,0.0,10.0,1.1546134906,0.116246981582,-0.264052422081,1.0,0.0,0.0,0.0,1.0,0.0,0.0,0.0,1.0,3.02131713867,-0.952020263672,10.5368884277,0.1,0.0,0.0,0.0,0.1,0.0,0.0,0.0,0.1
1446038663474850329,242,1446038663471580028,robocape,-6.13699791064,10.0312286562,54.5361857509,0.0,10.0,0.0,0.0,0.0,10.0,0.0,0.0,0.0,10.0,1.03650229626,0.706669795253,-0.225436586275,1.0,0.0,0.0,0.0,1.0,0.0,0.0,0.0,1.0,5.79594726563,-0.324525146484,12.6037902832,0.1,0.0,0.0,0.0,0.1,0.0,0.0,0.0,0.1
1446038663507948163,243,1446038663504936933,robocape,-4.69032982617,10.7245663505,54.2238293738,0.0,10.0,0.0,0.0,0.0,10.0,0.0,0.0,0.0,10.0,0.76778934227,0.391484680242,-0.0099868540878,1.0,0.0,0.0,0.0,1.0,0.0,0.0,0.0,1.0,0.147293701172,1.13523925781,8.38735839844,0.1,0.0,0.0,0.0,0.1,0.0,0.0,0.0,0.1
1446038663541298913,244,1446038663538240909,robocape,-4.297384285,10.535173706,54.534031129,0.0,10.0,0.0,0.0,0.0,10.0,0.0,0.0,0.0,10.0,0.141680169992,-0.083223784065,0.356730428016,1.0,0.0,0.0,0.0,1.0,0.0,0.0,0.0,1.0,0.9196875,3.27638671875,11.9607275391,0.1,0.0,0.0,0.0,0.1,0.0,0.0,0.0,0.1
1446038663575307204,245,1446038663571865081,robocape,-5.63659117307,9.97741083417,55.2776142178,0.0,10.0,0.0,0.0,0.0,10.0,0.0,0.0,0.0,10.0,-0.826645202361,-0.285490868856,0.657134998977,1.0,0.0,0.0,0.0,1.0,0.0,0.0,0.0,1.0,3.92184448242,2.29921875,5.84265014648,0.1,0.0,0.0,0.0,0.1,0.0,0.0,0.0,0.1
1446038663607799413,246,1446038663604691028,robocape,-8.72231365591,9.78124958504,55.934655838,0.0,10.0,0.0,0.0,0.0,10.0,0.0,0.0,0.0,10.0,-1.75835210972,-0.104262756677,0.684965032368,1.0,0.0,0.0,0.0,1.0,0.0,0.0,0.0,1.0,2.09324707031,1.39270385742,11.0230773926,0.1,0.0,0.0,0.0,0.1,0.0,0.0,0.0,0.1
1446038663641117788,247,1446038663638094902,robocape,-12.9489167557,9.43101993781,56.2089022141,0.0,10.0,0.0,0.0,0.0,10.0,0.0,0.0,0.0,10.0,-2.3475765009,-0.178165476926,0.476439519015,1.0,0.0,0.0,0.0,1.0,0.0,0.0,0.0,1.0,0.979562988281,0.387993164063,7.57065673828,0.1,0.0,0.0,0.0,0.1,0.0,0.0,0.0,0.1
1446038663675369579,248,1446038663672106981,robocape,-17.9547696304,9.12745912408,56.0255879847,0.0,10.0,0.0,0.0,0.0,10.0,0.0,0.0,0.0,10.0,-2.75184435438,-0.113850136601,0.256062938811,1.0,0.0,0.0,0.0,1.0,0.0,0.0,0.0,1.0,1.88368286133,-1.22385498047,9.67228637695,0.1,0.0,0.0,0.0,0.1,0.0,0.0,0.0,0.1
1446038663707848746,249,1446038663704826116,robocape,-23.2529905934,8.71301133679,55.4653234173,0.0,10.0,0.0,0.0,0.0,10.0,0.0,0.0,0.0,10.0,-2.91722665807,-0.105727495276,0.0615190211808,1.0,0.0,0.0,0.0,1.0,0.0,0.0,0.0,1.0,1.2609777832,-1.07775878906,7.17068847656,0.1,0.0,0.0,0.0,0.1,0.0,0.0,0.0,0.1
1446038663741560871,250,1446038663738096952,robocape,-28.500008727,8.25018361565,54.5267695771,0.0,10.0,0.0,0.0,0.0,10.0,0.0,0.0,0.0,10.0,-2.90364453651,-0.0310258266994,-0.126899625942,1.0,0.0,0.0,0.0,1.0,0.0,0.0,0.0,1.0,1.96870605469,-1.63819335938,8.68314331055,0.1,0.0,0.0,0.0,0.1,0.0,0.0,0.0,0.1
1446038663774579704,251,1446038663771493911,robocape,-33.2749978828,8.0807447432,52.9808940656,0.0,10.0,0.0,0.0,0.0,10.0,0.0,0.0,0.0,10.0,-2.62321367373,0.297341935707,-0.360192537433,1.0,0.0,0.0,0.0,1.0,0.0,0.0,0.0,1.0,2.55788085937,-9.96088623047,10.9620043945,0.1,0.0,0.0,0.0,0.1,0.0,0.0,0.0,0.1
1446038663807912329,252,1446038663804819107,robocape,-34.0983329243,8.42857927474,49.8832554727,0.0,10.0,0.0,0.0,0.0,10.0,0.0,0.0,0.0,10.0,-0.119975407108,1.05620968833,-1.35062214683,1.0,0.0,0.0,0.0,1.0,0.0,0.0,0.0,1.0,3.34943481445,-15.0047973633,16.7411865234,0.1,0.0,0.0,0.0,0.1,0.0,0.0,0.0,0.1
1446038663841224204,253,1446038663837965965,robocape,-32.5928459176,9.20535545178,47.3348257132,0.0,10.0,0.0,0.0,0.0,10.0,0.0,0.0,0.0,10.0,1.13517241465,1.08736867308,-1.08563761837,1.0,0.0,0.0,0.0,1.0,0.0,0.0,0.0,1.0,-4.18290161133,-3.38176757813,9.82317260742,0.1,0.0,0.0,0.0,0.1,0.0,0.0,0.0,0.1
1446038663874679454,254,1446038663871362924,robocape,-31.2131529971,8.99042527859,46.5732653179,0.0,10.0,0.0,0.0,0.0,10.0,0.0,0.0,0.0,10.0,0.807204126403,0.115714349364,-0.425173668031,1.0,0.0,0.0,0.0,1.0,0.0,0.0,0.0,1.0,-4.26672729492,0.431103515625,7.18026855469,0.1,0.0,0.0,0.0,0.1,0.0,0.0,0.0,0.1
1446038663907598329,255,1446038663904519081,robocape,-30.7515114474,8.24476086993,46.452890259,0.0,10.0,0.0,0.0,0.0,10.0,0.0,0.0,0.0,10.0,0.19454391763,-0.311190373376,-0.172306522528,1.0,0.0,0.0,0.0,1.0,0.0,0.0,0.0,1.0,-5.82588500977,0.332907714844,5.72289916992,0.1,0.0,0.0,0.0,0.1,0.0,0.0,0.0,0.1
1446038663942079288,256,1446038663938570022,robocape,-31.7531848157,8.369612814,45.9085394042,0.0,10.0,0.0,0.0,0.0,10.0,0.0,0.0,0.0,10.0,-0.611461786282,0.184823379651,-0.0253000303558,1.0,0.0,0.0,0.0,1.0,0.0,0.0,0.0,1.0,-3.45601318359,0.293389892578,12.5870251465,0.1,0.0,0.0,0.0,0.1,0.0,0.0,0.0,0.1
1446038663974883663,257,1446038663971519947,robocape,-33.7778958378,7.88823943222,45.4384857167,0.0,10.0,0.0,0.0,0.0,10.0,0.0,0.0,0.0,10.0,-1.2061456577,-0.106526443603,-0.102798018077,1.0,0.0,0.0,0.0,1.0,0.0,0.0,0.0,1.0,-1.08254882812,-1.46455444336,8.8519921875,0.1,0.0,0.0,0.0,0.1,0.0,0.0,0.0,0.1
1446038664008232621,258,1446038664004899978,robocape,-35.3755442176,8.09079645575,43.6963675133,0.0,10.0,0.0,0.0,0.0,10.0,0.0,0.0,0.0,10.0,-0.802144120332,0.587093862308,-0.568718050786,1.0,0.0,0.0,0.0,1.0,0.0,0.0,0.0,1.0,1.56993530273,-11.3655651855,14.0431970215,0.1,0.0,0.0,0.0,0.1,0.0,0.0,0.0,0.1
1446038664041557830,259,1446038664037854909,robocape,-35.3224882743,8.76895809003,41.0485525779,0.0,10.0,0.0,0.0,0.0,10.0,0.0,0.0,0.0,10.0,0.289485610492,1.08989867611,-0.982839600294,1.0,0.0,0.0,0.0,1.0,0.0,0.0,0.0,1.0,-1.95553344727,-5.92168579102,12.303215332,0.1,0.0,0.0,0.0,0.1,0.0,0.0,0.0,0.1
1446038664075544413,260,1446038664071854114,robocape,-34.741693802,9.24103317543,39.1556906181,0.0,10.0,0.0,0.0,0.0,10.0,0.0,0.0,0.0,10.0,0.49787796579,0.76778934227,-0.703873476108,1.0,0.0,0.0,0.0,1.0,0.0,0.0,0.0,1.0,-0.4981640625,-2.73870483398,10.4877905273,0.1,0.0,0.0,0.0,0.1,0.0,0.0,0.0,0.1
1446038664107926038,261,1446038664104679107,robocape,-34.2319279175,9.02230419601,38.2094410648,0.0,10.0,0.0,0.0,0.0,10.0,0.0,0.0,0.0,10.0,0.33702303595,0.181893902452,-0.458596339712,1.0,0.0,0.0,0.0,1.0,0.0,0.0,0.0,1.0,1.73878417969,-0.470621337891,8.80169677734,0.1,0.0,0.0,0.0,0.1,0.0,0.0,0.0,0.1
1446038664141278913,262,1446038664137907981,robocape,-34.2783256701,8.97983491524,37.2420911828,0.0,10.0,0.0,0.0,0.0,10.0,0.0,0.0,0.0,10.0,0.00985369603329,0.260057680446,-0.376970452301,1.0,0.0,0.0,0.0,1.0,0.0,0.0,0.0,1.0,4.80919921875,-1.02027832031,9.32261352539,0.1,0.0,0.0,0.0,0.1,0.0,0.0,0.0,0.1
1446038664174688371,263,1446038664171575069,robocape,-35.0953842203,8.87814939753,36.3586868502,0.0,10.0,0.0,0.0,0.0,10.0,0.0,0.0,0.0,10.0,-0.452071595041,0.210123410007,-0.306130367305,1.0,0.0,0.0,0.0,1.0,0.0,0.0,0.0,1.0,-1.42024658203,-0.0718505859375,10.4973706055,0.1,0.0,0.0,0.0,0.1,0.0,0.0,0.0,0.1
1446038664207747205,264,1446038664204721927,robocape,-36.7247441982,8.63649931145,35.7141129176,0.0,10.0,0.0,0.0,0.0,10.0,0.0,0.0,0.0,10.0,-0.967925898189,0.0816258874109,-0.181893902452,1.0,0.0,0.0,0.0,1.0,0.0,0.0,0.0,1.0,-3.1769934082,-0.408350830078,8.48076416016,0.1,0.0,0.0,0.0,0.1,0.0,0.0,0.0,0.1
1446038664241601705,265,1446038664238068103,robocape,-38.153251221,8.3834862634,34.1507271306,0.0,10.0,0.0,0.0,0.0,10.0,0.0,0.0,0.0,10.0,-0.729173506464,0.380033087554,-0.629837597804,1.0,0.0,0.0,0.0,1.0,0.0,0.0,0.0,1.0,1.27175537109,-10.2411035156,12.0565283203,0.1,0.0,0.0,0.0,0.1,0.0,0.0,0.0,0.1
1446038664274670705,266,1446038664271531105,robocape,-37.5940998744,8.2020646565,32.4051207643,0.0,10.0,0.0,0.0,0.0,10.0,0.0,0.0,0.0,10.0,0.466585822982,0.483230579795,-0.80946781333,1.0,0.0,0.0,0.0,1.0,0.0,0.0,0.0,1.0,-3.37817504883,-5.81390991211,10.6973547363,0.1,0.0,0.0,0.0,0.1,0.0,0.0,0.0,0.1
1446038664308899538,267,1446038664305876016,robocape,-36.9200374135,8.33953221379,31.1019893924,0.0,10.0,0.0,0.0,0.0,10.0,0.0,0.0,0.0,10.0,0.462457923292,0.466718981036,-0.503736920188,1.0,0.0,0.0,0.0,1.0,0.0,0.0,0.0,1.0,1.94236083984,-1.57712036133,9.86748046875,0.1,0.0,0.0,0.0,0.1,0.0,0.0,0.0,0.1
1446038664342356663,268,1446038664339091062,robocape,-37.0393526833,8.66581309394,30.0791785153,0.0,10.0,0.0,0.0,0.0,10.0,0.0,0.0,0.0,10.0,-0.0463390029674,0.452870543368,-0.267381373444,1.0,0.0,0.0,0.0,1.0,0.0,0.0,0.0,1.0,0.759221191406,-0.0694555664063,10.2231408691,0.1,0.0,0.0,0.0,0.1,0.0,0.0,0.0,0.1
1446038664376454038,269,1446038664373317003,robocape,-38.0229001818,8.68990927474,29.1318517777,0.0,10.0,0.0,0.0,0.0,10.0,0.0,0.0,0.0,10.0,-0.559396986971,0.305730893141,-0.286556133293,1.0,0.0,0.0,0.0,1.0,0.0,0.0,0.0,1.0,-3.98770751953,-4.53975952148,11.4002929688,0.1,0.0,0.0,0.0,0.1,0.0,0.0,0.0,0.1
1446038664409494871,270,1446038664406263113,robocape,-38.573979709,8.35989037369,27.9539411364,0.0,10.0,0.0,0.0,0.0,10.0,0.0,0.0,0.0,10.0,-0.266582425117,0.240616604489,-0.533564324397,1.0,0.0,0.0,0.0,1.0,0.0,0.0,0.0,1.0,0.710123291016,-3.8703515625,8.85797973633,0.1,0.0,0.0,0.0,0.1,0.0,0.0,0.0,0.1
1446038664442736496,271,1446038664439414024,robocape,-38.4831337523,8.07058255056,26.7515845433,0.0,10.0,0.0,0.0,0.0,10.0,0.0,0.0,0.0,10.0,0.112252239947,0.268979270098,-0.563524886661,1.0,0.0,0.0,0.0,1.0,0.0,0.0,0.0,1.0,3.4907409668,-4.63196777344,10.459050293,0.1,0.0,0.0,0.0,0.1,0.0,0.0,0.0,0.1
1446038664476109080,272,1446038664472982883,robocape,-38.4035863713,7.9298337645,25.8188524847,0.0,10.0,0.0,0.0,0.0,10.0,0.0,0.0,0.0,10.0,0.0652474467069,0.241948185034,-0.393482051059,1.0,0.0,0.0,0.0,1.0,0.0,0.0,0.0,1.0,0.334105224609,-0.997525634766,9.38248901367,0.1,0.0,0.0,0.0,0.1,0.0,0.0,0.0,0.1
1446038664509096038,273,1446038664505933046,robocape,-38.8028542475,8.23377724255,24.5412506806,0.0,10.0,0.0,0.0,0.0,10.0,0.0,0.0,0.0,10.0,-0.189084437396,0.537292749923,-0.368448336812,1.0,0.0,0.0,0.0,1.0,0.0,0.0,0.0,1.0,6.02946166992,-3.10634033203,12.9079577637,0.1,0.0,0.0,0.0,0.1,0.0,0.0,0.0,0.1
1446038664541958038,274,1446038664538865089,robocape,-38.9724909451,8.05860939466,23.3776213043,0.0,10.0,0.0,0.0,0.0,10.0,0.0,0.0,0.0,10.0,-0.0541953281831,0.307328789795,-0.494149540264,1.0,0.0,0.0,0.0,1.0,0.0,0.0,0.0,1.0,2.4105871582,-3.73982299805,9.83993774414,0.1,0.0,0.0,0.0,0.1,0.0,0.0,0.0,0.1
1446038664576339580,275,1446038664572834014,robocape,-38.9812881122,7.53310804935,22.4494690531,0.0,10.0,0.0,0.0,0.0,10.0,0.0,0.0,0.0,10.0,0.0191747598486,0.0888164223541,-0.521846415601,1.0,0.0,0.0,0.0,1.0,0.0,0.0,0.0,1.0,2.2956262207,-4.12901367188,8.03529052734,0.1,0.0,0.0,0.0,0.1,0.0,0.0,0.0,0.1
1446038664611495996,276,1446038664607628107,robocape,-39.3402266795,7.35856930702,21.3968134188,0.0,10.0,0.0,0.0,0.0,10.0,0.0,0.0,0.0,10.0,-0.188418647123,0.274305592278,-0.439821054027,1.0,0.0,0.0,0.0,1.0,0.0,0.0,0.0,1.0,-2.91952880859,-0.907712402344,8.37777832031,0.1,0.0,0.0,0.0,0.1,0.0,0.0,0.0,0.1
1446038664644763455,277,1446038664640073060,robocape,-40.0070170157,6.80896747491,20.4512939126,0.0,10.0,0.0,0.0,0.0,10.0,0.0,0.0,0.0,10.0,-0.380033087554,0.0917458995532,-0.512125877622,1.0,0.0,0.0,0.0,1.0,0.0,0.0,0.0,1.0,10.6207141113,-7.08327026367,10.6590344238,0.1,0.0,0.0,0.0,0.1,0.0,0.0,0.0,0.1
1446038664677961038,278,1446038664673258066,robocape,-38.3171725948,6.3663055378,18.5551771705,0.0,10.0,0.0,0.0,0.0,10.0,0.0,0.0,0.0,10.0,1.10787501347,0.44288368928,-0.968192214298,1.0,0.0,0.0,0.0,1.0,0.0,0.0,0.0,1.0,-5.41873168945,-6.744375,10.5500610352,0.1,0.0,0.0,0.0,0.1,0.0,0.0,0.0,0.1
1446038664710672330,279,1446038664707544088,robocape,-37.4192227682,5.71044420636,17.7267972328,0.0,10.0,0.0,0.0,0.0,10.0,0.0,0.0,0.0,10.0,0.532232743852,-0.00625842856169,-0.559530145026,1.0,0.0,0.0,0.0,1.0,0.0,0.0,0.0,1.0,-7.57544677734,-0.687370605469,14.1821081543,0.1,0.0,0.0,0.0,0.1,0.0,0.0,0.0,0.1
1446038664745319663,280,1446038664740811109,robocape,-36.7830521509,4.93972783643,17.53619994,0.0,10.0,0.0,0.0,0.0,10.0,0.0,0.0,0.0,10.0,0.323840388554,-0.262321367373,-0.313587218357,1.0,0.0,0.0,0.0,1.0,0.0,0.0,0.0,1.0,-6.47493530273,-1.18553466797,4.89182739258,0.1,0.0,0.0,0.0,0.1,0.0,0.0,0.0,0.1
1446038664778560413,281,1446038664774525880,robocape,-37.6305670139,5.17496288145,17.1875504746,0.0,10.0,0.0,0.0,0.0,10.0,0.0,0.0,0.0,10.0,-0.550874871483,0.206394984481,-0.0107858024148,1.0,0.0,0.0,0.0,1.0,0.0,0.0,0.0,1.0,0.902922363281,-0.159268798828,11.9798876953,0.1,0.0,0.0,0.0,0.1,0.0,0.0,0.0,0.1
1446038664810825413,282,1446038664807780027,robocape,-39.48229727,4.95811485902,17.1808795485,0.0,10.0,0.0,0.0,0.0,10.0,0.0,0.0,0.0,10.0,-1.17205719574,-0.0909469512262,0.0186421276306,1.0,0.0,0.0,0.0,1.0,0.0,0.0,0.0,1.0,3.08478515625,-0.677790527344,6.96591430664,0.1,0.0,0.0,0.0,0.1,0.0,0.0,0.0,0.1
1446038664844281747,283,1446038664840189933,robocape,-41.2762457331,4.44344361938,15.8799617421,0.0,10.0,0.0,0.0,0.0,10.0,0.0,0.0,0.0,10.0,-1.05341336918,0.231428698728,-0.622513904806,1.0,0.0,0.0,0.0,1.0,0.0,0.0,0.0,1.0,10.0303417969,-9.82437011719,13.8240527344,0.1,0.0,0.0,0.0,0.1,0.0,0.0,0.0,0.1
1446038664878228080,284,1446038664874468088,robocape,-40.2865848558,4.21445791346,13.8071576077,0.0,10.0,0.0,0.0,0.0,10.0,0.0,0.0,0.0,10.0,0.648479725434,0.616654950408,-0.915994256933,1.0,0.0,0.0,0.0,1.0,0.0,0.0,0.0,1.0,0.374820556641,-5.45944702148,10.3716320801,0.1,0.0,0.0,0.0,0.1,0.0,0.0,0.0,0.1
1446038664910852497,285,1446038664907609939,robocape,-39.3749717514,4.1463451766,12.56025214,0.0,10.0,0.0,0.0,0.0,10.0,0.0,0.0,0.0,10.0,0.537559066032,0.389753625533,-0.527305895836,1.0,0.0,0.0,0.0,1.0,0.0,0.0,0.0,1.0,0.0311352539063,-1.31127319336,8.37418579102,0.1,0.0,0.0,0.0,0.1,0.0,0.0,0.0,0.1
1446038664944922330,286,1446038664941108942,robocape,-39.2901063461,4.14049848542,11.746714353,0.0,10.0,0.0,0.0,0.0,10.0,0.0,0.0,0.0,10.0,0.0190416017941,0.267115057335,-0.312255637812,1.0,0.0,0.0,0.0,1.0,0.0,0.0,0.0,1.0,-2.73630981445,-1.302890625,11.4457983398,0.1,0.0,0.0,0.0,0.1,0.0,0.0,0.0,0.1
1446038664978043205,287,1446038664974524021,robocape,-40.1201274512,4.20962201386,11.1466188342,0.0,10.0,0.0,0.0,0.0,10.0,0.0,0.0,0.0,10.0,-0.539156962687,0.229165011801,-0.179097583308,1.0,0.0,0.0,0.0,1.0,0.0,0.0,0.0,1.0,2.78181518555,-0.415535888672,9.53936279297,0.1,0.0,0.0,0.0,0.1,0.0,0.0,0.0,0.1
1446038665011903205,288,1446038665008644104,robocape,-41.1185209356,3.43558207155,10.4094915037,0.0,10.0,0.0,0.0,0.0,10.0,0.0,0.0,0.0,10.0,-0.628772333368,-0.0568584892732,-0.52064799311,1.0,0.0,0.0,0.0,1.0,0.0,0.0,0.0,1.0,5.79594726563,-7.3958203125,8.86157226562,0.1,0.0,0.0,0.0,0.1,0.0,0.0,0.0,0.1
1446038665043879705,289,1446038665040291070,robocape,-40.6565572069,3.49728458641,8.52680216032,0.0,10.0,0.0,0.0,0.0,10.0,0.0,0.0,0.0,10.0,0.286556133293,0.668852907773,-0.719186652376,1.0,0.0,0.0,0.0,1.0,0.0,0.0,0.0,1.0,5.64386352539,-4.77207641602,10.8326733398,0.1,0.0,0.0,0.0,0.1,0.0,0.0,0.0,0.1
1446038665077573538,290,1446038665073856115,robocape,-40.0000837782,3.77739629636,7.04693505616,0.0,10.0,0.0,0.0,0.0,10.0,0.0,0.0,0.0,10.0,0.379234139227,0.612793366827,-0.491752695283,1.0,0.0,0.0,0.0,1.0,0.0,0.0,0.0,1.0,0.355660400391,-0.637075195313,8.89510253906,0.1,0.0,0.0,0.0,0.1,0.0,0.0,0.0,0.1
1446038665110053580,291,1446038665106647014,robocape,-40.1863267678,3.93921791891,5.94581424092,0.0,10.0,0.0,0.0,0.0,10.0,0.0,0.0,0.0,10.0,-0.138084902521,0.439155263754,-0.370978339848,1.0,0.0,0.0,0.0,1.0,0.0,0.0,0.0,1.0,-1.28013793945,-0.629890136719,10.5668261719,0.1,0.0,0.0,0.0,0.1,0.0,0.0,0.0,0.1
1446038665143189913,292,1446038665139889001,robocape,-40.9923583784,3.76977139805,5.23112246736,0.0,10.0,0.0,0.0,0.0,10.0,0.0,0.0,0.0,10.0,-0.526373789454,0.181893902452,-0.320910911355,1.0,0.0,0.0,0.0,1.0,0.0,0.0,0.0,1.0,-4.19607421875,-3.06682250977,9.56331298828,0.1,0.0,0.0,0.0,0.1,0.0,0.0,0.0,0.1
1446038665176471205,293,1446038665173150062,robocape,-41.3449809285,3.41710120794,4.16903342432,0.0,10.0,0.0,0.0,0.0,10.0,0.0,0.0,0.0,10.0,-0.244877662233,0.231295540673,-0.527039579727,1.0,0.0,0.0,0.0,1.0,0.0,0.0,0.0,1.0,3.90028930664,-7.36468505859,11.1069030762,0.1,0.0,0.0,0.0,0.1,0.0,0.0,0.0,0.1
1446038665210288913,294,1446038665207176923,robocape,-41.3612641855,3.12579609924,2.81125790198,0.0,10.0,0.0,0.0,0.0,10.0,0.0,0.0,0.0,10.0,-0.0387489938607,0.358594640779,-0.626641804496,1.0,0.0,0.0,0.0,1.0,0.0,0.0,0.0,1.0,4.19487670898,-1.81183227539,9.05796386719,0.1,0.0,0.0,0.0,0.1,0.0,0.0,0.0,0.1
1446038665243894830,295,1446038665240431070,robocape,-40.8440710389,3.15389149084,1.63542141119,0.0,10.0,0.0,0.0,0.0,10.0,0.0,0.0,0.0,10.0,0.267514531498,0.417716816979,-0.45087317255,1.0,0.0,0.0,0.0,1.0,0.0,0.0,0.0,1.0,3.3302746582,-6.21866821289,8.79451171875,0.1,0.0,0.0,0.0,0.1,0.0,0.0,0.0,0.1
1446038665277140372,296,1446038665273849010,robocape,-40.7632037829,3.1721013912,0.828301880577,0.0,10.0,0.0,0.0,0.0,10.0,0.0,0.0,0.0,10.0,-0.00599211245268,0.288154029947,-0.309459318667,1.0,0.0,0.0,0.0,1.0,0.0,0.0,0.0,1.0,-2.51237548828,-2.05013671875,8.50471435547,0.1,0.0,0.0,0.0,0.1,0.0,0.0,0.0,0.1
1446038665309653205,297,1446038665306529998,robocape,-41.554295535,3.50118017189,-0.234086031053,0.0,10.0,0.0,0.0,0.0,10.0,0.0,0.0,0.0,10.0,-0.520914309219,0.507465345715,-0.300138254852,1.0,0.0,0.0,0.0,1.0,0.0,0.0,0.0,1.0,4.02123779297,-3.30991699219,13.2731982422,0.1,0.0,0.0,0.0,0.1,0.0,0.0,0.0,0.1
1446038665342185663,298,1446038665339005947,robocape,-41.6988251813,2.85999831816,-1.22055936353,0.0,10.0,0.0,0.0,0.0,10.0,0.0,0.0,0.0,10.0,-0.137552270303,0.0994690667145,-0.608665467138,1.0,0.0,0.0,0.0,1.0,0.0,0.0,0.0,1.0,4.37809570313,-5.2846105957,8.0125378418,0.1,0.0,0.0,0.0,0.1,0.0,0.0,0.0,0.1
1446038665377814039,299,1446038665374623060,robocape,-41.2596310023,2.63901661475,-2.7618847188,0.0,10.0,0.0,0.0,0.0,10.0,0.0,0.0,0.0,10.0,0.217846577168,0.452204753095,-0.682301871278,1.0,0.0,0.0,0.0,1.0,0.0,0.0,0.0,1.0,2.80576538086,-3.97094238281,11.7367932129,0.1,0.0,0.0,0.0,0.1,0.0,0.0,0.0,0.1
1446038665409875372,300,1446038665406774997,robocape,-40.6247615433,2.28893965298,-3.9723077234,0.0,10.0,0.0,0.0,0.0,10.0,0.0,0.0,0.0,10.0,0.321310385518,0.280297704731,-0.601075458031,1.0,0.0,0.0,0.0,1.0,0.0,0.0,0.0,1.0,-4.74692871094,-1.13044921875,8.55141723633,0.1,0.0,0.0,0.0,0.1,0.0,0.0,0.0,0.1
1446038665441917122,301,1446038665438821077,robocape,-40.5120146026,1.97523044919,-4.79919452963,0.0,10.0,0.0,0.0,0.0,10.0,0.0,0.0,0.0,10.0,-0.000798948327024,0.163917565094,-0.442617373171,1.0,0.0,0.0,0.0,1.0,0.0,0.0,0.0,1.0,1.51245483398,0.171243896484,11.205098877,0.1,0.0,0.0,0.0,0.1,0.0,0.0,0.0,0.1
1446038665474799414,302,1446038665471757888,robocape,-41.2332146866,2.95796534699,-6.34622262337,0.0,10.0,0.0,0.0,0.0,10.0,0.0,0.0,0.0,10.0,-0.486293215048,0.937166387599,-0.290684032982,1.0,0.0,0.0,0.0,1.0,0.0,0.0,0.0,1.0,7.8520715332,-0.116158447266,11.1033105469,0.1,0.0,0.0,0.0,0.1,0.0,0.0,0.0,0.1
1446038665508172289,303,1446038665505151987,robocape,-41.5560596975,3.2043634397,-8.22409250001,0.0,10.0,0.0,0.0,0.0,10.0,0.0,0.0,0.0,10.0,-0.241016078652,0.765658813398,-0.670051330264,1.0,0.0,0.0,0.0,1.0,0.0,0.0,0.0,1.0,5.49776733398,-5.82947753906,8.39693847656,0.1,0.0,0.0,0.0,0.1,0.0,0.0,0.0,0.1
1446038665541235205,304,1446038665538186073,robocape,-40.5383229584,2.92164285322,-9.93185951812,0.0,10.0,0.0,0.0,0.0,10.0,0.0,0.0,0.0,10.0,0.550874871483,0.479901628432,-0.776710931922,1.0,0.0,0.0,0.0,1.0,0.0,0.0,0.0,1.0,-1.93517578125,-2.4872277832,12.5654699707,0.1,0.0,0.0,0.0,0.1,0.0,0.0,0.0,0.1
1446038665574514539,305,1446038665571446895,robocape,-39.9729938422,2.39247581461,-10.7713345157,0.0,10.0,0.0,0.0,0.0,10.0,0.0,0.0,0.0,10.0,0.262188209318,0.0810932551929,-0.527039579727,1.0,0.0,0.0,0.0,1.0,0.0,0.0,0.0,1.0,3.13627807617,-0.0790356445313,6.16118774414,0.1,0.0,0.0,0.0,0.1,0.0,0.0,0.0,0.1
1446038665608242789,306,1446038665605201959,robocape,-40.3200283871,2.17529022135,-11.3140151925,0.0,10.0,0.0,0.0,0.0,10.0,0.0,0.0,0.0,10.0,-0.284159288311,0.113850136601,-0.318913540537,1.0,0.0,0.0,0.0,1.0,0.0,0.0,0.0,1.0,3.50870361328,0.0682580566406,11.516451416,0.1,0.0,0.0,0.0,0.1,0.0,0.0,0.0,0.1
1446038665641025122,307,1446038665638025999,robocape,-41.7402864162,2.82815994764,-12.2920071566,0.0,10.0,0.0,0.0,0.0,10.0,0.0,0.0,0.0,10.0,-0.923717424094,0.628772333368,-0.212387096934,1.0,0.0,0.0,0.0,1.0,0.0,0.0,0.0,1.0,-3.82484619141,-1.6513659668,10.765612793,0.1,0.0,0.0,0.0,0.1,0.0,0.0,0.0,0.1
1446038665674528747,308,1446038665671446084,robocape,-42.6357647084,2.9213815525,-14.0999097233,0.0,10.0,0.0,0.0,0.0,10.0,0.0,0.0,0.0,10.0,-0.61612231819,0.709998746615,-0.723048235957,1.0,0.0,0.0,0.0,1.0,0.0,0.0,0.0,1.0,8.12151123047,-9.6603112793,12.8013793945,0.1,0.0,0.0,0.0,0.1,0.0,0.0,0.0,0.1
1446038665708307872,309,1446038665705208063,robocape,-41.8139596899,3.16241563368,-17.0849383762,0.0,10.0,0.0,0.0,0.0,10.0,0.0,0.0,0.0,10.0,0.418249449197,1.16593192524,-1.104279746,1.0,0.0,0.0,0.0,1.0,0.0,0.0,0.0,1.0,10.7464526367,-5.63787597656,9.74174194336,0.1,0.0,0.0,0.0,0.1,0.0,0.0,0.0,0.1
1446038665741032080,310,1446038665738022089,robocape,-40.5323948302,3.56967631703,-19.2815229732,0.0,10.0,0.0,0.0,0.0,10.0,0.0,0.0,0.0,10.0,0.685763980695,0.931041117092,-0.745951421331,1.0,0.0,0.0,0.0,1.0,0.0,0.0,0.0,1.0,3.55301147461,-1.05500610352,11.996652832,0.1,0.0,0.0,0.0,0.1,0.0,0.0,0.0,0.1
1446038665774520164,311,1446038665771394968,robocape,-39.7251099629,3.73923067437,-20.0201898477,0.0,10.0,0.0,0.0,0.0,10.0,0.0,0.0,0.0,10.0,0.395213105768,0.331164081551,-0.2616555771,1.0,0.0,0.0,0.0,1.0,0.0,0.0,0.0,1.0,-5.19240234375,-0.0730480957031,9.27591064453,0.1,0.0,0.0,0.0,0.1,0.0,0.0,0.0,0.1
1446038665808072580,312,1446038665804963111,robocape,-40.2001628297,3.86557366358,-20.1572828997,0.0,10.0,0.0,0.0,0.0,10.0,0.0,0.0,0.0,10.0,-0.364986227395,0.129695945087,-0.067910607797,1.0,0.0,0.0,0.0,1.0,0.0,0.0,0.0,1.0,-2.54351074219,0.695753173828,11.5439941406,0.1,0.0,0.0,0.0,0.1,0.0,0.0,0.0,0.1
1446038665841270372,313,1446038665838169097,robocape,-41.8791581894,3.7615803198,-20.4114932478,0.0,10.0,0.0,0.0,0.0,10.0,0.0,0.0,0.0,10.0,-1.08896656973,0.104262756677,-0.233825543709,1.0,0.0,0.0,0.0,1.0,0.0,0.0,0.0,1.0,1.26936035156,-0.475411376953,7.24972412109,0.1,0.0,0.0,0.0,0.1,0.0,0.0,0.0,0.1
1446038665874997705,314,1446038665871618032,robocape,-41.7613785034,3.44061341102,-22.1999307504,0.0,10.0,0.0,0.0,0.0,10.0,0.0,0.0,0.0,10.0,-0.0274305592278,0.541420649613,-0.880041582217,1.0,0.0,0.0,0.0,1.0,0.0,0.0,0.0,1.0,-0.411943359375,-9.66270629883,13.473182373,0.1,0.0,0.0,0.0,0.1,0.0,0.0,0.0,0.1
1446038665908083372,315,1446038665905042886,robocape,-40.7072228819,3.45421942214,-24.2905430804,0.0,10.0,0.0,0.0,0.0,10.0,0.0,0.0,0.0,10.0,0.525042208909,0.755405643201,-0.867524725093,1.0,0.0,0.0,0.0,1.0,0.0,0.0,0.0,1.0,-3.59133178711,-2.1806652832,11.0649902344,0.1,0.0,0.0,0.0,0.1,0.0,0.0,0.0,0.1
1446038665941224747,316,1446038665938129901,robocape,-40.1092202465,3.48330939233,-25.2814616158,0.0,10.0,0.0,0.0,0.0,10.0,0.0,0.0,0.0,10.0,0.254731358266,0.376304662028,-0.437157892937,1.0,0.0,0.0,0.0,1.0,0.0,0.0,0.0,1.0,0.0742456054688,-0.711320800781,8.9705456543,0.1,0.0,0.0,0.0,0.1,0.0,0.0,0.0,0.1
1446038665974719164,317,1446038665971704006,robocape,-40.4159777063,3.2983381918,-25.6276378373,0.0,10.0,0.0,0.0,0.0,10.0,0.0,0.0,0.0,10.0,-0.279898230567,0.083756416283,-0.278699808077,1.0,0.0,0.0,0.0,1.0,0.0,0.0,0.0,1.0,2.00942138672,-0.681383056641,9.70821166992,0.1,0.0,0.0,0.0,0.1,0.0,0.0,0.0,0.1
1446038666008535122,318,1446038666005505084,robocape,-41.3651219349,3.11541215034,-26.1077369464,0.0,10.0,0.0,0.0,0.0,10.0,0.0,0.0,0.0,10.0,-0.668852907773,0.149270179099,-0.36365464685,1.0,0.0,0.0,0.0,1.0,0.0,0.0,0.0,1.0,1.17116455078,-4.39366333008,10.3345092773,0.1,0.0,0.0,0.0,0.1,0.0,0.0,0.0,0.1
1446038666041071872,319,1446038666038055896,robocape,-41.4139263583,2.75064662702,-27.2794112361,0.0,10.0,0.0,0.0,0.0,10.0,0.0,0.0,0.0,10.0,-0.153398078789,0.312921428084,-0.685231348477,1.0,0.0,0.0,0.0,1.0,0.0,0.0,0.0,1.0,-0.322130126953,-5.28341308594,11.6517700195,0.1,0.0,0.0,0.0,0.1,0.0,0.0,0.0,0.1
1446038666074381247,320,1446038666071362018,robocape,-41.0798676261,2.43768789801,-28.2810206164,0.0,10.0,0.0,0.0,0.0,10.0,0.0,0.0,0.0,10.0,0.0711064011051,0.263519789863,-0.585629123708,1.0,0.0,0.0,0.0,1.0,0.0,0.0,0.0,1.0,-4.88823486328,-3.08119262695,8.41849365234,0.1,0.0,0.0,0.0,0.1,0.0,0.0,0.0,0.1
1446038666107866081,321,1446038666104865074,robocape,-41.0334899197,2.52173680541,-29.2835053146,0.0,10.0,0.0,0.0,0.0,10.0,0.0,0.0,0.0,10.0,-0.0986701183874,0.425839458304,-0.465387400491,1.0,0.0,0.0,0.0,1.0,0.0,0.0,0.0,1.0,2.47046264648,-1.48371459961,10.8482409668,0.1,0.0,0.0,0.0,0.1,0.0,0.0,0.0,0.1
1446038666140946956,322,1446038666137942075,robocape,-41.3468419474,2.32311654101,-29.8182624422,0.0,10.0,0.0,0.0,0.0,10.0,0.0,0.0,0.0,10.0,-0.309193002558,0.157392820424,-0.388022570825,1.0,0.0,0.0,0.0,1.0,0.0,0.0,0.0,1.0,-4.25594970703,-4.04399047852,6.821015625,0.1,0.0,0.0,0.0,0.1,0.0,0.0,0.0,0.1
1446038666174636789,323,1446038666171576023,robocape,-41.1107506739,3.3463222484,-32.1192424444,0.0,10.0,0.0,0.0,0.0,10.0,0.0,0.0,0.0,10.0,-0.00426105774413,1.26766467888,-0.688160825676,1.0,0.0,0.0,0.0,1.0,0.0,0.0,0.0,1.0,-8.2807800293,1.43461669922,16.6837060547,0.1,0.0,0.0,0.0,0.1,0.0,0.0,0.0,0.1
1446038666207759789,324,1446038666204724073,robocape,-40.5239584307,3.29605049788,-34.2921769663,0.0,10.0,0.0,0.0,0.0,10.0,0.0,0.0,0.0,10.0,0.192413388758,0.797483588424,-1.02318649081,1.0,0.0,0.0,0.0,1.0,0.0,0.0,0.0,1.0,-4.31343017578,-6.63779663086,8.9705456543,0.1,0.0,0.0,0.0,0.1,0.0,0.0,0.0,0.1
1446038666240975831,325,1446038666237967967,robocape,-39.2814529238,3.23889726094,-35.540463159,0.0,10.0,0.0,0.0,0.0,10.0,0.0,0.0,0.0,10.0,0.594683871415,0.435559996282,-0.601741248303,1.0,0.0,0.0,0.0,1.0,0.0,0.0,0.0,1.0,-1.5328125,-1.26936035156,10.213560791,0.1,0.0,0.0,0.0,0.1,0.0,0.0,0.0,0.1
1446038666274533622,326,1446038666271296977,robocape,-38.5800242579,3.17598665119,-35.8032723812,0.0,10.0,0.0,0.0,0.0,10.0,0.0,0.0,0.0,10.0,0.299605622634,0.0924116898257,-0.196541288448,1.0,0.0,0.0,0.0,1.0,0.0,0.0,0.0,1.0,-1.4944921875,1.74477172852,8.1622265625,0.1,0.0,0.0,0.0,0.1,0.0,0.0,0.0,0.1
1446038666308139581,327,1446038666304773092,robocape,-39.7722188869,3.47788795775,-35.9688448487,0.0,10.0,0.0,0.0,0.0,10.0,0.0,0.0,0.0,10.0,-0.804141491149,0.252867145503,-0.131826473959,1.0,0.0,0.0,0.0,1.0,0.0,0.0,0.0,1.0,-0.455053710938,1.27055786133,9.30944091797,0.1,0.0,0.0,0.0,0.1,0.0,0.0,0.0,0.1
1446038666341309497,328,1446038666337922096,robocape,-41.4398755454,4.67955537802,-37.3659906666,0.0,10.0,0.0,0.0,0.0,10.0,0.0,0.0,0.0,10.0,-1.10840764569,1.08137656063,-0.392816260787,1.0,0.0,0.0,0.0,1.0,0.0,0.0,0.0,1.0,3.53624633789,-5.73247924805,17.3650891113,0.1,0.0,0.0,0.0,0.1,0.0,0.0,0.0,0.1
1446038666378923122,329,1446038666373471975,robocape,-41.6635956664,4.21771313304,-38.0264791726,0.0,10.0,0.0,0.0,0.0,10.0,0.0,0.0,0.0,10.0,-0.273240327842,0.132492264231,-0.583232278727,1.0,0.0,0.0,0.0,1.0,0.0,0.0,0.0,1.0,-0.201181640625,-8.30952026367,3.05364990234,0.1,0.0,0.0,0.0,0.1,0.0,0.0,0.0,0.1
1446038666408429664,330,1446038666405184030,robocape,-41.0972789911,2.85921518712,-40.200024341,0.0,10.0,0.0,0.0,0.0,10.0,0.0,0.0,0.0,10.0,0.124502780961,0.332229345987,-1.55901450213,1.0,0.0,0.0,0.0,1.0,0.0,0.0,0.0,1.0,4.4487487793,-7.40659790039,12.2505249023,0.1,0.0,0.0,0.0,0.1,0.0,0.0,0.0,0.1
1446038666441189956,331,1446038666437993049,robocape,-38.7486101062,2.79387926099,-42.3233230489,0.0,10.0,0.0,0.0,0.0,10.0,0.0,0.0,0.0,10.0,1.1827098401,0.738095096115,-0.98390486473,1.0,0.0,0.0,0.0,1.0,0.0,0.0,0.0,1.0,-0.417930908203,-5.90611816406,13.7426220703,0.1,0.0,0.0,0.0,0.1,0.0,0.0,0.0,0.1
1446038666474907956,332,1446038666471771001,robocape,-36.5575637401,2.77310665802,-42.8299759984,0.0,10.0,0.0,0.0,0.0,10.0,0.0,0.0,0.0,10.0,1.14289558181,0.162053352331,-0.237021337017,1.0,0.0,0.0,0.0,1.0,0.0,0.0,0.0,1.0,0.486188964844,0.544866943359,9.06395141602,0.1,0.0,0.0,0.0,0.1,0.0,0.0,0.0,0.1
1446038666508194039,333,1446038666505073070,robocape,-36.6787999863,3.30343487381,-42.742770055,0.0,10.0,0.0,0.0,0.0,10.0,0.0,0.0,0.0,10.0,-0.164583355367,0.243812397797,0.0854874709915,1.0,0.0,0.0,0.0,1.0,0.0,0.0,0.0,1.0,5.43310180664,2.04774169922,9.7369519043,0.1,0.0,0.0,0.0,0.1,0.0,0.0,0.0,0.1
1446038666541035622,334,1446038666537970066,robocape,-38.2984989201,3.72622776455,-42.4640256821,0.0,10.0,0.0,0.0,0.0,10.0,0.0,0.0,0.0,10.0,-1.03264071268,0.170974941983,0.0521979573656,1.0,0.0,0.0,0.0,1.0,0.0,0.0,0.0,1.0,6.37314697266,1.15200439453,8.84600463867,0.1,0.0,0.0,0.0,0.1,0.0,0.0,0.0,0.1
1446038666574591706,335,1446038666571583032,robocape,-40.4255359818,3.81964981795,-42.8026366183,0.0,10.0,0.0,0.0,0.0,10.0,0.0,0.0,0.0,10.0,-1.37552270303,0.281629285276,-0.399207847403,1.0,0.0,0.0,0.0,1.0,0.0,0.0,0.0,1.0,-2.06091430664,-8.74421630859,11.4290332031,0.1,0.0,0.0,0.0,0.1,0.0,0.0,0.0,0.1
1446038666611353122,336,1446038666607928037,robocape,-39.9733273396,3.80136648574,-45.0231518867,0.0,10.0,0.0,0.0,0.0,10.0,0.0,0.0,0.0,10.0,0.0643153403254,0.877245263072,-1.17405456656,1.0,0.0,0.0,0.0,1.0,0.0,0.0,0.0,1.0,-4.43078613281,-9.12143188477,14.2084533691,0.1,0.0,0.0,0.0,0.1,0.0,0.0,0.0,0.1
1446038666642231331,337,1446038666639112949,robocape,-38.4493835433,3.46729578553,-46.3765241417,0.0,10.0,0.0,0.0,0.0,10.0,0.0,0.0,0.0,10.0,0.710531378833,0.386158358061,-0.821585196289,1.0,0.0,0.0,0.0,1.0,0.0,0.0,0.0,1.0,-3.01772460938,-0.0514929199219,6.91921142578,0.1,0.0,0.0,0.0,0.1,0.0,0.0,0.0,0.1
1446038666675756706,338,1446038666672622919,robocape,-38.1174292437,3.32733952355,-46.8553257652,0.0,10.0,0.0,0.0,0.0,10.0,0.0,0.0,0.0,10.0,0.0478037415669,0.174303893346,-0.420513136124,1.0,0.0,0.0,0.0,1.0,0.0,0.0,0.0,1.0,-3.67994750977,0.884959716797,12.0577258301,0.1,0.0,0.0,0.0,0.1,0.0,0.0,0.0,0.1
1446038666709179539,339,1446038666706135034,robocape,-39.0146460687,3.85185410836,-47.4771241383,0.0,10.0,0.0,0.0,0.0,10.0,0.0,0.0,0.0,10.0,-0.663926059757,0.534363272724,-0.350471999454,1.0,0.0,0.0,0.0,1.0,0.0,0.0,0.0,1.0,-1.67651367188,-0.8047265625,9.00048339844,0.1,0.0,0.0,0.0,0.1,0.0,0.0,0.0,0.1
1446038666742748664,340,1446038666739439964,robocape,-39.3542935127,4.44617868858,-48.8356240862,0.0,10.0,0.0,0.0,0.0,10.0,0.0,0.0,0.0,10.0,-0.366983598213,0.831039418159,-0.658866053686,1.0,0.0,0.0,0.0,1.0,0.0,0.0,0.0,1.0,8.48076416016,-7.63053222656,13.3139135742,0.1,0.0,0.0,0.0,0.1,0.0,0.0,0.0,0.1
1446038666776141581,341,1446038666772855997,robocape,-38.611474625,4.18084432473,-50.0925212617,0.0,10.0,0.0,0.0,0.0,10.0,0.0,0.0,0.0,10.0,0.250470300522,0.421445242505,-0.851945232716,1.0,0.0,0.0,0.0,1.0,0.0,0.0,0.0,1.0,6.80305297852,-4.40444091797,8.22449707031,0.1,0.0,0.0,0.0,0.1,0.0,0.0,0.0,0.1
1446038666809726914,342,1446038666806580066,robocape,-38.6715809531,4.06540791113,-51.0759343234,0.0,10.0,0.0,0.0,0.0,10.0,0.0,0.0,0.0,10.0,-0.210656042225,0.406398382346,-0.738627728333,1.0,0.0,0.0,0.0,1.0,0.0,0.0,0.0,1.0,5.51213745117,0.0,9.88065307617,0.1,0.0,0.0,0.0,0.1,0.0,0.0,0.0,0.1
1446038666841835373,343,1446038666838447093,robocape,-38.7574705745,3.98092598382,-51.5841508042,0.0,10.0,0.0,0.0,0.0,10.0,0.0,0.0,0.0,10.0,-0.210256568062,0.244478188069,-0.492951117774,1.0,0.0,0.0,0.0,1.0,0.0,0.0,0.0,1.0,4.25594970703,-4.11105102539,11.2003088379,0.1,0.0,0.0,0.0,0.1,0.0,0.0,0.0,0.1
1446038666876358206,344,1446038666873244047,robocape,-38.246278028,3.70502164321,-52.1234160718,0.0,10.0,0.0,0.0,0.0,10.0,0.0,0.0,0.0,10.0,0.130228577305,0.159789665405,-0.535961169378,1.0,0.0,0.0,0.0,1.0,0.0,0.0,0.0,1.0,2.20222045898,-3.47038330078,10.0710571289,0.1,0.0,0.0,0.0,0.1,0.0,0.0,0.0,0.1
1446038666909513039,345,1446038666906282901,robocape,-38.1754173056,3.8995414977,-52.8553214448,0.0,10.0,0.0,0.0,0.0,10.0,0.0,0.0,0.0,10.0,-0.125434887343,0.434627889901,-0.511992719568,1.0,0.0,0.0,0.0,1.0,0.0,0.0,0.0,1.0,3.71587280273,-2.70158203125,14.5245959473,0.1,0.0,0.0,0.0,0.1,0.0,0.0,0.0,0.1
1446038666944497914,346,1446038666940824031,robocape,-37.8110011898,3.69610262105,-53.5855138392,0.0,10.0,0.0,0.0,0.0,10.0,0.0,0.0,0.0,10.0,0.035153726389,0.266848741226,-0.639424977728,1.0,0.0,0.0,0.0,1.0,0.0,0.0,0.0,1.0,-0.207169189453,-2.14354248047,7.01740722656,0.1,0.0,0.0,0.0,0.1,0.0,0.0,0.0,0.1
1446038666978963914,347,1446038666974987983,robocape,-37.8321960578,3.59174537489,-54.1720799549,0.0,10.0,0.0,0.0,0.0,10.0,0.0,0.0,0.0,10.0,-0.182826008834,0.266582425117,-0.568052260514,1.0,0.0,0.0,0.0,1.0,0.0,0.0,0.0,1.0,-2.6021887207,-3.03808227539,12.4852368164,0.1,0.0,0.0,0.0,0.1,0.0,0.0,0.0,0.1
1446038667014949581,348,1446038667011472940,robocape,-37.803712285,3.37396378815,-54.6754381936,0.0,10.0,0.0,0.0,0.0,10.0,0.0,0.0,0.0,10.0,-0.155928081824,0.190282859886,-0.567253312187,1.0,0.0,0.0,0.0,1.0,0.0,0.0,0.0,1.0,-1.20469482422,-3.05245239258,8.7717590332,0.1,0.0,0.0,0.0,0.1,0.0,0.0,0.0,0.1
1446038667043455289,349,1446038667038913965,robocape,-37.8796539376,3.53084003534,-55.319268245,0.0,10.0,0.0,0.0,0.0,10.0,0.0,0.0,0.0,10.0,-0.217979735223,0.399207847403,-0.5247758928,1.0,0.0,0.0,0.0,1.0,0.0,0.0,0.0,1.0,-1.90044799805,-3.36500244141,9.57409057617,0.1,0.0,0.0,0.0,0.1,0.0,0.0,0.0,0.1
1446038667103476623,350,1446038667074476957,robocape,-37.7447698575,5.18875253287,-57.1650198026,0.0,10.0,0.0,0.0,0.0,10.0,0.0,0.0,0.0,10.0,-0.109322762748,1.45794753876,-0.633166549166,1.0,0.0,0.0,0.0,1.0,0.0,0.0,0.0,1.0,9.94531860352,-3.55660400391,10.7356750488,0.1,0.0,0.0,0.0,0.1,0.0,0.0,0.0,0.1
1446038667126726664,351,1446038667123449087,robocape,-37.0128625806,5.03238495203,-58.1353377986,0.0,10.0,0.0,0.0,0.0,10.0,0.0,0.0,0.0,10.0,0.239418181998,0.385892041952,-0.779374093012,1.0,0.0,0.0,0.0,1.0,0.0,0.0,0.0,1.0,-2.64290405273,0.525706787109,4.37570068359,0.1,0.0,0.0,0.0,0.1,0.0,0.0,0.0,0.1
1446038667150198206,352,1446038667147109985,robocape,-36.8892729017,4.79925584455,-58.313686965,0.0,10.0,0.0,0.0,0.0,10.0,0.0,0.0,0.0,10.0,-0.0833569421195,0.0741690363587,-0.422244190832,1.0,0.0,0.0,0.0,1.0,0.0,0.0,0.0,1.0,1.93757080078,1.04183349609,15.593972168,0.1,0.0,0.0,0.0,0.1,0.0,0.0,0.0,0.1
1446038667179631289,353,1446038667175988912,robocape,-37.3667405957,3.907494648,-57.6773734562,0.0,10.0,0.0,0.0,0.0,10.0,0.0,0.0,0.0,10.0,-0.408662069273,-0.480301102596,-0.247540823323,1.0,0.0,0.0,0.0,1.0,0.0,0.0,0.0,1.0,2.6476940918,1.13404174805,4.97565307617,0.1,0.0,0.0,0.0,0.1,0.0,0.0,0.0,0.1
1446038667211093914,354,1446038667206753015,robocape,-38.2333873721,3.8452711249,-57.952875918,0.0,10.0,0.0,0.0,0.0,10.0,0.0,0.0,0.0,10.0,-0.668320275555,0.214384467751,-0.505201658788,1.0,0.0,0.0,0.0,1.0,0.0,0.0,0.0,1.0,3.22609130859,-7.53952148438,12.7163562012,0.1,0.0,0.0,0.0,0.1,0.0,0.0,0.0,0.1
1446038667244410581,355,1446038667241079092,robocape,-37.3680008969,3.99902060934,-59.3770285963,0.0,10.0,0.0,0.0,0.0,10.0,0.0,0.0,0.0,10.0,0.277101911423,0.686030296804,-0.93010901071,1.0,0.0,0.0,0.0,1.0,0.0,0.0,0.0,1.0,3.00455200195,-7.38624023438,10.9284741211,0.1,0.0,0.0,0.0,0.1,0.0,0.0,0.0,0.1
1446038667278962998,356,1446038667275396108,robocape,-36.4397017612,4.19951720658,-60.3812767568,0.0,10.0,0.0,0.0,0.0,10.0,0.0,0.0,0.0,10.0,0.338487774549,0.539156962687,-0.694019780075,1.0,0.0,0.0,0.0,1.0,0.0,0.0,0.0,1.0,-0.512534179688,-1.61903320313,10.612331543,0.1,0.0,0.0,0.0,0.1,0.0,0.0,0.0,0.1
1446038667311701623,357,1446038667307876110,robocape,-36.4027151011,4.43464152723,-60.8149579443,0.0,10.0,0.0,0.0,0.0,10.0,0.0,0.0,0.0,10.0,-0.142878592483,0.36898096903,-0.442750531226,1.0,0.0,0.0,0.0,1.0,0.0,0.0,0.0,1.0,-1.0693762207,0.714913330078,10.3009790039,0.1,0.0,0.0,0.0,0.1,0.0,0.0,0.0,0.1
1446038667344831873,358,1446038667341535091,robocape,-36.9982123132,4.50533078959,-61.0681368717,0.0,10.0,0.0,0.0,0.0,10.0,0.0,0.0,0.0,10.0,-0.50320428797,0.260057680446,-0.456998443058,1.0,0.0,0.0,0.0,1.0,0.0,0.0,0.0,1.0,3.68114501953,-2.11839477539,9.36093383789,0.1,0.0,0.0,0.0,0.1,0.0,0.0,0.0,0.1
1446038667379311623,359,1446038667376065015,robocape,-36.9769166758,4.50027663668,-61.8682180193,0.0,10.0,0.0,0.0,0.0,10.0,0.0,0.0,0.0,10.0,-0.181760744398,0.42424156165,-0.758468278455,1.0,0.0,0.0,0.0,1.0,0.0,0.0,0.0,1.0,3.21651123047,-5.96120361328,13.4851574707,0.1,0.0,0.0,0.0,0.1,0.0,0.0,0.0,0.1
1446038667411258706,360,1446038667407572031,robocape,-36.4039285988,4.86653760653,-62.8589135421,0.0,10.0,0.0,0.0,0.0,10.0,0.0,0.0,0.0,10.0,0.135821215594,0.630237071967,-0.700278208636,1.0,0.0,0.0,0.0,1.0,0.0,0.0,0.0,1.0,6.07496704102,-4.37570068359,9.75371704102,0.1,0.0,0.0,0.0,0.1,0.0,0.0,0.0,0.1
1446038667444409248,361,1446038667441205024,robocape,-35.8693882708,5.02215020881,-63.639830016,0.0,10.0,0.0,0.0,0.0,10.0,0.0,0.0,0.0,10.0,0.121839619871,0.467517929363,-0.671915543027,1.0,0.0,0.0,0.0,1.0,0.0,0.0,0.0,1.0,3.17459838867,-4.73495361328,9.55493041992,0.1,0.0,0.0,0.0,0.1,0.0,0.0,0.0,0.1
1446038667477401415,362,1446038667474251985,robocape,-35.6368233749,5.11521779565,-64.2396898676,0.0,10.0,0.0,0.0,0.0,10.0,0.0,0.0,0.0,10.0,-0.0428768935503,0.384959935571,-0.624777591733,1.0,0.0,0.0,0.0,1.0,0.0,0.0,0.0,1.0,0.532891845703,0.342487792969,10.0686621094,0.1,0.0,0.0,0.0,0.1,0.0,0.0,0.0,0.1
1446038667510369498,363,1446038667507189989,robocape,-35.6419128735,5.38210202823,-64.822035165,0.0,10.0,0.0,0.0,0.0,10.0,0.0,0.0,0.0,10.0,-0.173504945019,0.460993184693,-0.583365436782,1.0,0.0,0.0,0.0,1.0,0.0,0.0,0.0,1.0,0.302969970703,-2.24892333984,11.6350048828,0.1,0.0,0.0,0.0,0.1,0.0,0.0,0.0,0.1
1446038667543831831,364,1446038667540738105,robocape,-35.4279183643,5.14362767364,-65.2784914719,0.0,10.0,0.0,0.0,0.0,10.0,0.0,0.0,0.0,10.0,-0.0551274345646,0.201201820355,-0.674179229954,1.0,0.0,0.0,0.0,1.0,0.0,0.0,0.0,1.0,-0.413140869141,-3.03808227539,9.53217773438,0.1,0.0,0.0,0.0,0.1,0.0,0.0,0.0,0.1
1446038667577217581,365,1446038667574091911,robocape,-35.40527859,5.44914084594,-65.8689419814,0.0,10.0,0.0,0.0,0.0,10.0,0.0,0.0,0.0,10.0,-0.158990717078,0.483896370067,-0.590555971725,1.0,0.0,0.0,0.0,1.0,0.0,0.0,0.0,1.0,0.0143701171875,-1.81183227539,11.8840869141,0.1,0.0,0.0,0.0,0.1,0.0,0.0,0.0,0.1
1446038667609915331,366,1446038667606676101,robocape,-35.4243484539,6.03303143327,-66.7155486182,0.0,10.0,0.0,0.0,0.0,10.0,0.0,0.0,0.0,10.0,-0.184956537706,0.705071898598,-0.666722378901,1.0,0.0,0.0,0.0,1.0,0.0,0.0,0.0,1.0,-0.610729980469,-6.00072143555,10.4015698242,0.1,0.0,0.0,0.0,0.1,0.0,0.0,0.0,0.1
1446038667642868540,367,1446038667639745950,robocape,-35.0498352246,6.21633110242,-67.4988010137,0.0,10.0,0.0,0.0,0.0,10.0,0.0,0.0,0.0,10.0,0.0355532005526,0.508930084314,-0.748081950203,1.0,0.0,0.0,0.0,1.0,0.0,0.0,0.0,1.0,-1.61544067383,-5.34089355469,11.8278039551,0.1,0.0,0.0,0.0,0.1,0.0,0.0,0.0,0.1
1446038667676127665,368,1446038667672774076,robocape,-34.6906811711,6.50709071666,-68.1771386913,0.0,10.0,0.0,0.0,0.0,10.0,0.0,0.0,0.0,10.0,0.035153726389,0.515587987039,-0.65899921174,1.0,0.0,0.0,0.0,1.0,0.0,0.0,0.0,1.0,0.78556640625,-1.839375,9.05796386719,0.1,0.0,0.0,0.0,0.1,0.0,0.0,0.0,0.1
1446038667709331831,369,1446038667706136941,robocape,-34.7399784007,6.70022939534,-68.5339790245,0.0,10.0,0.0,0.0,0.0,10.0,0.0,0.0,0.0,10.0,-0.185755486033,0.368581494867,-0.532499059961,1.0,0.0,0.0,0.0,1.0,0.0,0.0,0.0,1.0,2.32077392578,-0.184416503906,10.0231567383,0.1,0.0,0.0,0.0,0.1,0.0,0.0,0.0,0.1
1446038667742049248,370,1446038667738740921,robocape,-34.8249268202,6.9911283534,-69.0251727923,0.0,10.0,0.0,0.0,0.0,10.0,0.0,0.0,0.0,10.0,-0.207726565026,0.466852139091,-0.594950187524,1.0,0.0,0.0,0.0,1.0,0.0,0.0,0.0,1.0,8.60410766602,-3.5673815918,10.9931396484,0.1,0.0,0.0,0.0,0.1,0.0,0.0,0.0,0.1
1446038667776191456,371,1446038667772681951,robocape,-34.8065964801,7.30413042972,-69.5845935509,0.0,10.0,0.0,0.0,0.0,10.0,0.0,0.0,0.0,10.0,-0.149935969371,0.504402710461,-0.630503388076,1.0,0.0,0.0,0.0,1.0,0.0,0.0,0.0,1.0,1.43222167969,-3.37937255859,10.7225024414,0.1,0.0,0.0,0.0,0.1,0.0,0.0,0.0,0.1
1446038667809830498,372,1446038667805454015,robocape,-34.4091667015,7.41986014177,-70.3463124399,0.0,10.0,0.0,0.0,0.0,10.0,0.0,0.0,0.0,10.0,0.0567253312187,0.493483749992,-0.811065709984,1.0,0.0,0.0,0.0,1.0,0.0,0.0,0.0,1.0,-0.2682421875,-7.70837036133,11.80265625,0.1,0.0,0.0,0.0,0.1,0.0,0.0,0.0,0.1
1446038667841321665,373,1446038667838222980,robocape,-33.534847156,7.45259219353,-70.874117987,0.0,10.0,0.0,0.0,0.0,10.0,0.0,0.0,0.0,10.0,0.331030923497,0.349140418909,-0.655403944269,1.0,0.0,0.0,0.0,1.0,0.0,0.0,0.0,1.0,-2.35909423828,-0.374820556641,9.90340576172,0.1,0.0,0.0,0.0,0.1,0.0,0.0,0.0,0.1
1446038667875108706,374,1446038667871637105,robocape,-33.4085727933,7.66464646472,-71.1688612667,0.0,10.0,0.0,0.0,0.0,10.0,0.0,0.0,0.0,10.0,-0.0772316716123,0.359393589106,-0.513856932331,1.0,0.0,0.0,0.0,1.0,0.0,0.0,0.0,1.0,0.377215576172,0.482596435547,9.15017211914,0.1,0.0,0.0,0.0,0.1,0.0,0.0,0.0,0.1
1446038667907717831,375,1446038667904637098,robocape,-34.0615212862,8.08395343448,-71.4309863677,0.0,10.0,0.0,0.0,0.0,10.0,0.0,0.0,0.0,10.0,-0.508930084314,0.46445529411,-0.492684801665,1.0,0.0,0.0,0.0,1.0,0.0,0.0,0.0,1.0,0.427510986328,-1.41306152344,10.5680236816,0.1,0.0,0.0,0.0,0.1,0.0,0.0,0.0,0.1
1446038667941179123,376,1446038667938080072,robocape,-34.0655277284,7.95092556599,-72.0229303597,0.0,10.0,0.0,0.0,0.0,10.0,0.0,0.0,0.0,10.0,-0.163651248985,0.349539893073,-0.85767102906,1.0,0.0,0.0,0.0,1.0,0.0,0.0,0.0,1.0,-1.93637329102,-4.72058349609,9.05796386719,0.1,0.0,0.0,0.0,0.1,0.0,0.0,0.0,0.1
1446038667974541290,377,1446038667971478939,robocape,-33.1241522899,7.83990112371,-72.7733901648,0.0,10.0,0.0,0.0,0.0,10.0,0.0,0.0,0.0,10.0,0.362988856578,0.386957306389,-0.887098959105,1.0,0.0,0.0,0.0,1.0,0.0,0.0,0.0,1.0,3.66198486328,-2.43573486328,12.2756726074,0.1,0.0,0.0,0.0,0.1,0.0,0.0,0.0,0.1
1446038668007698831,378,1446038668004650115,robocape,-32.3973461693,8.07749202478,-73.4838522728,0.0,10.0,0.0,0.0,0.0,10.0,0.0,0.0,0.0,10.0,0.253266619667,0.522512205874,-0.780306199393,1.0,0.0,0.0,0.0,1.0,0.0,0.0,0.0,1.0,-1.39869140625,-0.277822265625,7.00543212891,0.1,0.0,0.0,0.0,0.1,0.0,0.0,0.0,0.1
1446038668041118123,379,1446038668038113117,robocape,-32.0490886283,8.31420214418,-73.9511865671,0.0,10.0,0.0,0.0,0.0,10.0,0.0,0.0,0.0,10.0,0.0500674284935,0.442084740953,-0.658866053686,1.0,0.0,0.0,0.0,1.0,0.0,0.0,0.0,1.0,-1.8741027832,-1.56634277344,13.222902832,0.1,0.0,0.0,0.0,0.1,0.0,0.0,0.0,0.1
1446038668074389331,380,1446038668071376085,robocape,-31.9762014386,8.7340378343,-74.4299990741,0.0,10.0,0.0,0.0,0.0,10.0,0.0,0.0,0.0,10.0,-0.0966727475699,0.536760117705,-0.639424977728,1.0,0.0,0.0,0.0,1.0,0.0,0.0,0.0,1.0,0.799936523438,-1.20589233398,8.38017333984,0.1,0.0,0.0,0.0,0.1,0.0,0.0,0.0,0.1
1446038668107786706,381,1446038668104784011,robocape,-31.8963994713,8.20211580054,-74.52175128,0.0,10.0,0.0,0.0,0.0,10.0,0.0,0.0,0.0,10.0,-0.104129598622,-0.016112124595,-0.685364506532,1.0,0.0,0.0,0.0,1.0,0.0,0.0,0.0,1.0,-4.6331652832,-1.81662231445,7.53952148438,0.1,0.0,0.0,0.0,0.1,0.0,0.0,0.0,0.1
1446038668141337665,382,1446038668138302087,robocape,-31.848964261,8.39619673494,-75.0582251405,0.0,10.0,0.0,0.0,0.0,10.0,0.0,0.0,0.0,10.0,-0.117578562127,0.466053190764,-0.773381980559,1.0,0.0,0.0,0.0,1.0,0.0,0.0,0.0,1.0,1.31726074219,-1.6058605957,12.3104003906,0.1,0.0,0.0,0.0,0.1,0.0,0.0,0.0,0.1
1446038668174605457,383,1446038668171468019,robocape,-31.5525348814,8.80673835211,-75.7592549601,0.0,10.0,0.0,0.0,0.0,10.0,0.0,0.0,0.0,10.0,0.0250337142467,0.619051795389,-0.81213097442,1.0,0.0,0.0,0.0,1.0,0.0,0.0,0.0,1.0,-0.902922363281,-3.27758422852,12.6349255371,0.1,0.0,0.0,0.0,0.1,0.0,0.0,0.0,0.1
1446038668207807498,384,1446038668204777956,robocape,-30.5823049843,8.95037987078,-76.6798322533,0.0,10.0,0.0,0.0,0.0,10.0,0.0,0.0,0.0,10.0,0.399207847403,0.57031594744,-1.02571649384,1.0,0.0,0.0,0.0,1.0,0.0,0.0,0.0,1.0,-2.51956054688,-3.54582641602,10.5213208008,0.1,0.0,0.0,0.0,0.1,0.0,0.0,0.0,0.1
1446038668241446582,385,1446038668238332986,robocape,-28.8689951141,9.67879833929,-77.9953246691,0.0,10.0,0.0,0.0,0.0,10.0,0.0,0.0,0.0,10.0,0.829840995669,0.949683244722,-1.11533186453,1.0,0.0,0.0,0.0,1.0,0.0,0.0,0.0,1.0,-6.05939941406,-3.37098999023,13.9701489258,0.1,0.0,0.0,0.0,0.1,0.0,0.0,0.0,0.1
1446038668274709790,386,1446038668271538972,robocape,-26.4157331773,9.5657021115,-78.9049940266,0.0,10.0,0.0,0.0,0.0,10.0,0.0,0.0,0.0,10.0,1.23504095552,0.396411528258,-1.0644654877,1.0,0.0,0.0,0.0,1.0,0.0,0.0,0.0,1.0,-6.92639648438,-3.02610717773,10.1021923828,0.1,0.0,0.0,0.0,0.1,0.0,0.0,0.0,0.1
1446038668307816957,387,1446038668304733037,robocape,-23.4078025991,9.4277576724,-79.5585728957,0.0,10.0,0.0,0.0,0.0,10.0,0.0,0.0,0.0,10.0,1.53917395201,0.2631203157,-0.878976317781,1.0,0.0,0.0,0.0,1.0,0.0,0.0,0.0,1.0,-4.01764526367,-1.95313842773,9.73096435547,0.1,0.0,0.0,0.0,0.1,0.0,0.0,0.0,0.1
1446038668341395873,388,1446038668338314056,robocape,-20.5431128661,9.73523638717,-80.0829117449,0.0,10.0,0.0,0.0,0.0,10.0,0.0,0.0,0.0,10.0,1.47206229254,0.421178926396,-0.729439822573,1.0,0.0,0.0,0.0,1.0,0.0,0.0,0.0,1.0,-2.53512817383,-0.386795654297,9.74533447266,0.1,0.0,0.0,0.0,0.1,0.0,0.0,0.0,0.1
1446038668378643957,389,1446038668373485088,robocape,-17.7337591011,9.85636296535,-80.3906333246,0.0,10.0,0.0,0.0,0.0,10.0,0.0,0.0,0.0,10.0,1.44609647191,0.261256102937,-0.645017616017,1.0,0.0,0.0,0.0,1.0,0.0,0.0,0.0,1.0,-0.316142578125,-1.20469482422,11.2733569336,0.1,0.0,0.0,0.0,0.1,0.0,0.0,0.0,0.1
1446038668408335373,390,1446038668405303955,robocape,-15.0626338002,9.8228610247,-80.4987568904,0.0,10.0,0.0,0.0,0.0,10.0,0.0,0.0,0.0,10.0,1.37365849026,0.126899625942,-0.547146445957,1.0,0.0,0.0,0.0,1.0,0.0,0.0,0.0,1.0,1.0346484375,-0.627495117188,9.78006225586,0.1,0.0,0.0,0.0,0.1,0.0,0.0,0.0,0.1
1446038668441188498,391,1446038668438031911,robocape,-12.4105044087,9.74985417632,-80.5896614137,0.0,10.0,0.0,0.0,0.0,10.0,0.0,0.0,0.0,10.0,1.37499007081,0.0948085348068,-0.566321205805,1.0,0.0,0.0,0.0,1.0,0.0,0.0,0.0,1.0,0.565224609375,-0.47900390625,10.9775720215,0.1,0.0,0.0,0.0,0.1,0.0,0.0,0.0,0.1
1446038668474373998,392,1446038668471241950,robocape,-9.57814221399,10.0525876982,-80.7172533806,0.0,10.0,0.0,0.0,0.0,10.0,0.0,0.0,0.0,10.0,1.48737546881,0.286955607456,-0.587093862308,1.0,0.0,0.0,0.0,1.0,0.0,0.0,0.0,1.0,3.25004150391,-0.825084228516,9.30704589844,0.1,0.0,0.0,0.0,0.1,0.0,0.0,0.0,0.1
1446038668507605290,393,1446038668504544973,robocape,-6.29513134564,10.2971476124,-80.798033455,0.0,10.0,0.0,0.0,0.0,10.0,0.0,0.0,0.0,10.0,1.74050893042,0.242613975306,-0.598012822777,1.0,0.0,0.0,0.0,1.0,0.0,0.0,0.0,1.0,1.05859863281,-1.18673217773,8.75020385742,0.1,0.0,0.0,0.0,0.1,0.0,0.0,0.0,0.1
1446038668541213040,394,1446038668537946939,robocape,-2.78555620785,10.4068003845,-80.6624472271,0.0,10.0,0.0,0.0,0.0,10.0,0.0,0.0,0.0,10.0,1.85901959893,0.140348589447,-0.469248984072,1.0,0.0,0.0,0.0,1.0,0.0,0.0,0.0,1.0,3.78892089844,0.0,10.2506835938,0.1,0.0,0.0,0.0,0.1,0.0,0.0,0.0,0.1
