%time,field.header.seq,field.header.stamp,field.header.frame_id,field.orientation.x,field.orientation.y,field.orientation.z,field.orientation.w,field.orientation_covariance0,field.orientation_covariance1,field.orientation_covariance2,field.orientation_covariance3,field.orientation_covariance4,field.orientation_covariance5,field.orientation_covariance6,field.orientation_covariance7,field.orientation_covariance8,field.angular_velocity.x,field.angular_velocity.y,field.angular_velocity.z,field.angular_velocity_covariance0,field.angular_velocity_covariance1,field.angular_velocity_covariance2,field.angular_velocity_covariance3,field.angular_velocity_covariance4,field.angular_velocity_covariance5,field.angular_velocity_covariance6,field.angular_velocity_covariance7,field.angular_velocity_covariance8,field.linear_acceleration.x,field.linear_acceleration.y,field.linear_acceleration.z,field.linear_acceleration_covariance0,field.linear_acceleration_covariance1,field.linear_acceleration_covariance2,field.linear_acceleration_covariance3,field.linear_acceleration_covariance4,field.linear_acceleration_covariance5,field.linear_acceleration_covariance6,field.linear_acceleration_covariance7,field.linear_acceleration_covariance8
1452008901055118273,1,1452008901051712036,robocape,13.6720072127,-1.21414767298,-24.5156295602,0.0,10.0,0.0,0.0,0.0,10.0,0.0,0.0,0.0,10.0,0.00279631914458,0.0114515926873,0.00386158358061,1.0,0.0,0.0,0.0,1.0,0.0,0.0,0.0,1.0,-0.00838256835938,0.596359863281,9.83634521484,0.1,0.0,0.0,0.0,0.1,0.0,0.0,0.0,0.1
1452008901087552815,2,1452008901084212064,robocape,13.645861569,-1.19809447534,-24.4471454942,0.0,10.0,0.0,0.0,0.0,10.0,0.0,0.0,0.0,10.0,0.00292947719909,0.0117179087963,0.00372842552611,1.0,0.0,0.0,0.0,1.0,0.0,0.0,0.0,1.0,-0.00239501953125,0.603544921875,9.85311035156,0.1,0.0,0.0,0.0,0.1,0.0,0.0,0.0,0.1
1452008901119727731,3,1452008901116763114,robocape,13.6203507257,-1.18165786767,-24.3783436076,0.0,10.0,0.0,0.0,0.0,10.0,0.0,0.0,0.0,10.0,0.0031957933081,0.0119842249054,0.00399474163512,1.0,0.0,0.0,0.0,1.0,0.0,0.0,0.0,1.0,-0.009580078125,0.595162353516,9.87346801758,0.1,0.0,0.0,0.0,0.1,0.0,0.0,0.0,0.1
1452008901151950565,4,1452008901148864984,robocape,13.5942147464,-1.16497580468,-24.3107831405,0.0,10.0,0.0,0.0,0.0,10.0,0.0,0.0,0.0,10.0,0.00279631914458,0.0119842249054,0.0034621094171,1.0,0.0,0.0,0.0,1.0,0.0,0.0,0.0,1.0,-0.01916015625,0.610729980469,9.87107299805,0.1,0.0,0.0,0.0,0.1,0.0,0.0,0.0,0.1
1452008901189323690,5,1452008901183351993,robocape,13.5692144512,-1.14797183206,-24.2426524406,0.0,10.0,0.0,0.0,0.0,10.0,0.0,0.0,0.0,10.0,0.0033289513626,0.0122505410144,0.00386158358061,1.0,0.0,0.0,0.0,1.0,0.0,0.0,0.0,1.0,-0.00359252929688,0.613125,9.81958007812,0.1,0.0,0.0,0.0,0.1,0.0,0.0,0.0,0.1
1452008901219800315,6,1452008901216682910,robocape,13.5433420229,-1.13126501966,-24.1746443908,0.0,10.0,0.0,0.0,0.0,10.0,0.0,0.0,0.0,10.0,0.00279631914458,0.0121173829599,0.00399474163512,1.0,0.0,0.0,0.0,1.0,0.0,0.0,0.0,1.0,-0.00119750976563,0.613125,9.8483203125,0.1,0.0,0.0,0.0,0.1,0.0,0.0,0.0,0.1
1452008901254076690,7,1452008901250612974,robocape,13.5170972586,-1.11498486198,-24.1072751388,0.0,10.0,0.0,0.0,0.0,10.0,0.0,0.0,0.0,10.0,0.00253000303558,0.0118510668509,0.00386158358061,1.0,0.0,0.0,0.0,1.0,0.0,0.0,0.0,1.0,-0.0143701171875,0.602347412109,9.83634521484,0.1,0.0,0.0,0.0,0.1,0.0,0.0,0.0,0.1
1452008901287684481,8,1452008901283876895,robocape,13.4909858902,-1.09862517691,-24.0394135567,0.0,10.0,0.0,0.0,0.0,10.0,0.0,0.0,0.0,10.0,0.00253000303558,0.0119842249054,0.00426105774413,1.0,0.0,0.0,0.0,1.0,0.0,0.0,0.0,1.0,-0.0143701171875,0.59396484375,9.86628295898,0.1,0.0,0.0,0.0,0.1,0.0,0.0,0.0,0.1
1452008901321065315,9,1452008901317859888,robocape,13.4660026189,-1.08238979779,-23.9723308322,0.0,10.0,0.0,0.0,0.0,10.0,0.0,0.0,0.0,10.0,0.00306263525359,0.0118510668509,0.00399474163512,1.0,0.0,0.0,0.0,1.0,0.0,0.0,0.0,1.0,0.00359252929688,0.595162353516,9.85790039062,0.1,0.0,0.0,0.0,0.1,0.0,0.0,0.0,0.1
1452008901353692606,10,1452008901350441932,robocape,13.4418943656,-1.06559704133,-23.9056204709,0.0,10.0,0.0,0.0,0.0,10.0,0.0,0.0,0.0,10.0,0.0034621094171,0.0121173829599,0.00386158358061,1.0,0.0,0.0,0.0,1.0,0.0,0.0,0.0,1.0,-0.00119750976563,0.591569824219,9.84353027344,0.1,0.0,0.0,0.0,0.1,0.0,0.0,0.0,0.1
1452008901387636731,11,1452008901383822917,robocape,13.4176581895,-1.04855186049,-23.8391248553,0.0,10.0,0.0,0.0,0.0,10.0,0.0,0.0,0.0,10.0,0.0033289513626,0.0122505410144,0.00386158358061,1.0,0.0,0.0,0.0,1.0,0.0,0.0,0.0,1.0,0.0,0.603544921875,9.87825805664,0.1,0.0,0.0,0.0,0.1,0.0,0.0,0.0,0.1
1452008901419209898,12,1452008901415903091,robocape,13.3930433965,-1.03224209358,-23.773077044,0.0,10.0,0.0,0.0,0.0,10.0,0.0,0.0,0.0,10.0,0.00306263525359,0.0118510668509,0.00386158358061,1.0,0.0,0.0,0.0,1.0,0.0,0.0,0.0,1.0,-0.0047900390625,0.615520019531,9.8519128418,0.1,0.0,0.0,0.0,0.1,0.0,0.0,0.0,0.1
1452008901452801565,13,1452008901449609041,robocape,13.3680529384,-1.01604109333,-23.7068306015,0.0,10.0,0.0,0.0,0.0,10.0,0.0,0.0,0.0,10.0,0.00279631914458,0.0118510668509,0.00412789968962,1.0,0.0,0.0,0.0,1.0,0.0,0.0,0.0,1.0,-0.0047900390625,0.615520019531,9.86029541016,0.1,0.0,0.0,0.0,0.1,0.0,0.0,0.0,0.1
1452008901487041982,14,1452008901483592033,robocape,13.3426811833,-1.00021065311,-23.6414448181,0.0,10.0,0.0,0.0,0.0,10.0,0.0,0.0,0.0,10.0,0.00253000303558,0.0115847507418,0.00386158358061,1.0,0.0,0.0,0.0,1.0,0.0,0.0,0.0,1.0,-0.0143701171875,0.610729980469,9.86508544922,0.1,0.0,0.0,0.0,0.1,0.0,0.0,0.0,0.1
1452008901519256232,15,1452008901516146898,robocape,13.3174272099,-0.98395290194,-23.5769703652,0.0,10.0,0.0,0.0,0.0,10.0,0.0,0.0,0.0,10.0,0.00253000303558,0.0117179087963,0.0034621094171,1.0,0.0,0.0,0.0,1.0,0.0,0.0,0.0,1.0,-0.0107775878906,0.597557373047,9.83993774414,0.1,0.0,0.0,0.0,0.1,0.0,0.0,0.0,0.1
1452008901552793065,16,1452008901549706935,robocape,13.2935538215,-0.967428941635,-23.5116621612,0.0,10.0,0.0,0.0,0.0,10.0,0.0,0.0,0.0,10.0,0.0031957933081,0.0119842249054,0.00399474163512,1.0,0.0,0.0,0.0,1.0,0.0,0.0,0.0,1.0,-0.00359252929688,0.601149902344,9.8902331543,0.1,0.0,0.0,0.0,0.1,0.0,0.0,0.0,0.1
1452008901586131565,17,1452008901583040952,robocape,13.270550199,-0.951149293555,-23.4466489774,0.0,10.0,0.0,0.0,0.0,10.0,0.0,0.0,0.0,10.0,0.00359526747161,0.0118510668509,0.00399474163512,1.0,0.0,0.0,0.0,1.0,0.0,0.0,0.0,1.0,-0.009580078125,0.592767333984,9.8483203125,0.1,0.0,0.0,0.0,0.1,0.0,0.0,0.0,0.1
1452008901618895898,18,1452008901615777015,robocape,13.2476640909,-0.933934348575,-23.381425639,0.0,10.0,0.0,0.0,0.0,10.0,0.0,0.0,0.0,10.0,0.00359526747161,0.0123836990689,0.00412789968962,1.0,0.0,0.0,0.0,1.0,0.0,0.0,0.0,1.0,-0.0047900390625,0.607137451172,9.83395019531,0.1,0.0,0.0,0.0,0.1,0.0,0.0,0.0,0.1
1452008901652233607,19,1452008901648701906,robocape,13.2233847101,-0.917035954901,-23.3173132107,0.0,10.0,0.0,0.0,0.0,10.0,0.0,0.0,0.0,10.0,0.00279631914458,0.0121173829599,0.00372842552611,1.0,0.0,0.0,0.0,1.0,0.0,0.0,0.0,1.0,-0.00119750976563,0.614322509766,9.83395019531,0.1,0.0,0.0,0.0,0.1,0.0,0.0,0.0,0.1
1452008901685078065,20,1452008901681672096,robocape,13.1989701419,-0.900818049424,-23.2538624565,0.0,10.0,0.0,0.0,0.0,10.0,0.0,0.0,0.0,10.0,0.00266316109008,0.0117179087963,0.00359526747161,1.0,0.0,0.0,0.0,1.0,0.0,0.0,0.0,1.0,-0.009580078125,0.608334960938,9.83993774414,0.1,0.0,0.0,0.0,0.1,0.0,0.0,0.0,0.1
1452008901718287315,21,1452008901715178012,robocape,13.173673578,-0.88495488047,-23.1902634966,0.0,10.0,0.0,0.0,0.0,10.0,0.0,0.0,0.0,10.0,0.00213052887206,0.0115847507418,0.00386158358061,1.0,0.0,0.0,0.0,1.0,0.0,0.0,0.0,1.0,-0.00838256835938,0.602347412109,9.88185058594,0.1,0.0,0.0,0.0,0.1,0.0,0.0,0.0,0.1
1452008901750784648,22,1452008901747425079,robocape,13.1487443316,-0.86853493848,-23.1270303756,0.0,10.0,0.0,0.0,0.0,10.0,0.0,0.0,0.0,10.0,0.00226368692657,0.0118510668509,0.00372842552611,1.0,0.0,0.0,0.0,1.0,0.0,0.0,0.0,1.0,-0.00598754882813,0.584384765625,9.86748046875,0.1,0.0,0.0,0.0,0.1,0.0,0.0,0.0,0.1
1452008901783668190,23,1452008901780590057,robocape,13.125189329,-0.851732971778,-23.0634274485,0.0,10.0,0.0,0.0,0.0,10.0,0.0,0.0,0.0,10.0,0.00292947719909,0.0121173829599,0.00399474163512,1.0,0.0,0.0,0.0,1.0,0.0,0.0,0.0,1.0,-0.00239501953125,0.607137451172,9.87586303711,0.1,0.0,0.0,0.0,0.1,0.0,0.0,0.0,0.1
1452008901817853315,24,1452008901814265966,robocape,13.1024999666,-0.83493001704,-23.000051852,0.0,10.0,0.0,0.0,0.0,10.0,0.0,0.0,0.0,10.0,0.0033289513626,0.0121173829599,0.00399474163512,1.0,0.0,0.0,0.0,1.0,0.0,0.0,0.0,1.0,-0.01916015625,0.601149902344,9.86029541016,0.1,0.0,0.0,0.0,0.1,0.0,0.0,0.0,0.1
1452008901850563023,25,1452008901847446918,robocape,13.0811749312,-0.81788069564,-22.9368341409,0.0,10.0,0.0,0.0,0.0,10.0,0.0,0.0,0.0,10.0,0.00399474163512,0.0122505410144,0.00399474163512,1.0,0.0,0.0,0.0,1.0,0.0,0.0,0.0,1.0,-0.0119750976563,0.601149902344,9.8483203125,0.1,0.0,0.0,0.0,0.1,0.0,0.0,0.0,0.1
1452008901884134940,26,1452008901880906105,robocape,13.058956995,-0.800885265604,-22.8736407289,0.0,10.0,0.0,0.0,0.0,10.0,0.0,0.0,0.0,10.0,0.0034621094171,0.0122505410144,0.00412789968962,1.0,0.0,0.0,0.0,1.0,0.0,0.0,0.0,1.0,-0.0131726074219,0.601149902344,9.86508544922,0.1,0.0,0.0,0.0,0.1,0.0,0.0,0.0,0.1
1452008901919437232,27,1452008901916306018,robocape,13.0358390731,-0.784211481525,-22.811532721,0.0,10.0,0.0,0.0,0.0,10.0,0.0,0.0,0.0,10.0,0.00292947719909,0.0119842249054,0.00372842552611,1.0,0.0,0.0,0.0,1.0,0.0,0.0,0.0,1.0,-0.0047900390625,0.607137451172,9.85071533203,0.1,0.0,0.0,0.0,0.1,0.0,0.0,0.0,0.1
1452008901950564523,28,1452008901947421073,robocape,13.0115799833,-0.768084149364,-22.7495621095,0.0,10.0,0.0,0.0,0.0,10.0,0.0,0.0,0.0,10.0,0.00226368692657,0.0117179087963,0.00386158358061,1.0,0.0,0.0,0.0,1.0,0.0,0.0,0.0,1.0,-0.00718505859375,0.608334960938,9.87107299805,0.1,0.0,0.0,0.0,0.1,0.0,0.0,0.0,0.1
1452008901983163690,29,1452008901980144977,robocape,12.9879305731,-0.751099528149,-22.6881240478,0.0,10.0,0.0,0.0,0.0,10.0,0.0,0.0,0.0,10.0,0.00253000303558,0.0121173829599,0.00359526747161,1.0,0.0,0.0,0.0,1.0,0.0,0.0,0.0,1.0,-0.0143701171875,0.607137451172,9.86388793945,0.1,0.0,0.0,0.0,0.1,0.0,0.0,0.0,0.1
1452008902017261607,30,1452008902013122081,robocape,12.9648946265,-0.734913400843,-22.6268368886,0.0,10.0,0.0,0.0,0.0,10.0,0.0,0.0,0.0,10.0,0.00279631914458,0.0117179087963,0.00372842552611,1.0,0.0,0.0,0.0,1.0,0.0,0.0,0.0,1.0,-0.00119750976563,0.589174804688,9.85430786133,0.1,0.0,0.0,0.0,0.1,0.0,0.0,0.0,0.1
1452008902049974023,31,1452008902046757936,robocape,12.9424710728,-0.71803994874,-22.5653652673,0.0,10.0,0.0,0.0,0.0,10.0,0.0,0.0,0.0,10.0,0.00306263525359,0.0121173829599,0.00386158358061,1.0,0.0,0.0,0.0,1.0,0.0,0.0,0.0,1.0,-0.0179626464844,0.603544921875,9.886640625,0.1,0.0,0.0,0.0,0.1,0.0,0.0,0.0,0.1
1452008902082688982,32,1452008902079699039,robocape,12.9206580498,-0.70122307474,-22.5038752084,0.0,10.0,0.0,0.0,0.0,10.0,0.0,0.0,0.0,10.0,0.0033289513626,0.0121173829599,0.00399474163512,1.0,0.0,0.0,0.0,1.0,0.0,0.0,0.0,1.0,-0.0215551757813,0.604742431641,9.84951782227,0.1,0.0,0.0,0.0,0.1,0.0,0.0,0.0,0.1
1452008902117281398,33,1452008902113864898,robocape,12.8984483787,-0.684652171297,-22.4426802416,0.0,10.0,0.0,0.0,0.0,10.0,0.0,0.0,0.0,10.0,0.00306263525359,0.0119842249054,0.00399474163512,1.0,0.0,0.0,0.0,1.0,0.0,0.0,0.0,1.0,-0.01916015625,0.603544921875,9.83754272461,0.1,0.0,0.0,0.0,0.1,0.0,0.0,0.0,0.1
1452008902155088940,34,1452008902150710105,robocape,12.8753314951,-0.66760722775,-22.382630873,0.0,10.0,0.0,0.0,0.0,10.0,0.0,0.0,0.0,10.0,0.00253000303558,0.0121173829599,0.0034621094171,1.0,0.0,0.0,0.0,1.0,0.0,0.0,0.0,1.0,-0.0179626464844,0.598754882812,9.83275268555,0.1,0.0,0.0,0.0,0.1,0.0,0.0,0.0,0.1
1452008902188089482,35,1452008902183700084,robocape,12.8525786901,-0.651472745216,-22.3222519189,0.0,10.0,0.0,0.0,0.0,10.0,0.0,0.0,0.0,10.0,0.00266316109008,0.0117179087963,0.00386158358061,1.0,0.0,0.0,0.0,1.0,0.0,0.0,0.0,1.0,-0.0107775878906,0.592767333984,9.87825805664,0.1,0.0,0.0,0.0,0.1,0.0,0.0,0.0,0.1
1452008902224076357,36,1452008902220777988,robocape,12.830178887,-0.635528971684,-22.2623846277,0.0,10.0,0.0,0.0,0.0,10.0,0.0,0.0,0.0,10.0,0.00279631914458,0.0115847507418,0.00372842552611,1.0,0.0,0.0,0.0,1.0,0.0,0.0,0.0,1.0,-0.0167651367188,0.603544921875,9.86628295898,0.1,0.0,0.0,0.0,0.1,0.0,0.0,0.0,0.1
1452008902252847524,37,1452008902249625921,robocape,12.8078830563,-0.61908844966,-22.2026285057,0.0,10.0,0.0,0.0,0.0,10.0,0.0,0.0,0.0,10.0,0.00279631914458,0.0118510668509,0.00372842552611,1.0,0.0,0.0,0.0,1.0,0.0,0.0,0.0,1.0,-0.0155676269531,0.603544921875,9.86269042969,0.1,0.0,0.0,0.0,0.1,0.0,0.0,0.0,0.1
1452008902286843357,38,1452008902283034086,robocape,12.7856959204,-0.602510721058,-22.1425612924,0.0,10.0,0.0,0.0,0.0,10.0,0.0,0.0,0.0,10.0,0.00279631914458,0.0119842249054,0.00399474163512,1.0,0.0,0.0,0.0,1.0,0.0,0.0,0.0,1.0,-0.0143701171875,0.607137451172,9.85670288086,0.1,0.0,0.0,0.0,0.1,0.0,0.0,0.0,0.1
1452008902320852107,39,1452008902317339897,robocape,12.7638624008,-0.58593318949,-22.0827092841,0.0,10.0,0.0,0.0,0.0,10.0,0.0,0.0,0.0,10.0,0.00292947719909,0.0119842249054,0.00399474163512,1.0,0.0,0.0,0.0,1.0,0.0,0.0,0.0,1.0,-0.00119750976563,0.609532470703,9.85311035156,0.1,0.0,0.0,0.0,0.1,0.0,0.0,0.0,0.1
1452008902353806857,40,1452008902350281000,robocape,12.7418799546,-0.569107416917,-22.0230265961,0.0,10.0,0.0,0.0,0.0,10.0,0.0,0.0,0.0,10.0,0.00279631914458,0.0121173829599,0.00399474163512,1.0,0.0,0.0,0.0,1.0,0.0,0.0,0.0,1.0,-0.0047900390625,0.602347412109,9.87466552734,0.1,0.0,0.0,0.0,0.1,0.0,0.0,0.0,0.1
1452008902388247107,41,1452008902384401082,robocape,12.7204925364,-0.551870202531,-21.9642119075,0.0,10.0,0.0,0.0,0.0,10.0,0.0,0.0,0.0,10.0,0.00306263525359,0.0122505410144,0.00359526747161,1.0,0.0,0.0,0.0,1.0,0.0,0.0,0.0,1.0,-0.00359252929688,0.611927490234,9.85909790039,0.1,0.0,0.0,0.0,0.1,0.0,0.0,0.0,0.1
1452008902421435940,42,1452008902418137073,robocape,12.6987083672,-0.534991898123,-21.9051994444,0.0,10.0,0.0,0.0,0.0,10.0,0.0,0.0,0.0,10.0,0.00279631914458,0.0121173829599,0.00386158358061,1.0,0.0,0.0,0.0,1.0,0.0,0.0,0.0,1.0,-0.0179626464844,0.596359863281,9.86269042969,0.1,0.0,0.0,0.0,0.1,0.0,0.0,0.0,0.1
1452008902454711524,43,1452008902451316118,robocape,12.676280967,-0.518030086864,-21.8456466684,0.0,10.0,0.0,0.0,0.0,10.0,0.0,0.0,0.0,10.0,0.00239684498107,0.0122505410144,0.00426105774413,1.0,0.0,0.0,0.0,1.0,0.0,0.0,0.0,1.0,-0.00838256835938,0.595162353516,9.85909790039,0.1,0.0,0.0,0.0,0.1,0.0,0.0,0.0,0.1
1452008902488258399,44,1452008902484832048,robocape,12.6483850508,-0.508802916109,-21.7708327101,0.0,10.0,0.0,0.0,0.0,10.0,0.0,0.0,0.0,10.0,-0.00066579027252,0.0101200121423,0.0134489635049,1.0,0.0,0.0,0.0,1.0,0.0,0.0,0.0,1.0,-0.067060546875,0.983155517578,9.77407470703,0.1,0.0,0.0,0.0,0.1,0.0,0.0,0.0,0.1
1452008902519928899,45,1452008902516460895,robocape,12.3757500363,-0.537667859587,-21.5502507938,0.0,10.0,0.0,0.0,0.0,10.0,0.0,0.0,0.0,10.0,-0.13156015785,0.00785632521573,0.0981374861694,1.0,0.0,0.0,0.0,1.0,0.0,0.0,0.0,1.0,0.0299377441406,0.587977294922,9.86388793945,0.1,0.0,0.0,0.0,0.1,0.0,0.0,0.0,0.1
1452008902554178232,46,1452008902550842046,robocape,12.120071537,-0.555093913924,-21.3135595305,0.0,10.0,0.0,0.0,0.0,10.0,0.0,0.0,0.0,10.0,-0.122904884307,0.0150468601589,0.105594337222,1.0,0.0,0.0,0.0,1.0,0.0,0.0,0.0,1.0,0.167651367188,0.197589111328,9.9596887207,0.1,0.0,0.0,0.0,0.1,0.0,0.0,0.0,0.1
1452008902586550065,47,1452008902583342075,robocape,11.986549891,-0.541062447236,-21.0664270571,0.0,10.0,0.0,0.0,0.0,10.0,0.0,0.0,0.0,10.0,-0.0584563859272,0.0318247750264,0.106792759712,1.0,0.0,0.0,0.0,1.0,0.0,0.0,0.0,1.0,0.154478759766,-0.393980712891,10.1560803223,0.1,0.0,0.0,0.0,0.1,0.0,0.0,0.0,0.1
1452008902618904607,48,1452008902615644931,robocape,12.0690347251,-0.482151308536,-20.8848028129,0.0,10.0,0.0,0.0,0.0,10.0,0.0,0.0,0.0,10.0,0.0561926990007,0.0472711093489,0.0652474467069,1.0,0.0,0.0,0.0,1.0,0.0,0.0,0.0,1.0,0.347277832031,-0.678988037109,10.2147583008,0.1,0.0,0.0,0.0,0.1,0.0,0.0,0.0,0.1
1452008902652837065,49,1452008902649729013,robocape,12.3339858203,-0.387503881573,-20.749524841,0.0,10.0,0.0,0.0,0.0,10.0,0.0,0.0,0.0,10.0,0.153264920734,0.0604537567448,0.03488741028,1.0,0.0,0.0,0.0,1.0,0.0,0.0,0.0,1.0,0.0981958007813,0.577199707031,9.7716796875,0.1,0.0,0.0,0.0,0.1,0.0,0.0,0.0,0.1
1452008902685961899,50,1452008902682750940,robocape,12.60220746,-0.3014480695,-20.7035302317,0.0,10.0,0.0,0.0,0.0,10.0,0.0,0.0,0.0,10.0,0.155928081824,0.0460726868584,-0.0117179087963,1.0,0.0,0.0,0.0,1.0,0.0,0.0,0.0,1.0,-0.350870361328,1.09931396484,9.69623657227,0.1,0.0,0.0,0.0,0.1,0.0,0.0,0.0,0.1
1452008902718587482,51,1452008902715449094,robocape,12.7945052777,-0.267651696652,-20.7102772064,0.0,10.0,0.0,0.0,0.0,10.0,0.0,0.0,0.0,10.0,0.116380139636,0.0133158054504,-0.033023197517,1.0,0.0,0.0,0.0,1.0,0.0,0.0,0.0,1.0,-0.322130126953,2.53153564453,9.19447998047,0.1,0.0,0.0,0.0,0.1,0.0,0.0,0.0,0.1
1452008902751720524,52,1452008902748620033,robocape,12.5917364418,-0.294882365551,-20.7060686674,0.0,10.0,0.0,0.0,0.0,10.0,0.0,0.0,0.0,10.0,-0.0933437962073,-0.016112124595,-0.0159789665405,1.0,0.0,0.0,0.0,1.0,0.0,0.0,0.0,1.0,-0.0610729980469,2.06809936523,9.39326660156,0.1,0.0,0.0,0.0,0.1,0.0,0.0,0.0,0.1
1452008902785660690,53,1452008902782438993,robocape,12.3015714606,-0.353404811445,-20.7636421282,0.0,10.0,0.0,0.0,0.0,10.0,0.0,0.0,0.0,10.0,-0.13954964112,-0.0391484680242,-0.0442084740953,1.0,0.0,0.0,0.0,1.0,0.0,0.0,0.0,1.0,-0.475411376953,0.892144775391,9.71300170898,0.1,0.0,0.0,0.0,0.1,0.0,0.0,0.0,0.1
1452008902818428607,54,1452008902815362930,robocape,12.0157174598,-0.416403664387,-20.8088094384,0.0,10.0,0.0,0.0,0.0,10.0,0.0,0.0,0.0,10.0,-0.137685428357,-0.0399474163512,-0.0374174133156,1.0,0.0,0.0,0.0,1.0,0.0,0.0,0.0,1.0,0.13412109375,0.119750976563,10.0830322266,0.1,0.0,0.0,0.0,0.1,0.0,0.0,0.0,0.1
1452008902851428024,55,1452008902848360061,robocape,11.8353771118,-0.452014740952,-20.8334016128,0.0,10.0,0.0,0.0,0.0,10.0,0.0,0.0,0.0,10.0,-0.0821585196289,-0.0237021337017,-0.0307595105904,1.0,0.0,0.0,0.0,1.0,0.0,0.0,0.0,1.0,0.128133544922,0.0323327636719,10.1189575195,0.1,0.0,0.0,0.0,0.1,0.0,0.0,0.0,0.1
1452008902884888024,56,1452008902881413936,robocape,11.7201206634,-0.469146928262,-20.8431188889,0.0,10.0,0.0,0.0,0.0,10.0,0.0,0.0,0.0,10.0,-0.0479368996214,-0.0126500151779,-0.0255663464648,1.0,0.0,0.0,0.0,1.0,0.0,0.0,0.0,1.0,0.215551757813,-0.0981958007813,10.1141674805,0.1,0.0,0.0,0.0,0.1,0.0,0.0,0.0,0.1
1452008902919580566,57,1452008902916467905,robocape,11.6329011638,-0.463121515028,-20.8603995571,0.0,10.0,0.0,0.0,0.0,10.0,0.0,0.0,0.0,10.0,-0.0331563555715,-0.00159789665405,-0.0323574072445,1.0,0.0,0.0,0.0,1.0,0.0,0.0,0.0,1.0,0.0850231933594,0.101788330078,9.98962646484,0.1,0.0,0.0,0.0,0.1,0.0,0.0,0.0,0.1
1452008902950524524,58,1452008902947266101,robocape,11.6502403369,-0.446514929261,-20.8888901636,0.0,10.0,0.0,0.0,0.0,10.0,0.0,0.0,0.0,10.0,0.0222373951022,0.00253000303558,-0.0404800485692,1.0,0.0,0.0,0.0,1.0,0.0,0.0,0.0,1.0,0.102985839844,0.214354248047,9.98723144531,0.1,0.0,0.0,0.0,0.1,0.0,0.0,0.0,0.1
1452008902983708857,59,1452008902980324029,robocape,11.6990664506,-0.426317467447,-20.924217392,0.0,10.0,0.0,0.0,0.0,10.0,0.0,0.0,0.0,10.0,0.0390153099697,0.00359526747161,-0.0448742643678,1.0,0.0,0.0,0.0,1.0,0.0,0.0,0.0,1.0,0.0526904296875,0.408350830078,9.93214599609,0.1,0.0,0.0,0.0,0.1,0.0,0.0,0.0,0.1
1452008903016952357,60,1452008903013849973,robocape,11.7028041123,-0.41424231722,-20.9350583147,0.0,10.0,0.0,0.0,0.0,10.0,0.0,0.0,0.0,10.0,0.0150468601589,0.00213052887206,-0.0306263525359,1.0,0.0,0.0,0.0,1.0,0.0,0.0,0.0,1.0,0.0383203125,0.508941650391,9.90580078125,0.1,0.0,0.0,0.0,0.1,0.0,0.0,0.0,0.1
1452008903050985191,61,1452008903047739982,robocape,11.6628246265,-0.410530998337,-20.924069508,0.0,10.0,0.0,0.0,0.0,10.0,0.0,0.0,0.0,10.0,-0.00825579937925,0.000266316109008,-0.017710021249,1.0,0.0,0.0,0.0,1.0,0.0,0.0,0.0,1.0,0.0155676269531,0.504151611328,9.90101074219,0.1,0.0,0.0,0.0,0.1,0.0,0.0,0.0,0.1
1452008903083356774,62,1452008903080254077,robocape,11.5634412249,-0.418249681754,-20.8889935969,0.0,10.0,0.0,0.0,0.0,10.0,0.0,0.0,0.0,10.0,-0.0399474163512,-0.00292947719909,-0.00306263525359,1.0,0.0,0.0,0.0,1.0,0.0,0.0,0.0,1.0,0.0335302734375,0.44068359375,9.91538085938,0.1,0.0,0.0,0.0,0.1,0.0,0.0,0.0,0.1
1452008903117444816,63,1452008903114427089,robocape,11.4451297401,-0.434205892727,-20.8380329066,0.0,10.0,0.0,0.0,0.0,10.0,0.0,0.0,0.0,10.0,-0.050200586548,-0.00545948023466,0.00652474467069,1.0,0.0,0.0,0.0,1.0,0.0,0.0,0.0,1.0,0.0359252929688,0.526904296875,9.90939331055,0.1,0.0,0.0,0.0,0.1,0.0,0.0,0.0,0.1
1452008903150051899,64,1452008903146765947,robocape,11.2603001822,-0.45688776757,-20.7557357516,0.0,10.0,0.0,0.0,0.0,10.0,0.0,0.0,0.0,10.0,-0.0857537871006,-0.00559263828917,0.0246342400832,1.0,0.0,0.0,0.0,1.0,0.0,0.0,0.0,1.0,0.0682580566406,0.289797363281,9.98842895508,0.1,0.0,0.0,0.0,0.1,0.0,0.0,0.0,0.1
1452008903183020566,65,1452008903179935932,robocape,11.0967396569,-0.475204273535,-20.6719966434,0.0,10.0,0.0,0.0,0.0,10.0,0.0,0.0,0.0,10.0,-0.0747016685767,-0.0033289513626,0.0249005561922,1.0,0.0,0.0,0.0,1.0,0.0,0.0,0.0,1.0,0.178428955078,-0.0263452148438,10.1177600098,0.1,0.0,0.0,0.0,0.1,0.0,0.0,0.0,0.1
1452008903216608024,66,1452008903213526010,robocape,10.9931328599,-0.476131389009,-20.5884461673,0.0,10.0,0.0,0.0,0.0,10.0,0.0,0.0,0.0,10.0,-0.0431432096593,0.00545948023466,0.0226368692657,1.0,0.0,0.0,0.0,1.0,0.0,0.0,0.0,1.0,0.180823974609,-0.149688720703,10.1297351074,0.1,0.0,0.0,0.0,0.1,0.0,0.0,0.0,0.1
1452008903249896066,67,1452008903246762990,robocape,10.9747105725,-0.454278022533,-20.5144310993,0.0,10.0,0.0,0.0,0.0,10.0,0.0,0.0,0.0,10.0,0.00186421276306,0.016112124595,0.0146473859954,1.0,0.0,0.0,0.0,1.0,0.0,0.0,0.0,1.0,0.251477050781,-0.264649658203,10.1560803223,0.1,0.0,0.0,0.0,0.1,0.0,0.0,0.0,0.1
1452008903283090941,68,1452008903280018091,robocape,11.0354982611,-0.4100817049,-20.4510458031,0.0,10.0,0.0,0.0,0.0,10.0,0.0,0.0,0.0,10.0,0.0438089999318,0.0264984528463,0.00612527050718,1.0,0.0,0.0,0.0,1.0,0.0,0.0,0.0,1.0,0.184416503906,-0.156873779297,10.1081799316,0.1,0.0,0.0,0.0,0.1,0.0,0.0,0.0,0.1
1452008903316295232,69,1452008903313221931,robocape,11.2410724977,-0.338163430869,-20.4274259942,0.0,10.0,0.0,0.0,0.0,10.0,0.0,0.0,0.0,10.0,0.120774355435,0.0366184649886,-0.0191747598486,1.0,0.0,0.0,0.0,1.0,0.0,0.0,0.0,1.0,0.184416503906,-0.0347277832031,10.1057849121,0.1,0.0,0.0,0.0,0.1,0.0,0.0,0.0,0.1
1452008903349774857,70,1452008903346657991,robocape,11.509259911,-0.197204131149,-20.4462529413,0.0,10.0,0.0,0.0,0.0,10.0,0.0,0.0,0.0,10.0,0.154596501279,0.067644291688,-0.0498011123845,1.0,0.0,0.0,0.0,1.0,0.0,0.0,0.0,1.0,0.00119750976563,0.444276123047,9.86748046875,0.1,0.0,0.0,0.0,0.1,0.0,0.0,0.0,0.1
1452008903383619857,71,1452008903380125045,robocape,11.7544574537,-0.127206759148,-20.4863267094,0.0,10.0,0.0,0.0,0.0,10.0,0.0,0.0,0.0,10.0,0.143011750537,0.0288952978274,-0.0537958540196,1.0,0.0,0.0,0.0,1.0,0.0,0.0,0.0,1.0,0.0239501953125,0.540076904297,9.8902331543,0.1,0.0,0.0,0.0,0.1,0.0,0.0,0.0,0.1
1452008903416284316,72,1452008903413256883,robocape,11.8897383707,-0.0769339734156,-20.4766570888,0.0,10.0,0.0,0.0,0.0,10.0,0.0,0.0,0.0,10.0,0.0846885226645,0.0242347659197,-0.0245010820287,1.0,0.0,0.0,0.0,1.0,0.0,0.0,0.0,1.0,-0.047900390625,0.870589599609,9.84951782227,0.1,0.0,0.0,0.0,0.1,0.0,0.0,0.0,0.1
1452008903449949691,73,1452008903446691989,robocape,11.9206936951,-0.0442246644534,-20.4128971512,0.0,10.0,0.0,0.0,0.0,10.0,0.0,0.0,0.0,10.0,0.0290284558819,0.0213052887206,0.00705737688871,1.0,0.0,0.0,0.0,1.0,0.0,0.0,0.0,1.0,-0.0107775878906,0.744851074219,9.83754272461,0.1,0.0,0.0,0.0,0.1,0.0,0.0,0.0,0.1
1452008903483196441,74,1452008903480161905,robocape,11.9534295304,-0.0128539119313,-20.3470100336,0.0,10.0,0.0,0.0,0.0,10.0,0.0,0.0,0.0,10.0,0.0299605622634,0.0209058145571,0.00838895743375,1.0,0.0,0.0,0.0,1.0,0.0,0.0,0.0,1.0,0.0143701171875,0.541274414062,9.92017089844,0.1,0.0,0.0,0.0,0.1,0.0,0.0,0.0,0.1
1452008903516295982,75,1452008903513286113,robocape,11.9781090478,0.017668526973,-20.2813443631,0.0,10.0,0.0,0.0,0.0,10.0,0.0,0.0,0.0,10.0,0.0256995045193,0.0205063403936,0.00852211548825,1.0,0.0,0.0,0.0,1.0,0.0,0.0,0.0,1.0,-0.0275427246094,0.586779785156,9.86867797852,0.1,0.0,0.0,0.0,0.1,0.0,0.0,0.0,0.1
1452008903550073232,76,1452008903546794891,robocape,11.9916652269,0.0433148683937,-20.2200773234,0.0,10.0,0.0,0.0,0.0,10.0,0.0,0.0,0.0,10.0,0.0198405501211,0.0175768631945,0.00692421883421,1.0,0.0,0.0,0.0,1.0,0.0,0.0,0.0,1.0,-0.0419128417969,0.655037841797,9.82796264648,0.1,0.0,0.0,0.0,0.1,0.0,0.0,0.0,0.1
1452008903582806149,77,1452008903579766988,robocape,11.9256115969,0.0543360503878,-20.1363783355,0.0,10.0,0.0,0.0,0.0,10.0,0.0,0.0,0.0,10.0,-0.0226368692657,0.0126500151779,0.0213052887206,1.0,0.0,0.0,0.0,1.0,0.0,0.0,0.0,1.0,-0.0682580566406,0.857416992188,9.77646972656,0.1,0.0,0.0,0.0,0.1,0.0,0.0,0.0,0.1
1452008903616092733,78,1452008903613086938,robocape,11.7958061959,0.0543046907778,-20.0230280115,0.0,10.0,0.0,0.0,0.0,10.0,0.0,0.0,0.0,10.0,-0.0568584892732,0.0102531701968,0.0390153099697,1.0,0.0,0.0,0.0,1.0,0.0,0.0,0.0,1.0,-0.0347277832031,0.719703369141,9.886640625,0.1,0.0,0.0,0.0,0.1,0.0,0.0,0.0,0.1
1452008903649563899,79,1452008903646441936,robocape,11.6776155789,0.0574721622623,-19.8969136523,0.0,10.0,0.0,0.0,0.0,10.0,0.0,0.0,0.0,10.0,-0.050999534875,0.0131826473959,0.0455400546404,1.0,0.0,0.0,0.0,1.0,0.0,0.0,0.0,1.0,0.124541015625,0.136516113281,9.99920654297,0.1,0.0,0.0,0.0,0.1,0.0,0.0,0.0,0.1
1452008903682984733,80,1452008903679886102,robocape,11.660689844,0.0859316871779,-19.7851473074,0.0,10.0,0.0,0.0,0.0,10.0,0.0,0.0,0.0,10.0,0.00266316109008,0.0245010820287,0.0344879361165,1.0,0.0,0.0,0.0,1.0,0.0,0.0,0.0,1.0,0.106578369141,-0.0407153320313,10.0506994629,0.1,0.0,0.0,0.0,0.1,0.0,0.0,0.0,0.1
1452008903716326691,81,1452008903713229894,robocape,11.7441784167,0.138085115538,-19.6823999669,0.0,10.0,0.0,0.0,0.0,10.0,0.0,0.0,0.0,10.0,0.0559263828917,0.0356863586071,0.0263652947918,1.0,0.0,0.0,0.0,1.0,0.0,0.0,0.0,1.0,0.100590820313,0.277822265625,9.96926879883,0.1,0.0,0.0,0.0,0.1,0.0,0.0,0.0,0.1
1452008903750161649,82,1452008903746637105,robocape,11.8845821843,0.202383650535,-19.5913126373,0.0,10.0,0.0,0.0,0.0,10.0,0.0,0.0,0.0,10.0,0.0862864193186,0.0407463646782,0.0183758115215,1.0,0.0,0.0,0.0,1.0,0.0,0.0,0.0,1.0,0.0311352539063,0.445473632813,9.93813354492,0.1,0.0,0.0,0.0,0.1,0.0,0.0,0.0,0.1
1452008903783110483,83,1452008903779951095,robocape,11.9937576389,0.255125144239,-19.5059115001,0.0,10.0,0.0,0.0,0.0,10.0,0.0,0.0,0.0,10.0,0.0699079786146,0.034354778062,0.016911072922,1.0,0.0,0.0,0.0,1.0,0.0,0.0,0.0,1.0,-0.116158447266,0.987945556641,9.70461914063,0.1,0.0,0.0,0.0,0.1,0.0,0.0,0.0,0.1
1452008903816453899,84,1452008903813178062,robocape,12.0466018854,0.284661580606,-19.4743021527,0.0,10.0,0.0,0.0,0.0,10.0,0.0,0.0,0.0,10.0,0.0407463646782,0.016644756813,-0.00838895743375,1.0,0.0,0.0,0.0,1.0,0.0,0.0,0.0,1.0,-0.258662109375,1.51724487305,9.45553710938,0.1,0.0,0.0,0.0,0.1,0.0,0.0,0.0,0.1
1452008903850412066,85,1452008903847053050,robocape,11.9443180848,0.271571596551,-19.4751516944,0.0,10.0,0.0,0.0,0.0,10.0,0.0,0.0,0.0,10.0,-0.0411458388417,-0.00865527354276,-0.0193079179031,1.0,0.0,0.0,0.0,1.0,0.0,0.0,0.0,1.0,-0.237106933594,1.456171875,9.55133789063,0.1,0.0,0.0,0.0,0.1,0.0,0.0,0.0,0.1
1452008903883674191,86,1452008903879818916,robocape,11.7801497146,0.237388900522,-19.5054184427,0.0,10.0,0.0,0.0,0.0,10.0,0.0,0.0,0.0,10.0,-0.0737695621952,-0.0226368692657,-0.031957933081,1.0,0.0,0.0,0.0,1.0,0.0,0.0,0.0,1.0,-0.0455053710938,0.726888427734,9.81958007812,0.1,0.0,0.0,0.0,0.1,0.0,0.0,0.0,0.1
1452008903918517274,87,1452008903915313005,robocape,11.5641383586,0.19155099455,-19.4993229547,0.0,10.0,0.0,0.0,0.0,10.0,0.0,0.0,0.0,10.0,-0.101865911696,-0.0246342400832,-0.0110521185238,1.0,0.0,0.0,0.0,1.0,0.0,0.0,0.0,1.0,0.00119750976563,0.523311767578,9.90699829102,0.1,0.0,0.0,0.0,0.1,0.0,0.0,0.0,0.1
1452008903949828191,88,1452008903946453094,robocape,11.3789900822,0.154615542421,-19.4792793752,0.0,10.0,0.0,0.0,0.0,10.0,0.0,0.0,0.0,10.0,-0.0858869451551,-0.0186421276306,-0.00492684801665,1.0,0.0,0.0,0.0,1.0,0.0,0.0,0.0,1.0,0.107775878906,0.326920166016,9.98244140625,0.1,0.0,0.0,0.0,0.1,0.0,0.0,0.0,0.1
1452008903983150274,89,1452008903980037927,robocape,11.2082412225,0.127722536766,-19.4354233843,0.0,10.0,0.0,0.0,0.0,10.0,0.0,0.0,0.0,10.0,-0.0786964102118,-0.0110521185238,0.00652474467069,1.0,0.0,0.0,0.0,1.0,0.0,0.0,0.0,1.0,0.0706530761719,0.275427246094,9.99321899414,0.1,0.0,0.0,0.0,0.1,0.0,0.0,0.0,0.1
1452008904016413191,90,1452008904013334989,robocape,11.0348073295,0.110246054548,-19.3512272025,0.0,10.0,0.0,0.0,0.0,10.0,0.0,0.0,0.0,10.0,-0.0806937810294,-0.00213052887206,0.0270310850643,1.0,0.0,0.0,0.0,1.0,0.0,0.0,0.0,1.0,0.154478759766,0.138911132813,10.0207617188,0.1,0.0,0.0,0.0,0.1,0.0,0.0,0.0,0.1
1452008904049792441,91,1452008904046591043,robocape,10.8964646901,0.103264212512,-19.265235156,0.0,10.0,0.0,0.0,0.0,10.0,0.0,0.0,0.0,10.0,-0.0623179695079,0.0033289513626,0.0267647689553,1.0,0.0,0.0,0.0,1.0,0.0,0.0,0.0,1.0,0.0215551757813,-0.0898132324219,10.1045874023,0.1,0.0,0.0,0.0,0.1,0.0,0.0,0.0,0.1
1452008904082946733,92,1452008904079905986,robocape,10.8361516082,0.113711451016,-19.1933250591,0.0,10.0,0.0,0.0,0.0,10.0,0.0,0.0,0.0,10.0,-0.0210389726116,0.0107858024148,0.0170442309765,1.0,0.0,0.0,0.0,1.0,0.0,0.0,0.0,1.0,0.171243896484,-0.0790356445313,10.096204834,0.1,0.0,0.0,0.0,0.1,0.0,0.0,0.0,0.1
1452008904118091899,93,1452008904114144086,robocape,10.8336928574,0.13686620484,-19.1306414631,0.0,10.0,0.0,0.0,0.0,10.0,0.0,0.0,0.0,10.0,0.00958737992429,0.016378440704,0.0105194863058,1.0,0.0,0.0,0.0,1.0,0.0,0.0,0.0,1.0,0.113763427734,0.183218994141,10.0315393066,0.1,0.0,0.0,0.0,0.1,0.0,0.0,0.0,0.1
1452008904149796524,94,1452008904146528959,robocape,10.8719635657,0.17200799598,-19.0712354194,0.0,10.0,0.0,0.0,0.0,10.0,0.0,0.0,0.0,10.0,0.0311589847539,0.0222373951022,0.00732369299772,1.0,0.0,0.0,0.0,1.0,0.0,0.0,0.0,1.0,0.107775878906,0.21076171875,9.99082397461,0.1,0.0,0.0,0.0,0.1,0.0,0.0,0.0,0.1
1452008904184020858,95,1452008904180519104,robocape,10.9444145724,0.215907267093,-19.0107180583,0.0,10.0,0.0,0.0,0.0,10.0,0.0,0.0,0.0,10.0,0.0492684801665,0.0268979270098,0.0067910607797,1.0,0.0,0.0,0.0,1.0,0.0,0.0,0.0,1.0,0.112565917969,0.165256347656,10.0087866211,0.1,0.0,0.0,0.0,0.1,0.0,0.0,0.0,0.1
1452008904217333649,96,1452008904214273929,robocape,11.1898787749,0.289684865573,-19.0265973555,0.0,10.0,0.0,0.0,0.0,10.0,0.0,0.0,0.0,10.0,0.141813328047,0.0344879361165,-0.0382163616426,1.0,0.0,0.0,0.0,1.0,0.0,0.0,0.0,1.0,0.160466308594,-0.112565917969,10.0327368164,0.1,0.0,0.0,0.0,0.1,0.0,0.0,0.0,0.1
1452008904251206566,97,1452008904247874975,robocape,11.5533860998,0.37794782486,-19.1199770827,0.0,10.0,0.0,0.0,0.0,10.0,0.0,0.0,0.0,10.0,0.205729194209,0.0336889877895,-0.0821585196289,1.0,0.0,0.0,0.0,1.0,0.0,0.0,0.0,1.0,-0.107775878906,0.67060546875,9.84353027344,0.1,0.0,0.0,0.0,0.1,0.0,0.0,0.0,0.1
1452008904283655691,98,1452008904280627965,robocape,11.772061084,0.437103918487,-19.1478768709,0.0,10.0,0.0,0.0,0.0,10.0,0.0,0.0,0.0,10.0,0.128763838705,0.0255663464648,-0.0436758418773,1.0,0.0,0.0,0.0,1.0,0.0,0.0,0.0,1.0,-0.387993164063,1.86691772461,9.4687097168,0.1,0.0,0.0,0.0,0.1,0.0,0.0,0.0,0.1
1452008904317641691,99,1452008904314029932,robocape,11.7534099224,0.444653017383,-19.1364736555,0.0,10.0,0.0,0.0,0.0,10.0,0.0,0.0,0.0,10.0,0.00266316109008,0.0034621094171,-0.015313176268,1.0,0.0,0.0,0.0,1.0,0.0,0.0,0.0,1.0,-0.264649658203,1.54598510742,9.54056030273,0.1,0.0,0.0,0.0,0.1,0.0,0.0,0.0,0.1
1452008904351828900,100,1452008904348108053,robocape,11.6335022952,0.424433587273,-19.1517072059,0.0,10.0,0.0,0.0,0.0,10.0,0.0,0.0,0.0,10.0,-0.050733218766,-0.0135821215594,-0.0254331884103,1.0,0.0,0.0,0.0,1.0,0.0,0.0,0.0,1.0,-0.146096191406,0.947230224609,9.70461914063,0.1,0.0,0.0,0.0,0.1,0.0,0.0,0.0,0.1
1452008904390341233,101,1452008904386085987,robocape,11.4430273244,0.385992497247,-19.1471107023,0.0,10.0,0.0,0.0,0.0,10.0,0.0,0.0,0.0,10.0,-0.0885501062451,-0.0207726565026,-0.0123836990689,1.0,0.0,0.0,0.0,1.0,0.0,0.0,0.0,1.0,-0.0742456054688,0.886157226563,9.86388793945,0.1,0.0,0.0,0.0,0.1,0.0,0.0,0.0,0.1
1452008904418110483,102,1452008904415016889,robocape,11.2464000004,0.341704496756,-19.1326636163,0.0,10.0,0.0,0.0,0.0,10.0,0.0,0.0,0.0,10.0,-0.0921453737167,-0.0227700273202,-0.00652474467069,1.0,0.0,0.0,0.0,1.0,0.0,0.0,0.0,1.0,0.0502954101563,0.489781494141,9.87706054688,0.1,0.0,0.0,0.0,0.1,0.0,0.0,0.0,0.1
1452008904455258525,103,1452008904449579000,robocape,11.0074645571,0.294134778694,-19.0820393434,0.0,10.0,0.0,0.0,0.0,10.0,0.0,0.0,0.0,10.0,-0.115181717146,-0.0207726565026,0.0133158054504,1.0,0.0,0.0,0.0,1.0,0.0,0.0,0.0,1.0,0.143701171875,0.451461181641,9.9213684082,0.1,0.0,0.0,0.0,0.1,0.0,0.0,0.0,0.1
1452008904487028816,104,1452008904481623888,robocape,10.7459361899,0.257760821477,-18.9761526161,0.0,10.0,0.0,0.0,0.0,10.0,0.0,0.0,0.0,10.0,-0.127964890378,-0.00958737992429,0.0416784710597,1.0,0.0,0.0,0.0,1.0,0.0,0.0,0.0,1.0,0.0658630371094,0.0538879394531,10.0111816406,0.1,0.0,0.0,0.0,0.1,0.0,0.0,0.0,0.1
1452008904521730275,105,1452008904515760898,robocape,10.52663288,0.226708335834,-18.8698678775,0.0,10.0,0.0,0.0,0.0,10.0,0.0,0.0,0.0,10.0,-0.105860653331,-0.00705737688871,0.0411458388417,1.0,0.0,0.0,0.0,1.0,0.0,0.0,0.0,1.0,0.290994873047,0.0874182128906,10.1021923828,0.1,0.0,0.0,0.0,0.1,0.0,0.0,0.0,0.1
1452008904554897275,106,1452008904551194906,robocape,10.3411446239,0.149408191728,-18.7820554237,0.0,10.0,0.0,0.0,0.0,10.0,0.0,0.0,0.0,10.0,-0.0880174740271,-0.0328900394625,0.0356863586071,1.0,0.0,0.0,0.0,1.0,0.0,0.0,0.0,1.0,0.152083740234,-0.286204833984,10.0734521484,0.1,0.0,0.0,0.0,0.1,0.0,0.0,0.0,0.1
1452008904586302108,107,1452008904583259105,robocape,10.3087708213,0.16562358739,-18.7202601787,0.0,10.0,0.0,0.0,0.0,10.0,0.0,0.0,0.0,10.0,-0.00692421883421,0.0126500151779,0.0118510668509,1.0,0.0,0.0,0.0,1.0,0.0,0.0,0.0,1.0,0.2682421875,-0.246687011719,10.1704504395,0.1,0.0,0.0,0.0,0.1,0.0,0.0,0.0,0.1
1452008904620146108,108,1452008904616509914,robocape,10.3358613076,0.197838929688,-18.6611694234,0.0,10.0,0.0,0.0,0.0,10.0,0.0,0.0,0.0,10.0,0.0245010820287,0.0206394984481,0.00852211548825,1.0,0.0,0.0,0.0,1.0,0.0,0.0,0.0,1.0,0.174836425781,-0.108973388672,10.1105749512,0.1,0.0,0.0,0.0,0.1,0.0,0.0,0.0,0.1
1452008904654392025,109,1452008904650747060,robocape,10.4055101581,0.242772023718,-18.6000095064,0.0,10.0,0.0,0.0,0.0,10.0,0.0,0.0,0.0,10.0,0.0470047932399,0.0274305592278,0.00812264132474,1.0,0.0,0.0,0.0,1.0,0.0,0.0,0.0,1.0,0.180823974609,0.0215551757813,10.0830322266,0.1,0.0,0.0,0.0,0.1,0.0,0.0,0.0,0.1
1452008904687382108,110,1452008904684051990,robocape,10.502643452,0.29562280704,-18.530750471,0.0,10.0,0.0,0.0,0.0,10.0,0.0,0.0,0.0,10.0,0.0615190211808,0.0323574072445,0.0114515926873,1.0,0.0,0.0,0.0,1.0,0.0,0.0,0.0,1.0,0.117355957031,0.215551757813,10.0447119141,0.1,0.0,0.0,0.0,0.1,0.0,0.0,0.0,0.1
1452008904719999483,111,1452008904716388940,robocape,10.600856954,0.346727974765,-18.4628032896,0.0,10.0,0.0,0.0,0.0,10.0,0.0,0.0,0.0,10.0,0.0621848114534,0.0314253008629,0.0109189604693,1.0,0.0,0.0,0.0,1.0,0.0,0.0,0.0,1.0,0.0395178222656,0.370030517578,9.94531860352,0.1,0.0,0.0,0.0,0.1,0.0,0.0,0.0,0.1
1452008904754485566,112,1452008904750842094,robocape,10.6750227205,0.390607354019,-18.3945599737,0.0,10.0,0.0,0.0,0.0,10.0,0.0,0.0,0.0,10.0,0.0495347962755,0.0278300333913,0.0119842249054,1.0,0.0,0.0,0.0,1.0,0.0,0.0,0.0,1.0,0.0359252929688,0.490979003906,9.94172607422,0.1,0.0,0.0,0.0,0.1,0.0,0.0,0.0,0.1
1452008904786151066,113,1452008904782819032,robocape,10.7427241018,0.432878916798,-18.329540691,0.0,10.0,0.0,0.0,0.0,10.0,0.0,0.0,0.0,10.0,0.0462058449129,0.0267647689553,0.0105194863058,1.0,0.0,0.0,0.0,1.0,0.0,0.0,0.0,1.0,0.0646655273438,0.308957519531,9.95370117188,0.1,0.0,0.0,0.0,0.1,0.0,0.0,0.0,0.1
1452008904820984108,114,1452008904817791938,robocape,10.7850443015,0.470676729271,-18.2595266087,0.0,10.0,0.0,0.0,0.0,10.0,0.0,0.0,0.0,10.0,0.032756881408,0.0250337142467,0.0138484376684,1.0,0.0,0.0,0.0,1.0,0.0,0.0,0.0,1.0,0.0239501953125,0.548459472656,9.94052856445,0.1,0.0,0.0,0.0,0.1,0.0,0.0,0.0,0.1
1452008904853913191,115,1452008904850652933,robocape,10.8489691125,0.509592929334,-18.1999072949,0.0,10.0,0.0,0.0,0.0,10.0,0.0,0.0,0.0,10.0,0.0443416321498,0.0246342400832,0.00812264132474,1.0,0.0,0.0,0.0,1.0,0.0,0.0,0.0,1.0,0.0275427246094,0.505349121094,9.90699829102,0.1,0.0,0.0,0.0,0.1,0.0,0.0,0.0,0.1
1452008904887380650,116,1452008904883650064,robocape,10.9109653905,0.549217327623,-18.1432622673,0.0,10.0,0.0,0.0,0.0,10.0,0.0,0.0,0.0,10.0,0.0434095257683,0.0247673981377,0.00652474467069,1.0,0.0,0.0,0.0,1.0,0.0,0.0,0.0,1.0,0.0263452148438,0.439486083984,9.92615844727,0.1,0.0,0.0,0.0,0.1,0.0,0.0,0.0,0.1
1452008904922450358,117,1452008904916625976,robocape,10.9734134536,0.5884005389,-18.0849814791,0.0,10.0,0.0,0.0,0.0,10.0,0.0,0.0,0.0,10.0,0.0436758418773,0.0247673981377,0.00745685105222,1.0,0.0,0.0,0.0,1.0,0.0,0.0,0.0,1.0,0.028740234375,0.4215234375,9.95489868164,0.1,0.0,0.0,0.0,0.1,0.0,0.0,0.0,0.1
1452008904953679025,118,1452008904950647115,robocape,11.0380618496,0.628773647402,-18.0254822087,0.0,10.0,0.0,0.0,0.0,10.0,0.0,0.0,0.0,10.0,0.0448742643678,0.0255663464648,0.00798948327024,1.0,0.0,0.0,0.0,1.0,0.0,0.0,0.0,1.0,0.0299377441406,0.468226318359,9.9285534668,0.1,0.0,0.0,0.0,0.1,0.0,0.0,0.0,0.1
1452008904986178442,119,1452008904983040094,robocape,11.1096575726,0.671553876766,-17.9657088508,0.0,10.0,0.0,0.0,0.0,10.0,0.0,0.0,0.0,10.0,0.0486026898939,0.0268979270098,0.00785632521573,1.0,0.0,0.0,0.0,1.0,0.0,0.0,0.0,1.0,0.028740234375,0.477806396484,9.92615844727,0.1,0.0,0.0,0.0,0.1,0.0,0.0,0.0,0.1
1452008905019999608,120,1452008905016968965,robocape,11.182448842,0.713072481336,-17.904180921,0.0,10.0,0.0,0.0,0.0,10.0,0.0,0.0,0.0,10.0,0.0492684801665,0.0264984528463,0.00892158965177,1.0,0.0,0.0,0.0,1.0,0.0,0.0,0.0,1.0,0.0119750976563,0.558039550781,9.86748046875,0.1,0.0,0.0,0.0,0.1,0.0,0.0,0.0,0.1
1452008905053019192,121,1452008905049841880,robocape,11.2364807072,0.751220852483,-17.8355792998,0.0,10.0,0.0,0.0,0.0,10.0,0.0,0.0,0.0,10.0,0.0392816260787,0.0255663464648,0.0131826473959,1.0,0.0,0.0,0.0,1.0,0.0,0.0,0.0,1.0,-0.0682580566406,0.817899169922,9.80281494141,0.1,0.0,0.0,0.0,0.1,0.0,0.0,0.0,0.1
1452008905084704275,122,1452008905081661939,robocape,11.2524700423,0.777081703172,-17.7774221196,0.0,10.0,0.0,0.0,0.0,10.0,0.0,0.0,0.0,10.0,0.0193079179031,0.018242653467,0.00932106381528,1.0,0.0,0.0,0.0,1.0,0.0,0.0,0.0,1.0,-0.0910107421875,0.908909912109,9.74772949219,0.1,0.0,0.0,0.0,0.1,0.0,0.0,0.0,0.1
1452008905120064775,123,1452008905116990089,robocape,11.2129098748,0.786141496875,-17.7379784229,0.0,10.0,0.0,0.0,0.0,10.0,0.0,0.0,0.0,10.0,-0.00985369603329,0.00772316716123,0.00173105470855,1.0,0.0,0.0,0.0,1.0,0.0,0.0,0.0,1.0,-0.0910107421875,0.880169677734,9.7716796875,0.1,0.0,0.0,0.0,0.1,0.0,0.0,0.0,0.1
1452008905152501775,124,1452008905149324893,robocape,11.1465756258,0.787073150489,-17.7072459426,0.0,10.0,0.0,0.0,0.0,10.0,0.0,0.0,0.0,10.0,-0.0239684498107,0.00266316109008,-0.00173105470855,1.0,0.0,0.0,0.0,1.0,0.0,0.0,0.0,1.0,-0.0490979003906,0.694555664063,9.84592529297,0.1,0.0,0.0,0.0,0.1,0.0,0.0,0.0,0.1
1452008905185245483,125,1452008905182142972,robocape,11.0772933246,0.788179924798,-17.6708390709,0.0,10.0,0.0,0.0,0.0,10.0,0.0,0.0,0.0,10.0,-0.0256995045193,0.0033289513626,0.00133158054504,1.0,0.0,0.0,0.0,1.0,0.0,0.0,0.0,1.0,0.00239501953125,0.507744140625,9.8902331543,0.1,0.0,0.0,0.0,0.1,0.0,0.0,0.0,0.1
1452008905219378400,126,1452008905216353893,robocape,11.0214659395,0.792615947121,-17.635485192,0.0,10.0,0.0,0.0,0.0,10.0,0.0,0.0,0.0,10.0,-0.0186421276306,0.00492684801665,0.000399474163512,1.0,0.0,0.0,0.0,1.0,0.0,0.0,0.0,1.0,0.0526904296875,0.428708496094,9.90819580078,0.1,0.0,0.0,0.0,0.1,0.0,0.0,0.0,0.1
1452008905250586733,127,1452008905247301101,robocape,10.9875178058,0.803181178434,-17.5957161119,0.0,10.0,0.0,0.0,0.0,10.0,0.0,0.0,0.0,10.0,-0.00719053494321,0.00852211548825,0.00199737081756,1.0,0.0,0.0,0.0,1.0,0.0,0.0,0.0,1.0,0.0694555664063,0.356857910156,9.97286132813,0.1,0.0,0.0,0.0,0.1,0.0,0.0,0.0,0.1
1452008905283658608,128,1452008905280642032,robocape,10.9782321058,0.821016100149,-17.5495060537,0.0,10.0,0.0,0.0,0.0,10.0,0.0,0.0,0.0,10.0,0.00572579634367,0.0129163312869,0.00452737385313,1.0,0.0,0.0,0.0,1.0,0.0,0.0,0.0,1.0,0.0694555664063,0.358055419922,9.96807128906,0.1,0.0,0.0,0.0,0.1,0.0,0.0,0.0,0.1
1452008905317024400,129,1452008905313811063,robocape,10.9914961404,0.844938499115,-17.4988769206,0.0,10.0,0.0,0.0,0.0,10.0,0.0,0.0,0.0,10.0,0.0175768631945,0.0165115987585,0.00612527050718,1.0,0.0,0.0,0.0,1.0,0.0,0.0,0.0,1.0,0.0455053710938,0.434696044922,9.91418334961,0.1,0.0,0.0,0.0,0.1,0.0,0.0,0.0,0.1
1452008905350329733,130,1452008905347213983,robocape,11.0173588301,0.873025066385,-17.4473633485,0.0,10.0,0.0,0.0,0.0,10.0,0.0,0.0,0.0,10.0,0.0242347659197,0.0187752856851,0.00612527050718,1.0,0.0,0.0,0.0,1.0,0.0,0.0,0.0,1.0,0.0299377441406,0.504151611328,9.90460327148,0.1,0.0,0.0,0.0,0.1,0.0,0.0,0.0,0.1
1452008905383433983,131,1452008905380390882,robocape,11.0468498996,0.90252490112,-17.3915763374,0.0,10.0,0.0,0.0,0.0,10.0,0.0,0.0,0.0,10.0,0.0260989786828,0.0199737081756,0.00825579937925,1.0,0.0,0.0,0.0,1.0,0.0,0.0,0.0,1.0,-0.00598754882813,0.573607177734,9.86029541016,0.1,0.0,0.0,0.0,0.1,0.0,0.0,0.0,0.1
1452008905417221733,132,1452008905414089918,robocape,11.0634076617,0.92789380107,-17.3389112825,0.0,10.0,0.0,0.0,0.0,10.0,0.0,0.0,0.0,10.0,0.0193079179031,0.0175768631945,0.00719053494321,1.0,0.0,0.0,0.0,1.0,0.0,0.0,0.0,1.0,-0.0383203125,0.746048583984,9.81479003906,0.1,0.0,0.0,0.0,0.1,0.0,0.0,0.0,0.1
1452008905450072442,133,1452008905447048902,robocape,11.050820123,0.944677450219,-17.2942813418,0.0,10.0,0.0,0.0,0.0,10.0,0.0,0.0,0.0,10.0,0.00399474163512,0.0123836990689,0.00412789968962,1.0,0.0,0.0,0.0,1.0,0.0,0.0,0.0,1.0,-0.0598754882813,0.795146484375,9.79562988281,0.1,0.0,0.0,0.0,0.1,0.0,0.0,0.0,0.1
1452008905483184025,134,1452008905480159044,robocape,11.0116796256,0.95325215273,-17.2568217909,0.0,10.0,0.0,0.0,0.0,10.0,0.0,0.0,0.0,10.0,-0.0099868540878,0.00745685105222,0.00146473859954,1.0,0.0,0.0,0.0,1.0,0.0,0.0,0.0,1.0,-0.0359252929688,0.704135742188,9.80760498047,0.1,0.0,0.0,0.0,0.1,0.0,0.0,0.0,0.1
1452008905516678025,135,1452008905513637065,robocape,10.9602886301,0.970824232242,-17.2841193961,0.0,10.0,0.0,0.0,0.0,10.0,0.0,0.0,0.0,10.0,-0.0154463343225,0.00559263828917,-0.0334226716805,1.0,0.0,0.0,0.0,1.0,0.0,0.0,0.0,1.0,-0.00239501953125,0.543669433594,9.87227050781,0.1,0.0,0.0,0.0,0.1,0.0,0.0,0.0,0.1
1452008905549703108,136,1452008905546627044,robocape,10.9158435387,0.97822064574,-17.2460414645,0.0,10.0,0.0,0.0,0.0,10.0,0.0,0.0,0.0,10.0,-0.0129163312869,0.00692421883421,0.00199737081756,1.0,0.0,0.0,0.0,1.0,0.0,0.0,0.0,1.0,0.0203576660156,0.490979003906,9.91657836914,0.1,0.0,0.0,0.0,0.1,0.0,0.0,0.0,0.1
1452008905582812858,137,1452008905579787015,robocape,10.8846567872,0.989307226286,-17.2056742273,0.0,10.0,0.0,0.0,0.0,10.0,0.0,0.0,0.0,10.0,-0.00599211245268,0.00905474770627,0.00279631914458,1.0,0.0,0.0,0.0,1.0,0.0,0.0,0.0,1.0,0.0155676269531,0.467028808594,9.90340576172,0.1,0.0,0.0,0.0,0.1,0.0,0.0,0.0,0.1
1452008905616658858,138,1452008905613548994,robocape,10.8656976214,1.00407624851,-17.1630343458,0.0,10.0,0.0,0.0,0.0,10.0,0.0,0.0,0.0,10.0,0.000399474163512,0.0111852765783,0.00359526747161,1.0,0.0,0.0,0.0,1.0,0.0,0.0,0.0,1.0,0.0299377441406,0.457448730469,9.886640625,0.1,0.0,0.0,0.0,0.1,0.0,0.0,0.0,0.1
1452008905649826817,139,1452008905646722078,robocape,10.8584483744,1.02247064549,-17.1178850992,0.0,10.0,0.0,0.0,0.0,10.0,0.0,0.0,0.0,10.0,0.00652474467069,0.0133158054504,0.00452737385313,1.0,0.0,0.0,0.0,1.0,0.0,0.0,0.0,1.0,0.0407153320313,0.473016357422,9.88424560547,0.1,0.0,0.0,0.0,0.1,0.0,0.0,0.0,0.1
1452008905682929484,140,1452008905679826974,robocape,10.8618441723,1.04342180105,-17.0714520754,0.0,10.0,0.0,0.0,0.0,10.0,0.0,0.0,0.0,10.0,0.0121173829599,0.0147805440499,0.00492684801665,1.0,0.0,0.0,0.0,1.0,0.0,0.0,0.0,1.0,0.0215551757813,0.504151611328,9.88544311523,0.1,0.0,0.0,0.0,0.1,0.0,0.0,0.0,0.1
1452008905716792317,141,1452008905713707923,robocape,10.8725830439,1.0664753731,-17.0241147427,0.0,10.0,0.0,0.0,0.0,10.0,0.0,0.0,0.0,10.0,0.0159789665405,0.0159789665405,0.00519316412565,1.0,0.0,0.0,0.0,1.0,0.0,0.0,0.0,1.0,0.00838256835938,0.518521728516,9.91657836914,0.1,0.0,0.0,0.0,0.1,0.0,0.0,0.0,0.1
1452008905750158859,142,1452008905747065067,robocape,10.8864689373,1.09057088651,-16.9730980667,0.0,10.0,0.0,0.0,0.0,10.0,0.0,0.0,0.0,10.0,0.0175768631945,0.016911072922,0.00705737688871,1.0,0.0,0.0,0.0,1.0,0.0,0.0,0.0,1.0,-0.0143701171875,0.562829589844,9.87346801758,0.1,0.0,0.0,0.0,0.1,0.0,0.0,0.0,0.1
1452008905783005650,143,1452008905779947042,robocape,10.8894478163,1.11158865351,-16.9252155269,0.0,10.0,0.0,0.0,0.0,10.0,0.0,0.0,0.0,10.0,0.0118510668509,0.0150468601589,0.00585895439817,1.0,0.0,0.0,0.0,1.0,0.0,0.0,0.0,1.0,-0.0203576660156,0.680185546875,9.79802490234,0.1,0.0,0.0,0.0,0.1,0.0,0.0,0.0,0.1
1452008905816982484,144,1452008905813538074,robocape,10.8736835181,1.12680541999,-16.8823719636,0.0,10.0,0.0,0.0,0.0,10.0,0.0,0.0,0.0,10.0,0.00199737081756,0.0115847507418,0.00399474163512,1.0,0.0,0.0,0.0,1.0,0.0,0.0,0.0,1.0,-0.0251477050781,0.716110839844,9.78365478516,0.1,0.0,0.0,0.0,0.1,0.0,0.0,0.0,0.1
1452008905849643484,145,1452008905846569061,robocape,10.8416939728,1.1369182583,-16.8454103382,0.0,10.0,0.0,0.0,0.0,10.0,0.0,0.0,0.0,10.0,-0.00652474467069,0.00838895743375,0.00159789665405,1.0,0.0,0.0,0.0,1.0,0.0,0.0,0.0,1.0,-0.0251477050781,0.644260253906,9.83514770508,0.1,0.0,0.0,0.0,0.1,0.0,0.0,0.0,0.1
1452008905883330275,146,1452008905880312919,robocape,10.8047568251,1.14525778171,-16.8087219734,0.0,10.0,0.0,0.0,0.0,10.0,0.0,0.0,0.0,10.0,-0.00918790576077,0.00745685105222,0.00173105470855,1.0,0.0,0.0,0.0,1.0,0.0,0.0,0.0,1.0,-0.00359252929688,0.561632080078,9.88544311523,0.1,0.0,0.0,0.0,0.1,0.0,0.0,0.0,0.1
1452008905919040525,147,1452008905915910959,robocape,10.7710141112,1.15622027286,-16.7695859651,0.0,10.0,0.0,0.0,0.0,10.0,0.0,0.0,0.0,10.0,-0.00759000910673,0.00905474770627,0.00279631914458,1.0,0.0,0.0,0.0,1.0,0.0,0.0,0.0,1.0,0.01916015625,0.526904296875,9.89262817383,0.1,0.0,0.0,0.0,0.1,0.0,0.0,0.0,0.1
1452008905949791109,148,1452008905946759939,robocape,10.7436854852,1.16877991026,-16.7294207144,0.0,10.0,0.0,0.0,0.0,10.0,0.0,0.0,0.0,10.0,-0.00426105774413,0.0099868540878,0.0031957933081,1.0,0.0,0.0,0.0,1.0,0.0,0.0,0.0,1.0,0.0107775878906,0.505349121094,9.90819580078,0.1,0.0,0.0,0.0,0.1,0.0,0.0,0.0,0.1
1452008905982934942,149,1452008905979775905,robocape,10.6608639314,1.18374907788,-16.6884481616,0.0,10.0,0.0,0.0,0.0,10.0,0.0,0.0,0.0,10.0,-0.0336889877895,0.0113184346328,0.00386158358061,1.0,0.0,0.0,0.0,1.0,0.0,0.0,0.0,1.0,0.0143701171875,0.490979003906,9.89502319336,0.1,0.0,0.0,0.0,0.1,0.0,0.0,0.0,0.1
1452008906016332317,150,1452008906013294935,robocape,10.6492242102,1.2008062646,-16.6462427345,0.0,10.0,0.0,0.0,0.0,10.0,0.0,0.0,0.0,10.0,0.00386158358061,0.0125168571234,0.00386158358061,1.0,0.0,0.0,0.0,1.0,0.0,0.0,0.0,1.0,0.0227526855469,0.504151611328,9.90220825195,0.1,0.0,0.0,0.0,0.1,0.0,0.0,0.0,0.1
1452008906049421859,151,1452008906046392917,robocape,10.6442193329,1.21964469764,-16.6027117275,0.0,10.0,0.0,0.0,0.0,10.0,0.0,0.0,0.0,10.0,0.00732369299772,0.0135821215594,0.00439421579863,1.0,0.0,0.0,0.0,1.0,0.0,0.0,0.0,1.0,0.00838256835938,0.525706787109,9.89382568359,0.1,0.0,0.0,0.0,0.1,0.0,0.0,0.0,0.1
1452008906083262984,152,1452008906079991102,robocape,10.6440434986,1.23915302298,-16.558844136,0.0,10.0,0.0,0.0,0.0,10.0,0.0,0.0,0.0,10.0,0.00985369603329,0.0139815957229,0.00452737385313,1.0,0.0,0.0,0.0,1.0,0.0,0.0,0.0,1.0,-0.00239501953125,0.547261962891,9.86029541016,0.1,0.0,0.0,0.0,0.1,0.0,0.0,0.0,0.1
1452008906117530109,153,1452008906114168882,robocape,10.6456740758,1.25903976399,-16.5144801605,0.0,10.0,0.0,0.0,0.0,10.0,0.0,0.0,0.0,10.0,0.0107858024148,0.0142479118319,0.00479368996214,1.0,0.0,0.0,0.0,1.0,0.0,0.0,0.0,1.0,-0.00359252929688,0.546064453125,9.85311035156,0.1,0.0,0.0,0.0,0.1,0.0,0.0,0.0,0.1
1452008906149716109,154,1452008906146457910,robocape,10.6473523132,1.27876298645,-16.469492319,0.0,10.0,0.0,0.0,0.0,10.0,0.0,0.0,0.0,10.0,0.0107858024148,0.0142479118319,0.00519316412565,1.0,0.0,0.0,0.0,1.0,0.0,0.0,0.0,1.0,-0.00598754882813,0.589174804688,9.84712280273,0.1,0.0,0.0,0.0,0.1,0.0,0.0,0.0,0.1
1452008906183250484,155,1452008906179759979,robocape,10.6417161363,1.29662291439,-16.4258210293,0.0,10.0,0.0,0.0,0.0,10.0,0.0,0.0,0.0,10.0,0.00692421883421,0.0131826473959,0.00479368996214,1.0,0.0,0.0,0.0,1.0,0.0,0.0,0.0,1.0,-0.0239501953125,0.641865234375,9.84951782227,0.1,0.0,0.0,0.0,0.1,0.0,0.0,0.0,0.1
1452008906216766859,156,1452008906213150978,robocape,10.6251838508,1.31121135576,-16.3855538077,0.0,10.0,0.0,0.0,0.0,10.0,0.0,0.0,0.0,10.0,0.00119842249054,0.0111852765783,0.0034621094171,1.0,0.0,0.0,0.0,1.0,0.0,0.0,0.0,1.0,-0.0251477050781,0.640667724609,9.8519128418,0.1,0.0,0.0,0.0,0.1,0.0,0.0,0.0,0.1
1452008906250717609,157,1452008906246495008,robocape,10.6008389767,1.32409249115,-16.3473428146,0.0,10.0,0.0,0.0,0.0,10.0,0.0,0.0,0.0,10.0,-0.00292947719909,0.0101200121423,0.00266316109008,1.0,0.0,0.0,0.0,1.0,0.0,0.0,0.0,1.0,-0.0107775878906,0.596359863281,9.86508544922,0.1,0.0,0.0,0.0,0.1,0.0,0.0,0.0,0.1
1452008906282833484,158,1452008906279652118,robocape,10.5743307746,1.33629620289,-16.3083879963,0.0,10.0,0.0,0.0,0.0,10.0,0.0,0.0,0.0,10.0,-0.00412789968962,0.00985369603329,0.0031957933081,1.0,0.0,0.0,0.0,1.0,0.0,0.0,0.0,1.0,0.00119750976563,0.565224609375,9.8902331543,0.1,0.0,0.0,0.0,0.1,0.0,0.0,0.0,0.1
1452008906316862484,159,1452008906313205003,robocape,10.5479070978,1.34895496815,-16.269209155,0.0,10.0,0.0,0.0,0.0,10.0,0.0,0.0,0.0,10.0,-0.00412789968962,0.0101200121423,0.0033289513626,1.0,0.0,0.0,0.0,1.0,0.0,0.0,0.0,1.0,0.0047900390625,0.546064453125,9.87466552734,0.1,0.0,0.0,0.0,0.1,0.0,0.0,0.0,0.1
1452008906349799484,160,1452008906346652030,robocape,10.5233381224,1.36176847255,-16.2295854716,0.0,10.0,0.0,0.0,0.0,10.0,0.0,0.0,0.0,10.0,-0.0031957933081,0.0102531701968,0.00359526747161,1.0,0.0,0.0,0.0,1.0,0.0,0.0,0.0,1.0,0.0107775878906,0.548459472656,9.8902331543,0.1,0.0,0.0,0.0,0.1,0.0,0.0,0.0,0.1
1452008906382886734,161,1452008906379823923,robocape,10.5008264331,1.37496252436,-16.1907367683,0.0,10.0,0.0,0.0,0.0,10.0,0.0,0.0,0.0,10.0,-0.00213052887206,0.0103863282513,0.0031957933081,1.0,0.0,0.0,0.0,1.0,0.0,0.0,0.0,1.0,0.01916015625,0.548459472656,9.88783813477,0.1,0.0,0.0,0.0,0.1,0.0,0.0,0.0,0.1
1452008906416733276,162,1452008906413691043,robocape,10.4813952958,1.38894052316,-16.1520652394,0.0,10.0,0.0,0.0,0.0,10.0,0.0,0.0,0.0,10.0,-0.000532632218016,0.0107858024148,0.00306263525359,1.0,0.0,0.0,0.0,1.0,0.0,0.0,0.0,1.0,0.00359252929688,0.531694335938,9.90699829102,0.1,0.0,0.0,0.0,0.1,0.0,0.0,0.0,0.1
1452008906449677317,163,1452008906446641921,robocape,10.4653469838,1.40367677831,-16.1120510847,0.0,10.0,0.0,0.0,0.0,10.0,0.0,0.0,0.0,10.0,0.00119842249054,0.0113184346328,0.00372842552611,1.0,0.0,0.0,0.0,1.0,0.0,0.0,0.0,1.0,-0.146096191406,0.513731689453,9.90939331055,0.1,0.0,0.0,0.0,0.1,0.0,0.0,0.0,0.1
1452008906482862151,164,1452008906479840040,robocape,10.4526479954,1.41930487722,-16.0714297214,0.0,10.0,0.0,0.0,0.0,10.0,0.0,0.0,0.0,10.0,0.00292947719909,0.0118510668509,0.00399474163512,1.0,0.0,0.0,0.0,1.0,0.0,0.0,0.0,1.0,0.00598754882813,0.523311767578,9.88783813477,0.1,0.0,0.0,0.0,0.1,0.0,0.0,0.0,0.1
1452008906517971109,165,1452008906514651060,robocape,10.442761856,1.43620827741,-16.0308954172,0.0,10.0,0.0,0.0,0.0,10.0,0.0,0.0,0.0,10.0,0.00439421579863,0.0125168571234,0.00386158358061,1.0,0.0,0.0,0.0,1.0,0.0,0.0,0.0,1.0,0.0107775878906,0.536484375,9.89502319336,0.1,0.0,0.0,0.0,0.1,0.0,0.0,0.0,0.1
1452008906550892317,166,1452008906547781944,robocape,10.4331952922,1.45271150947,-15.989775302,0.0,10.0,0.0,0.0,0.0,10.0,0.0,0.0,0.0,10.0,0.00452737385313,0.0123836990689,0.00426105774413,1.0,0.0,0.0,0.0,1.0,0.0,0.0,0.0,1.0,0.00718505859375,0.548459472656,9.886640625,0.1,0.0,0.0,0.0,0.1,0.0,0.0,0.0,0.1
1452008906583511026,167,1452008906580085992,robocape,10.4235246663,1.4712478032,-15.9458567455,0.0,10.0,0.0,0.0,0.0,10.0,0.0,0.0,0.0,10.0,0.00439421579863,0.0137152796139,0.00559263828917,1.0,0.0,0.0,0.0,1.0,0.0,0.0,0.0,1.0,-0.101788330078,0.540076904297,9.86867797852,0.1,0.0,0.0,0.0,0.1,0.0,0.0,0.0,0.1
1452008906616902734,168,1452008906613792896,robocape,10.3986236008,1.51263111877,-15.9182989612,0.0,10.0,0.0,0.0,0.0,10.0,0.0,0.0,0.0,10.0,-0.0033289513626,0.0239684498107,-0.00506000607115,1.0,0.0,0.0,0.0,1.0,0.0,0.0,0.0,1.0,-0.204774169922,0.659827880859,9.76209960938,0.1,0.0,0.0,0.0,0.1,0.0,0.0,0.0,0.1
1452008906649897192,169,1452008906646773099,robocape,10.3814557288,1.55981182431,-15.9002876523,0.0,10.0,0.0,0.0,0.0,10.0,0.0,0.0,0.0,10.0,0.000932106381528,0.0260989786828,-0.0106526443603,1.0,0.0,0.0,0.0,1.0,0.0,0.0,0.0,1.0,-1.91362060547,-0.535286865234,10.0219592285,0.1,0.0,0.0,0.0,0.1,0.0,0.0,0.0,0.1
1452008906685606526,170,1452008906682030916,robocape,10.3912253298,1.5692684242,-15.8726884309,0.0,10.0,0.0,0.0,0.0,10.0,0.0,0.0,0.0,10.0,0.0149137021044,0.00759000910673,-0.00213052887206,1.0,0.0,0.0,0.0,1.0,0.0,0.0,0.0,1.0,-5.55045776367,-0.650247802734,10.4087548828,0.1,0.0,0.0,0.0,0.1,0.0,0.0,0.0,0.1
1452008906717069651,171,1452008906714050054,robocape,10.477596588,1.53824150126,-15.7754101554,0.0,10.0,0.0,0.0,0.0,10.0,0.0,0.0,0.0,10.0,0.0539290120741,-0.0066579027252,0.0379500455336,1.0,0.0,0.0,0.0,1.0,0.0,0.0,0.0,1.0,-7.40300537109,-1.40108642578,8.89151000977,0.1,0.0,0.0,0.0,0.1,0.0,0.0,0.0,0.1
1452008906750619817,172,1452008906747459888,robocape,10.6354558934,1.49176796546,-15.7499554587,0.0,10.0,0.0,0.0,0.0,10.0,0.0,0.0,0.0,10.0,0.0933437962073,-0.0214384467751,0.00133158054504,1.0,0.0,0.0,0.0,1.0,0.0,0.0,0.0,1.0,-5.56602539063,-1.17715209961,8.94300292969,0.1,0.0,0.0,0.0,0.1,0.0,0.0,0.0,0.1
1452008906784134442,173,1452008906780886888,robocape,10.7326619565,1.6393086306,-15.7490601463,0.0,10.0,0.0,0.0,0.0,10.0,0.0,0.0,0.0,10.0,0.0621848114534,0.0761664071763,-0.0303600364269,1.0,0.0,0.0,0.0,1.0,0.0,0.0,0.0,1.0,-6.67012939453,-1.3831237793,10.6434667969,0.1,0.0,0.0,0.0,0.1,0.0,0.0,0.0,0.1
1452008906821970734,174,1452008906817166090,robocape,11.0621968675,1.68061284388,-15.5931968634,0.0,10.0,0.0,0.0,0.0,10.0,0.0,0.0,0.0,10.0,0.181760744398,0.0368847810976,0.0597879664723,1.0,0.0,0.0,0.0,1.0,0.0,0.0,0.0,1.0,-9.82437011719,-2.22856567383,8.80648681641,0.1,0.0,0.0,0.0,0.1,0.0,0.0,0.0,0.1
1452008906853082984,175,1452008906849482059,robocape,11.2629110975,2.03238582349,-15.4922581735,0.0,10.0,0.0,0.0,0.0,10.0,0.0,0.0,0.0,10.0,0.115448033255,0.191481282377,-0.000399474163512,1.0,0.0,0.0,0.0,1.0,0.0,0.0,0.0,1.0,-6.48810791016,-3.72545288086,10.8171057129,0.1,0.0,0.0,0.0,0.1,0.0,0.0,0.0,0.1
1452008906886201109,176,1452008906882859945,robocape,11.6994773636,2.17751765594,-15.1502397172,0.0,10.0,0.0,0.0,0.0,10.0,0.0,0.0,0.0,10.0,0.233825543709,0.110787501347,0.145009121355,1.0,0.0,0.0,0.0,1.0,0.0,0.0,0.0,1.0,-6.04143676758,-1.40946899414,9.95250366211,0.1,0.0,0.0,0.0,0.1,0.0,0.0,0.0,0.1
1452008906919906401,177,1452008906916171073,robocape,12.0803176755,2.40536965761,-14.8296942871,0.0,10.0,0.0,0.0,0.0,10.0,0.0,0.0,0.0,10.0,0.205063403936,0.152199656298,0.124369622907,1.0,0.0,0.0,0.0,1.0,0.0,0.0,0.0,1.0,-6.48571289063,-1.39270385742,9.36692138672,0.1,0.0,0.0,0.0,0.1,0.0,0.0,0.0,0.1
1452008906954078901,178,1452008906950258016,robocape,12.5560929703,2.4740848292,-14.411113892,0.0,10.0,0.0,0.0,0.0,10.0,0.0,0.0,0.0,10.0,0.252334513285,0.0828243099015,0.19188075654,1.0,0.0,0.0,0.0,1.0,0.0,0.0,0.0,1.0,-8.93102783203,-1.65855102539,9.23759033203,0.1,0.0,0.0,0.0,0.1,0.0,0.0,0.0,0.1
1452008906987487526,179,1452008906984019994,robocape,12.8126070182,2.59807385155,-14.2880280902,0.0,10.0,0.0,0.0,0.0,10.0,0.0,0.0,0.0,10.0,0.145408595518,0.0785632521573,0.033023197517,1.0,0.0,0.0,0.0,1.0,0.0,0.0,0.0,1.0,-9.13101196289,-2.28245361328,9.9249609375,0.1,0.0,0.0,0.0,0.1,0.0,0.0,0.0,0.1
1452008907022068151,180,1452008907017752885,robocape,13.3451991456,2.82468838676,-14.087892456,0.0,10.0,0.0,0.0,0.0,10.0,0.0,0.0,0.0,10.0,0.290151400764,0.140748063611,0.0579237537092,1.0,0.0,0.0,0.0,1.0,0.0,0.0,0.0,1.0,-5.76840454102,-3.18896850586,9.50463500977,0.1,0.0,0.0,0.0,0.1,0.0,0.0,0.0,0.1
1452008907054557859,181,1452008907051071882,robocape,13.8926388145,3.05848885083,-13.9374526077,0.0,10.0,0.0,0.0,0.0,10.0,0.0,0.0,0.0,10.0,0.300404570961,0.139283325011,0.0296942461544,1.0,0.0,0.0,0.0,1.0,0.0,0.0,0.0,1.0,-6.26297607422,-2.31119384766,7.72992553711,0.1,0.0,0.0,0.0,0.1,0.0,0.0,0.0,0.1
1452008907086415734,182,1452008907082986116,robocape,14.6052210347,3.45303942435,-13.7690164046,0.0,10.0,0.0,0.0,0.0,10.0,0.0,0.0,0.0,10.0,0.388954677206,0.224371321839,0.0146473859954,1.0,0.0,0.0,0.0,1.0,0.0,0.0,0.0,1.0,-5.27503051758,-1.23942260742,10.5955664063,0.1,0.0,0.0,0.0,0.1,0.0,0.0,0.0,0.1
1452008907121723193,183,1452008907117645025,robocape,15.5936365363,3.79463832272,-13.4358515584,0.0,10.0,0.0,0.0,0.0,10.0,0.0,0.0,0.0,10.0,0.530501689144,0.221175528531,0.10053433115,1.0,0.0,0.0,0.0,1.0,0.0,0.0,0.0,1.0,-5.50375488281,-1.42862915039,9.5764855957,0.1,0.0,0.0,0.0,0.1,0.0,0.0,0.0,0.1
1452008907154349818,184,1452008907151053905,robocape,16.9539449095,4.54597616703,-13.2252254529,0.0,10.0,0.0,0.0,0.0,10.0,0.0,0.0,0.0,10.0,0.738627728333,0.413855233398,-0.03222424919,1.0,0.0,0.0,0.0,1.0,0.0,0.0,0.0,1.0,1.21068237305,0.0251477050781,8.11552368164,0.1,0.0,0.0,0.0,0.1,0.0,0.0,0.0,0.1
1452008907186968068,185,1452008907183336019,robocape,18.0954480256,5.08173552199,-13.010545525,0.0,10.0,0.0,0.0,0.0,10.0,0.0,0.0,0.0,10.0,0.623712327297,0.307195631741,-0.00399474163512,1.0,0.0,0.0,0.0,1.0,0.0,0.0,0.0,1.0,-0.0874182128906,0.514929199219,9.66510131836,0.1,0.0,0.0,0.0,0.1,0.0,0.0,0.0,0.1
1452008907220203443,186,1452008907216706037,robocape,18.8648754245,5.77227790774,-12.6338824492,0.0,10.0,0.0,0.0,0.0,10.0,0.0,0.0,0.0,10.0,0.416784710597,0.411458388417,0.0487358479485,1.0,0.0,0.0,0.0,1.0,0.0,0.0,0.0,1.0,2.1495300293,1.15439941406,10.1548828125,0.1,0.0,0.0,0.0,0.1,0.0,0.0,0.0,0.1
1452008907252422318,187,1452008907249193906,robocape,18.2238060527,5.94865170504,-11.4703428685,0.0,10.0,0.0,0.0,0.0,10.0,0.0,0.0,0.0,10.0,-0.39734363464,0.280430862785,0.54488275903,1.0,0.0,0.0,0.0,1.0,0.0,0.0,0.0,1.0,-4.38767578125,3.86436401367,10.290201416,0.1,0.0,0.0,0.0,0.1,0.0,0.0,0.0,0.1
1452008907285473943,188,1452008907282206058,robocape,16.9454713952,6.12077754417,-10.3329015331,0.0,10.0,0.0,0.0,0.0,10.0,0.0,0.0,0.0,10.0,-0.739160360551,0.262987157645,0.542086439886,1.0,0.0,0.0,0.0,1.0,0.0,0.0,0.0,1.0,-3.53145629883,3.34464477539,9.71419921875,0.1,0.0,0.0,0.0,0.1,0.0,0.0,0.0,0.1
1452008907319895818,189,1452008907316771984,robocape,14.6379330007,5.56434675929,-9.36507598942,0.0,10.0,0.0,0.0,0.0,10.0,0.0,0.0,0.0,10.0,-1.27818416518,-0.148338072717,0.576707534057,1.0,0.0,0.0,0.0,1.0,0.0,0.0,0.0,1.0,1.0310559082,2.72313720703,7.127578125,0.1,0.0,0.0,0.0,0.1,0.0,0.0,0.0,0.1
1452008907352584901,190,1452008907349497079,robocape,12.1741918918,5.94738499188,-9.30456172909,0.0,10.0,0.0,0.0,0.0,10.0,0.0,0.0,0.0,10.0,-1.2992231378,0.200269713974,-0.0111852765783,1.0,0.0,0.0,0.0,1.0,0.0,0.0,0.0,1.0,-4.59723999023,5.57321044922,8.16102905273,0.1,0.0,0.0,0.0,0.1,0.0,0.0,0.0,0.1
1452008907385834609,191,1452008907382603883,robocape,8.39601021823,5.54106128113,-8.50706785668,0.0,10.0,0.0,0.0,0.0,10.0,0.0,0.0,0.0,10.0,-2.03345665033,-0.141946486101,0.460061078311,1.0,0.0,0.0,0.0,1.0,0.0,0.0,0.0,1.0,5.18521728516,3.22728881836,5.72649169922,0.1,0.0,0.0,0.0,0.1,0.0,0.0,0.0,0.1
1452008907419462609,192,1452008907416330099,robocape,3.67351062258,3.89844689779,-6.88821089709,0.0,10.0,0.0,0.0,0.0,10.0,0.0,0.0,0.0,10.0,-2.55104200819,-0.773381980559,0.944223764488,1.0,0.0,0.0,0.0,1.0,0.0,0.0,0.0,1.0,0.552052001953,0.592767333984,3.90028930664,0.1,0.0,0.0,0.0,0.1,0.0,0.0,0.0,0.1
1452008907452558776,193,1452008907449444055,robocape,-0.80576842337,2.57492612241,-6.66044511523,0.0,10.0,0.0,0.0,0.0,10.0,0.0,0.0,0.0,10.0,-2.35316913919,-0.690823986767,0.137818586412,1.0,0.0,0.0,0.0,1.0,0.0,0.0,0.0,1.0,-1.94834838867,-2.22497314453,3.76736572266,0.1,0.0,0.0,0.0,0.1,0.0,0.0,0.0,0.1
1452008907485129359,194,1452008907481899976,robocape,-5.2896635459,1.52992500414,-7.48012622465,0.0,10.0,0.0,0.0,0.0,10.0,0.0,0.0,0.0,10.0,-2.33865491125,-0.522379047819,-0.465254242437,1.0,0.0,0.0,0.0,1.0,0.0,0.0,0.0,1.0,0.425115966797,0.946032714844,5.99712890625,0.1,0.0,0.0,0.0,0.1,0.0,0.0,0.0,0.1
1452008907518805026,195,1452008907515383958,robocape,-10.2204078126,0.557549952425,-8.75802774025,0.0,10.0,0.0,0.0,0.0,10.0,0.0,0.0,0.0,10.0,-2.5928536373,-0.412257336744,-0.751277743511,1.0,0.0,0.0,0.0,1.0,0.0,0.0,0.0,1.0,11.0230773926,-8.53465209961,10.8386608887,0.1,0.0,0.0,0.0,0.1,0.0,0.0,0.0,0.1
1452008907550960943,196,1452008907547889947,robocape,-9.51222140385,1.65375201418,-12.6386950911,0.0,10.0,0.0,0.0,0.0,10.0,0.0,0.0,0.0,10.0,0.392283628569,0.919589524404,-1.92732968089,1.0,0.0,0.0,0.0,1.0,0.0,0.0,0.0,1.0,15.4155432129,-19.62,19.6194012451,0.1,0.0,0.0,0.0,0.1,0.0,0.0,0.0,0.1
1452008907584239276,197,1452008907580980062,robocape,-6.83934454877,2.70138246363,-14.6354809764,0.0,10.0,0.0,0.0,0.0,10.0,0.0,0.0,0.0,10.0,1.43344645674,0.695484518674,-0.969790110952,1.0,0.0,0.0,0.0,1.0,0.0,0.0,0.0,1.0,-2.58542358398,-5.76241699219,9.64354614258,0.1,0.0,0.0,0.0,0.1,0.0,0.0,0.0,0.1
1452008907616897734,198,1452008907613807916,robocape,-5.08864887475,3.03519215026,-15.4866565276,0.0,10.0,0.0,0.0,0.0,10.0,0.0,0.0,0.0,10.0,0.934503226509,0.223971847676,-0.439421579863,1.0,0.0,0.0,0.0,1.0,0.0,0.0,0.0,1.0,-5.84863769531,-3.4871484375,7.1658984375,0.1,0.0,0.0,0.0,0.1,0.0,0.0,0.0,0.1
1452008907650378318,199,1452008907647286891,robocape,-2.73832140845,3.72794523536,-16.628065247,0.0,10.0,0.0,0.0,0.0,10.0,0.0,0.0,0.0,10.0,1.26327046308,0.408262595109,-0.591088603943,1.0,0.0,0.0,0.0,1.0,0.0,0.0,0.0,1.0,-1.98307617188,0.0946032714844,8.47118408203,0.1,0.0,0.0,0.0,0.1,0.0,0.0,0.0,0.1
1452008907683454276,200,1452008907680363893,robocape,-0.722585421101,3.98458920066,-16.6168090933,0.0,10.0,0.0,0.0,0.0,10.0,0.0,0.0,0.0,10.0,1.05501126583,0.137552270303,-0.00292947719909,1.0,0.0,0.0,0.0,1.0,0.0,0.0,0.0,1.0,-2.65847167969,-1.78069702148,7.63651977539,0.1,0.0,0.0,0.0,0.1,0.0,0.0,0.0,0.1
1452008907717147401,201,1452008907713939905,robocape,1.41180459822,4.73547431149,-17.2681352518,0.0,10.0,0.0,0.0,0.0,10.0,0.0,0.0,0.0,10.0,1.14662400733,0.398275741021,-0.367915704594,1.0,0.0,0.0,0.0,1.0,0.0,0.0,0.0,1.0,-0.598754882812,-0.592767333984,8.61368774414,0.1,0.0,0.0,0.0,0.1,0.0,0.0,0.0,0.1
1452008907749996776,202,1452008907746875047,robocape,3.78329838738,5.41604975895,-17.7539472831,0.0,10.0,0.0,0.0,0.0,10.0,0.0,0.0,0.0,10.0,1.27179257857,0.35300200249,-0.298540358198,1.0,0.0,0.0,0.0,1.0,0.0,0.0,0.0,1.0,-0.426313476563,-0.627495117188,9.37410644531,0.1,0.0,0.0,0.0,0.1,0.0,0.0,0.0,0.1
1452008907783234235,203,1452008907780177116,robocape,6.50485988948,6.20088724372,-18.1586146883,0.0,10.0,0.0,0.0,0.0,10.0,0.0,0.0,0.0,10.0,1.46127649013,0.401471534329,-0.283360339984,1.0,0.0,0.0,0.0,1.0,0.0,0.0,0.0,1.0,2.94587402344,0.137713623047,8.62446533203,0.1,0.0,0.0,0.0,0.1,0.0,0.0,0.0,0.1
1452008907816769068,204,1452008907813498973,robocape,9.59302168309,6.94862987757,-18.2451089767,0.0,10.0,0.0,0.0,0.0,10.0,0.0,0.0,0.0,10.0,1.64623302783,0.39468047355,-0.141547011938,1.0,0.0,0.0,0.0,1.0,0.0,0.0,0.0,1.0,-0.934057617188,-1.32923583984,7.30720458984,0.1,0.0,0.0,0.0,0.1,0.0,0.0,0.0,0.1
1452008907849748901,205,1452008907846657037,robocape,12.755847025,7.72802856027,-17.9556154402,0.0,10.0,0.0,0.0,0.0,10.0,0.0,0.0,0.0,10.0,1.67153305819,0.445147376207,0.0215716048296,1.0,0.0,0.0,0.0,1.0,0.0,0.0,0.0,1.0,0.0826281738281,0.819096679688,7.34073486328,0.1,0.0,0.0,0.0,0.1,0.0,0.0,0.0,0.1
1452008907883079485,206,1452008907879847049,robocape,15.6776952307,8.61453773853,-17.2677598229,0.0,10.0,0.0,0.0,0.0,10.0,0.0,0.0,0.0,10.0,1.52292866936,0.555269087282,0.183358641052,1.0,0.0,0.0,0.0,1.0,0.0,0.0,0.0,1.0,0.423918457031,1.27175537109,8.09875854492,0.1,0.0,0.0,0.0,0.1,0.0,0.0,0.0,0.1
1452008907919253526,207,1452008907916095972,robocape,18.0971880265,8.83469242281,-15.9776197765,0.0,10.0,0.0,0.0,0.0,10.0,0.0,0.0,0.0,10.0,1.20281670633,0.317848276101,0.570981737713,1.0,0.0,0.0,0.0,1.0,0.0,0.0,0.0,1.0,-0.934057617188,2.22377563477,9.14657958984,0.1,0.0,0.0,0.0,0.1,0.0,0.0,0.0,0.1
1452008907950902776,208,1452008907947804927,robocape,19.8922197134,9.78344763078,-14.6317264513,0.0,10.0,0.0,0.0,0.0,10.0,0.0,0.0,0.0,10.0,0.870454202292,0.712262433542,0.460993184693,1.0,0.0,0.0,0.0,1.0,0.0,0.0,0.0,1.0,1.43102416992,2.29802124023,9.65911376953,0.1,0.0,0.0,0.0,0.1,0.0,0.0,0.0,0.1
1452008907983164360,209,1452008907980144023,robocape,21.5817372716,10.7391453291,-13.1708592382,0.0,10.0,0.0,0.0,0.0,10.0,0.0,0.0,0.0,10.0,0.798815168969,0.753674588492,0.492684801665,1.0,0.0,0.0,0.0,1.0,0.0,0.0,0.0,1.0,2.36148925781,4.78764404297,10.3919897461,0.1,0.0,0.0,0.0,0.1,0.0,0.0,0.0,0.1
1452008908016453610,210,1452008908013313055,robocape,23.4306182275,11.8938508339,-11.9293872868,0.0,10.0,0.0,0.0,0.0,10.0,0.0,0.0,0.0,10.0,0.911200566971,0.830639943996,0.315717747229,1.0,0.0,0.0,0.0,1.0,0.0,0.0,0.0,1.0,2.36268676758,1.04303100586,11.6433874512,0.1,0.0,0.0,0.0,0.1,0.0,0.0,0.0,0.1
1452008908049856276,211,1452008908046552896,robocape,24.902912594,14.3519247392,-15.6901954018,0.0,10.0,0.0,0.0,0.0,10.0,0.0,0.0,0.0,10.0,1.3969611498,0.455533704458,-2.40083972271,1.0,0.0,0.0,0.0,1.0,0.0,0.0,0.0,1.0,5.36364624023,10.305769043,10.9811645508,0.1,0.0,0.0,0.0,0.1,0.0,0.0,0.0,0.1
1452008908083000401,212,1452008908079982995,robocape,23.7175018993,13.5458221829,-13.5004369057,0.0,10.0,0.0,0.0,0.0,10.0,0.0,0.0,0.0,10.0,-0.948218506123,0.0513990090385,1.22145883396,1.0,0.0,0.0,0.0,1.0,0.0,0.0,0.0,1.0,7.26529174805,11.1979138184,12.1834643555,0.1,0.0,0.0,0.0,0.1,0.0,0.0,0.0,0.1
1452008908117605276,213,1452008908114012956,robocape,21.8877074268,12.2805635004,-12.206437501,0.0,10.0,0.0,0.0,0.0,10.0,0.0,0.0,0.0,10.0,-1.15980665473,-0.376304662028,0.897218971248,1.0,0.0,0.0,0.0,1.0,0.0,0.0,0.0,1.0,7.55628662109,-4.28468994141,6.07855957031,0.1,0.0,0.0,0.0,0.1,0.0,0.0,0.0,0.1
1452008908149768443,214,1452008908146401882,robocape,21.0992250334,13.659186271,-10.670188467,0.0,10.0,0.0,0.0,0.0,10.0,0.0,0.0,0.0,10.0,-0.583498594836,0.964197472663,0.458862655821,1.0,0.0,0.0,0.0,1.0,0.0,0.0,0.0,1.0,-2.61416381836,4.8247668457,16.7100512695,0.1,0.0,0.0,0.0,0.1,0.0,0.0,0.0,0.1
1452008908182960193,215,1452008908179864883,robocape,20.188023077,12.9415363466,-9.0695673159,0.0,10.0,0.0,0.0,0.0,10.0,0.0,0.0,0.0,10.0,-0.688027667622,-0.0739027202497,0.905607928681,1.0,0.0,0.0,0.0,1.0,0.0,0.0,0.0,1.0,-0.603544921875,1.27654541016,5.64386352539,0.1,0.0,0.0,0.0,0.1,0.0,0.0,0.0,0.1
1452008908216764651,216,1452008908213375091,robocape,19.0355148381,13.4958905133,-8.29174170012,0.0,10.0,0.0,0.0,0.0,10.0,0.0,0.0,0.0,10.0,-0.693087673693,0.408662069273,0.274172434224,1.0,0.0,0.0,0.0,1.0,0.0,0.0,0.0,1.0,1.68369873047,4.31702270508,10.2578686523,0.1,0.0,0.0,0.0,0.1,0.0,0.0,0.0,0.1
1452008908249784818,217,1452008908246408939,robocape,17.8262244128,13.6846447717,-7.37809843969,0.0,10.0,0.0,0.0,0.0,10.0,0.0,0.0,0.0,10.0,-0.747283001876,0.239684498107,0.410792598145,1.0,0.0,0.0,0.0,1.0,0.0,0.0,0.0,1.0,-1.52203491211,1.98427368164,8.22329956055,0.1,0.0,0.0,0.0,0.1,0.0,0.0,0.0,0.1
1452008908282972901,218,1452008908279928922,robocape,16.3705747511,13.9322830327,-6.6544968922,0.0,10.0,0.0,0.0,0.0,10.0,0.0,0.0,0.0,10.0,-0.854475235752,0.230762908455,0.314519324738,1.0,0.0,0.0,0.0,1.0,0.0,0.0,0.0,1.0,-0.723295898438,2.24054077148,8.91905273438,0.1,0.0,0.0,0.0,0.1,0.0,0.0,0.0,0.1
1452008908316630110,219,1452008908313237905,robocape,14.5619071751,13.7087065742,-5.86130644095,0.0,10.0,0.0,0.0,0.0,10.0,0.0,0.0,0.0,10.0,-1.05514442389,-0.0127831732324,0.424507877759,1.0,0.0,0.0,0.0,1.0,0.0,0.0,0.0,1.0,-0.819096679688,1.21068237305,7.99218017578,0.1,0.0,0.0,0.0,0.1,0.0,0.0,0.0,0.1
1452008908349650318,220,1452008908346324920,robocape,12.7133938678,13.4672454375,-5.05967522831,0.0,10.0,0.0,0.0,0.0,10.0,0.0,0.0,0.0,10.0,-1.07312076125,-0.033023197517,0.429701041884,1.0,0.0,0.0,0.0,1.0,0.0,0.0,0.0,1.0,-1.49688720703,0.793948974609,6.68210449219,0.1,0.0,0.0,0.0,0.1,0.0,0.0,0.0,0.1
1452008908382739235,221,1452008908379695892,robocape,10.3652879479,13.2489468559,-4.45759366447,0.0,10.0,0.0,0.0,0.0,10.0,0.0,0.0,0.0,10.0,-1.30854420161,-0.0577905956547,0.326769865753,1.0,0.0,0.0,0.0,1.0,0.0,0.0,0.0,1.0,-2.10282714844,3.23686889648,10.7129223633,0.1,0.0,0.0,0.0,0.1,0.0,0.0,0.0,0.1
1452008908416482526,222,1452008908413403987,robocape,7.47270781574,12.7802555614,-3.84750456807,0.0,10.0,0.0,0.0,0.0,10.0,0.0,0.0,0.0,10.0,-1.59257033187,-0.203332349228,0.349273576964,1.0,0.0,0.0,0.0,1.0,0.0,0.0,0.0,1.0,1.21547241211,2.66565673828,6.74197998047,0.1,0.0,0.0,0.0,0.1,0.0,0.0,0.0,0.1
1452008908450155901,223,1452008908446382999,robocape,4.34194904908,11.8016365835,-3.14426149099,0.0,10.0,0.0,0.0,0.0,10.0,0.0,0.0,0.0,10.0,-1.72160048668,-0.481632683141,0.413722075344,1.0,0.0,0.0,0.0,1.0,0.0,0.0,0.0,1.0,-1.74237670898,1.46575195313,7.29043945313,0.1,0.0,0.0,0.0,0.1,0.0,0.0,0.0,0.1
1452008908482906402,224,1452008908479784011,robocape,0.646450648853,10.5034264968,-2.60046208612,0.0,10.0,0.0,0.0,0.0,10.0,0.0,0.0,0.0,10.0,-1.99124554705,-0.673113965518,0.310524583103,1.0,0.0,0.0,0.0,1.0,0.0,0.0,0.0,1.0,-1.06698120117,0.104183349609,5.46543457031,0.1,0.0,0.0,0.0,0.1,0.0,0.0,0.0,0.1
1452008908516951027,225,1452008908513497114,robocape,-3.13467924913,9.30891780842,-2.38558856385,0.0,10.0,0.0,0.0,0.0,10.0,0.0,0.0,0.0,10.0,-2.00030029476,-0.62677496255,0.0969390636789,1.0,0.0,0.0,0.0,1.0,0.0,0.0,0.0,1.0,0.250279541016,-0.117355957031,7.58263183594,0.1,0.0,0.0,0.0,0.1,0.0,0.0,0.0,0.1
1452008908550030402,226,1452008908546402931,robocape,-7.01816193234,7.74985261105,-3.22865487387,0.0,10.0,0.0,0.0,0.0,10.0,0.0,0.0,0.0,10.0,-1.97366868386,-0.76898776476,-0.509729032641,1.0,0.0,0.0,0.0,1.0,0.0,0.0,0.0,1.0,3.1769934082,-0.876577148438,5.96120361328,0.1,0.0,0.0,0.0,0.1,0.0,0.0,0.0,0.1
1452008908583088527,227,1452008908579737901,robocape,-10.4050297201,6.89810899495,-4.27272781146,0.0,10.0,0.0,0.0,0.0,10.0,0.0,0.0,0.0,10.0,-1.72013574808,-0.347276206146,-0.609997047683,1.0,0.0,0.0,0.0,1.0,0.0,0.0,0.0,1.0,2.65727416992,0.944835205078,8.96455810547,0.1,0.0,0.0,0.0,0.1,0.0,0.0,0.0,0.1
1452008908616794443,228,1452008908613521099,robocape,-11.3844970831,6.64178679314,-7.1540834046,0.0,10.0,0.0,0.0,0.0,10.0,0.0,0.0,0.0,10.0,-0.352203054163,0.163518090931,-1.50721601893,1.0,0.0,0.0,0.0,1.0,0.0,0.0,0.0,1.0,8.41849365234,-13.5570080566,19.6194012451,0.1,0.0,0.0,0.0,0.1,0.0,0.0,0.0,0.1
1452008908649630235,229,1452008908646343946,robocape,-9.98144279285,7.58298648575,-9.0786325209,0.0,10.0,0.0,0.0,0.0,10.0,0.0,0.0,0.0,10.0,0.850480494117,0.678040813534,-0.89934950012,1.0,0.0,0.0,0.0,1.0,0.0,0.0,0.0,1.0,3.66198486328,-5.18401977539,13.2252978516,0.1,0.0,0.0,0.0,0.1,0.0,0.0,0.0,0.1
1452008908683050818,230,1452008908679882049,robocape,-8.52213742715,8.39881237883,-10.9304065865,0.0,10.0,0.0,0.0,0.0,10.0,0.0,0.0,0.0,10.0,0.890028436304,0.587093862308,-0.890960542686,1.0,0.0,0.0,0.0,1.0,0.0,0.0,0.0,1.0,-0.270637207031,-2.61057128906,8.98850830078,0.1,0.0,0.0,0.0,0.1,0.0,0.0,0.0,0.1
1452008908716718818,231,1452008908713444948,robocape,-6.68960250994,9.05514014642,-12.2799988535,0.0,10.0,0.0,0.0,0.0,10.0,0.0,0.0,0.0,10.0,1.06073706218,0.443948953716,-0.659398685904,1.0,0.0,0.0,0.0,1.0,0.0,0.0,0.0,1.0,-2.92431884766,-1.16278198242,10.9069189453,0.1,0.0,0.0,0.0,0.1,0.0,0.0,0.0,0.1
1452008908749629902,232,1452008908746507883,robocape,-4.86185840484,9.70256390666,-13.1911400431,0.0,10.0,0.0,0.0,0.0,10.0,0.0,0.0,0.0,10.0,1.03064334186,0.396544686313,-0.448476327569,1.0,0.0,0.0,0.0,1.0,0.0,0.0,0.0,1.0,-2.46806762695,-1.98786621094,7.39103027344,0.1,0.0,0.0,0.0,0.1,0.0,0.0,0.0,0.1
1452008908783149735,233,1452008908780062913,robocape,-3.02511741533,10.2470910726,-13.9060306653,0.0,10.0,0.0,0.0,0.0,10.0,0.0,0.0,0.0,10.0,1.02451807135,0.322908282172,-0.364453595177,1.0,0.0,0.0,0.0,1.0,0.0,0.0,0.0,1.0,-1.09572143555,-0.704135742188,9.61121337891,0.1,0.0,0.0,0.0,0.1,0.0,0.0,0.0,0.1
1452008908816834527,234,1452008908813376903,robocape,-0.915991896451,10.6962002807,-14.4954457207,0.0,10.0,0.0,0.0,0.0,10.0,0.0,0.0,0.0,10.0,1.16113823527,0.259658206283,-0.313454060302,1.0,0.0,0.0,0.0,1.0,0.0,0.0,0.0,1.0,-2.24293579102,-0.774788818359,9.38248901367,0.1,0.0,0.0,0.0,0.1,0.0,0.0,0.0,0.1
1452008908850917152,235,1452008908847506046,robocape,1.25153026239,11.2514646648,-14.941515125,0.0,10.0,0.0,0.0,0.0,10.0,0.0,0.0,0.0,10.0,1.18350878843,0.306929315632,-0.252201355231,1.0,0.0,0.0,0.0,1.0,0.0,0.0,0.0,1.0,-1.53401000977,-0.428708496094,7.33714233398,0.1,0.0,0.0,0.0,0.1,0.0,0.0,0.0,0.1
1452008908883794693,236,1452008908879957914,robocape,3.45739231913,12.1181593244,-15.4166015908,0.0,10.0,0.0,0.0,0.0,10.0,0.0,0.0,0.0,10.0,1.21506724735,0.466186348818,-0.291749297418,1.0,0.0,0.0,0.0,1.0,0.0,0.0,0.0,1.0,-1.26217529297,-0.468226318359,10.6015539551,0.1,0.0,0.0,0.0,0.1,0.0,0.0,0.0,0.1
1452008908919436027,237,1452008908916142940,robocape,5.91196913397,12.6871762832,-15.4435208791,0.0,10.0,0.0,0.0,0.0,10.0,0.0,0.0,0.0,10.0,1.30215261499,0.31811459221,-0.0669785014155,1.0,0.0,0.0,0.0,1.0,0.0,0.0,0.0,1.0,0.202379150391,-0.609532470703,9.14178955078,0.1,0.0,0.0,0.0,0.1,0.0,0.0,0.0,0.1
1452008908952865027,238,1452008908949351072,robocape,8.59639970862,13.4762705453,-15.2034966477,0.0,10.0,0.0,0.0,0.0,10.0,0.0,0.0,0.0,10.0,1.39935799478,0.452737385313,0.03488741028,1.0,0.0,0.0,0.0,1.0,0.0,0.0,0.0,1.0,0.307760009766,-0.223934326172,8.44244384766,0.1,0.0,0.0,0.0,0.1,0.0,0.0,0.0,0.1
1452008908985707443,239,1452008908982570886,robocape,11.5019981848,14.4482588826,-15.3546035453,0.0,10.0,0.0,0.0,0.0,10.0,0.0,0.0,0.0,10.0,1.58058610696,0.527572211945,-0.213984993588,1.0,0.0,0.0,0.0,1.0,0.0,0.0,0.0,1.0,2.93270141602,-0.174836425781,7.77303588867,0.1,0.0,0.0,0.0,0.1,0.0,0.0,0.0,0.1
1452008909018146735,240,1452008909014944076,robocape,14.400349037,15.3635596447,-14.5935506929,0.0,10.0,0.0,0.0,0.0,10.0,0.0,0.0,0.0,10.0,1.46101017402,0.593085974761,0.221708160749,1.0,0.0,0.0,0.0,1.0,0.0,0.0,0.0,1.0,0.232316894531,1.61903320313,7.95026733398,0.1,0.0,0.0,0.0,0.1,0.0,0.0,0.0,0.1
1452008909050514193,241,1452008909047261953,robocape,17.2674256527,16.4464258134,-13.7043590131,0.0,10.0,0.0,0.0,0.0,10.0,0.0,0.0,0.0,10.0,1.4367754081,0.716922965449,0.223039741294,1.0,0.0,0.0,0.0,1.0,0.0,0.0,0.0,1.0,1.49568969727,2.10043212891,8.42807373047,0.1,0.0,0.0,0.0,0.1,0.0,0.0,0.0,0.1
1452008909084715777,242,1452008909081676006,robocape,19.8721897968,17.6476704829,-12.7711523652,0.0,10.0,0.0,0.0,0.0,10.0,0.0,0.0,0.0,10.0,1.29988892807,0.803076226713,0.184956537706,1.0,0.0,0.0,0.0,1.0,0.0,0.0,0.0,1.0,5.08582397461,1.14242431641,9.56091796875,0.1,0.0,0.0,0.0,0.1,0.0,0.0,0.0,0.1
1452008909117522777,243,1452008909114087104,robocape,22.2739763192,19.1301375949,-11.3381999818,0.0,10.0,0.0,0.0,0.0,10.0,0.0,0.0,0.0,10.0,1.11266870344,1.04702178256,0.327302497971,1.0,0.0,0.0,0.0,1.0,0.0,0.0,0.0,1.0,0.729283447266,8.43046875,8.26640991211,0.1,0.0,0.0,0.0,0.1,0.0,0.0,0.0,0.1
1452008909153744110,244,1452008909150202035,robocape,23.524639233,20.1185806798,-9.33292954572,0.0,10.0,0.0,0.0,0.0,10.0,0.0,0.0,0.0,10.0,0.360858327706,0.905474770627,0.677375023262,1.0,0.0,0.0,0.0,1.0,0.0,0.0,0.0,1.0,0.950822753906,16.9627258301,9.76209960938,0.1,0.0,0.0,0.0,0.1,0.0,0.0,0.0,0.1
1452008909186363277,245,1452008909182887077,robocape,22.1376875578,20.6270504458,-7.18610409043,0.0,10.0,0.0,0.0,0.0,10.0,0.0,0.0,0.0,10.0,-1.13317504383,0.641422348546,0.876046840582,1.0,0.0,0.0,0.0,1.0,0.0,0.0,0.0,1.0,-5.31215332031,9.45194458008,10.8123156738,0.1,0.0,0.0,0.0,0.1,0.0,0.0,0.0,0.1
1452008909219918402,246,1452008909215717077,robocape,19.319770674,21.4082125046,-6.11742619999,0.0,10.0,0.0,0.0,0.0,10.0,0.0,0.0,0.0,10.0,-1.69829782714,0.545948023466,0.355132531362,1.0,0.0,0.0,0.0,1.0,0.0,0.0,0.0,1.0,4.96846801758,0.495769042969,9.22441772461,0.1,0.0,0.0,0.0,0.1,0.0,0.0,0.0,0.1
1452008909253547527,247,1452008909249840974,robocape,15.7949071036,21.4549678076,-4.58455375203,0.0,10.0,0.0,0.0,0.0,10.0,0.0,0.0,0.0,10.0,-2.17540313643,0.203598665337,0.723580868175,1.0,0.0,0.0,0.0,1.0,0.0,0.0,0.0,1.0,-5.2846105957,4.02842285156,7.98619262695,0.1,0.0,0.0,0.0,0.1,0.0,0.0,0.0,0.1
1452008909286941110,248,1452008909282938003,robocape,11.4399282102,21.6507870205,-3.5103076908,0.0,10.0,0.0,0.0,0.0,10.0,0.0,0.0,0.0,10.0,-2.51056195962,0.183225482997,0.497079017463,1.0,0.0,0.0,0.0,1.0,0.0,0.0,0.0,1.0,-1.93637329102,0.208366699219,3.31350952148,0.1,0.0,0.0,0.0,0.1,0.0,0.0,0.0,0.1
1452008909320528652,249,1452008909316019058,robocape,7.11438032717,20.454255453,-2.22335824114,0.0,10.0,0.0,0.0,0.0,10.0,0.0,0.0,0.0,10.0,-2.52547566172,-0.565122783315,0.732369299772,1.0,0.0,0.0,0.0,1.0,0.0,0.0,0.0,1.0,-3.15543823242,-0.0323327636719,8.0855859375,0.1,0.0,0.0,0.0,0.1,0.0,0.0,0.0,0.1
1452008909354390152,250,1452008909350642919,robocape,2.15604025297,18.629448376,-1.15389646149,0.0,10.0,0.0,0.0,0.0,10.0,0.0,0.0,0.0,10.0,-2.79019387408,-0.950615351104,0.608931783247,1.0,0.0,0.0,0.0,1.0,0.0,0.0,0.0,1.0,-2.63691650391,-1.62262573242,3.82963623047,0.1,0.0,0.0,0.0,0.1,0.0,0.0,0.0,0.1
1452008909386207485,251,1452008909382425069,robocape,-2.92527980473,17.0859155873,-0.889079653618,0.0,10.0,0.0,0.0,0.0,10.0,0.0,0.0,0.0,10.0,-2.70297534838,-0.821851512398,0.127565416215,1.0,0.0,0.0,0.0,1.0,0.0,0.0,0.0,1.0,1.90284301758,-2.25131835938,1.57352783203,0.1,0.0,0.0,0.0,0.1,0.0,0.0,0.0,0.1
1452008909420543652,252,1452008909416806936,robocape,-8.35241106724,15.3545180873,-1.06084468949,0.0,10.0,0.0,0.0,0.0,10.0,0.0,0.0,0.0,10.0,-2.82148601688,-0.889229487977,-0.175502315836,1.0,0.0,0.0,0.0,1.0,0.0,0.0,0.0,1.0,0.283809814453,-0.834664306641,4.33139282227,0.1,0.0,0.0,0.0,0.1,0.0,0.0,0.0,0.1
1452008909454445610,253,1452008909450721979,robocape,-13.8861193592,14.0774321912,-2.35721212129,0.0,10.0,0.0,0.0,0.0,10.0,0.0,0.0,0.0,10.0,-2.7538417252,-0.500940601044,-0.776844089976,1.0,0.0,0.0,0.0,1.0,0.0,0.0,0.0,1.0,3.87514160156,-19.62,12.7139611816,0.1,0.0,0.0,0.0,0.1,0.0,0.0,0.0,0.1
1452008909487530110,254,1452008909484262943,robocape,-13.2849192772,13.3352347863,-6.31984689027,0.0,10.0,0.0,0.0,0.0,10.0,0.0,0.0,0.0,10.0,0.802410436441,0.101066963369,-2.0531640424,1.0,0.0,0.0,0.0,1.0,0.0,0.0,0.0,1.0,19.6194012451,-14.9688720703,19.6194012451,0.1,0.0,0.0,0.0,0.1,0.0,0.0,0.0,0.1
1452008909520989360,255,1452008909517328023,robocape,-11.5989064861,14.5935425117,-7.00211830056,0.0,10.0,0.0,0.0,0.0,10.0,0.0,0.0,0.0,10.0,0.959536940756,0.731969825608,-0.201201820355,1.0,0.0,0.0,0.0,1.0,0.0,0.0,0.0,1.0,-3.48116088867,-2.6788293457,5.99114135742,0.1,0.0,0.0,0.0,0.1,0.0,0.0,0.0,0.1
1452008909552933485,256,1452008909549457073,robocape,-10.1524176357,14.8787954994,-7.61506447336,0.0,10.0,0.0,0.0,0.0,10.0,0.0,0.0,0.0,10.0,0.833169947031,0.215449732187,-0.28056402084,1.0,0.0,0.0,0.0,1.0,0.0,0.0,0.0,1.0,-4.40803344727,-1.06219116211,5.66541870117,0.1,0.0,0.0,0.0,0.1,0.0,0.0,0.0,0.1
1452008909586162944,257,1452008909582922935,robocape,-9.92636610756,15.1061487049,-7.80983764739,0.0,10.0,0.0,0.0,0.0,10.0,0.0,0.0,0.0,10.0,0.135288583376,0.151267549917,-0.0830906260105,1.0,0.0,0.0,0.0,1.0,0.0,0.0,0.0,1.0,-1.88607788086,2.8392956543,10.3800146484,0.1,0.0,0.0,0.0,0.1,0.0,0.0,0.0,0.1
1452008909619518444,258,1452008909616146087,robocape,-10.2101606661,14.980364861,-8.2177624055,0.0,10.0,0.0,0.0,0.0,10.0,0.0,0.0,0.0,10.0,-0.103197492241,-0.0113184346328,-0.222240792967,1.0,0.0,0.0,0.0,1.0,0.0,0.0,0.0,1.0,-0.681383056641,2.17108520508,9.18010986328,0.1,0.0,0.0,0.0,0.1,0.0,0.0,0.0,0.1
1452008909651798735,259,1452008909648519039,robocape,-10.8606866897,14.6639551059,-8.475949028,0.0,10.0,0.0,0.0,0.0,10.0,0.0,0.0,0.0,10.0,-0.316783011665,-0.121839619871,-0.166713884239,1.0,0.0,0.0,0.0,1.0,0.0,0.0,0.0,1.0,0.447868652344,2.02139648438,9.17891235352,0.1,0.0,0.0,0.0,0.1,0.0,0.0,0.0,0.1
1452008909685092110,260,1452008909681885004,robocape,-12.2062325487,14.2322044959,-8.8910005806,0.0,10.0,0.0,0.0,0.0,10.0,0.0,0.0,0.0,10.0,-0.665657114465,-0.158324926805,-0.261921893209,1.0,0.0,0.0,0.0,1.0,0.0,0.0,0.0,1.0,-1.90284301758,0.416733398438,10.8769812012,0.1,0.0,0.0,0.0,0.1,0.0,0.0,0.0,0.1
1452008909719122319,261,1452008909715977907,robocape,-14.5036540181,13.428406887,-10.5219750366,0.0,10.0,0.0,0.0,0.0,10.0,0.0,0.0,0.0,10.0,-1.02624912606,-0.186820750469,-0.92331794993,1.0,0.0,0.0,0.0,1.0,0.0,0.0,0.0,1.0,5.46184204102,-3.8703515625,11.419453125,0.1,0.0,0.0,0.0,0.1,0.0,0.0,0.0,0.1
1452008909751950860,262,1452008909748864889,robocape,-14.9431271135,13.0778542928,-12.8664101713,0.0,10.0,0.0,0.0,0.0,10.0,0.0,0.0,0.0,10.0,0.0256995045193,0.155395449606,-1.223988837,1.0,0.0,0.0,0.0,1.0,0.0,0.0,0.0,1.0,7.94068725586,-7.5143737793,17.1794750977,0.1,0.0,0.0,0.0,0.1,0.0,0.0,0.0,0.1
1452008909785686402,263,1452008909782680034,robocape,-14.7379704303,13.3332629332,-13.960664159,0.0,10.0,0.0,0.0,0.0,10.0,0.0,0.0,0.0,10.0,0.217846577168,0.296143513217,-0.523976944473,1.0,0.0,0.0,0.0,1.0,0.0,0.0,0.0,1.0,1.59388549805,-1.47892456055,9.55493041992,0.1,0.0,0.0,0.0,0.1,0.0,0.0,0.0,0.1
1452008909818235694,264,1452008909814908027,robocape,-14.4675151724,13.2598550226,-14.8068186495,0.0,10.0,0.0,0.0,0.0,10.0,0.0,0.0,0.0,10.0,0.226635008766,0.0918790576077,-0.44434842788,1.0,0.0,0.0,0.0,1.0,0.0,0.0,0.0,1.0,-2.00942138672,0.744851074219,9.93693603516,0.1,0.0,0.0,0.0,0.1,0.0,0.0,0.0,0.1
1452008909851645569,265,1452008909848570108,robocape,-15.120936297,12.8152844277,-15.4131241793,0.0,10.0,0.0,0.0,0.0,10.0,0.0,0.0,0.0,10.0,-0.2912166652,-0.122904884307,-0.380033087554,1.0,0.0,0.0,0.0,1.0,0.0,0.0,0.0,1.0,-0.851429443359,-0.791553955078,6.98627197266,0.1,0.0,0.0,0.0,0.1,0.0,0.0,0.0,0.1
1452008909884030319,266,1452008909880935907,robocape,-15.9101932437,12.4206894146,-16.9708505249,0.0,10.0,0.0,0.0,0.0,10.0,0.0,0.0,0.0,10.0,-0.266182950953,0.0472711093489,-0.856605764624,1.0,0.0,0.0,0.0,1.0,0.0,0.0,0.0,1.0,-1.32564331055,-2.95904663086,13.3881591797,0.1,0.0,0.0,0.0,0.1,0.0,0.0,0.0,0.1
1452008909919951527,267,1452008909916644096,robocape,-16.1077264822,12.4527651778,-17.94742123,0.0,10.0,0.0,0.0,0.0,10.0,0.0,0.0,0.0,10.0,-0.0198405501211,0.182293376616,-0.505867449061,1.0,0.0,0.0,0.0,1.0,0.0,0.0,0.0,1.0,0.553249511719,-1.56634277344,11.2350366211,0.1,0.0,0.0,0.0,0.1,0.0,0.0,0.0,0.1
1452008909951818819,268,1452008909948780059,robocape,-16.3632852517,12.2778414161,-18.9119458358,0.0,10.0,0.0,0.0,0.0,10.0,0.0,0.0,0.0,10.0,-0.0525974315291,0.0785632521573,-0.531833269689,1.0,0.0,0.0,0.0,1.0,0.0,0.0,0.0,1.0,-2.96742919922,-5.22234008789,10.6159240723,0.1,0.0,0.0,0.0,0.1,0.0,0.0,0.0,0.1
1452008909983586819,269,1452008909980458021,robocape,-16.4632361204,12.3453605531,-20.1477641564,0.0,10.0,0.0,0.0,0.0,10.0,0.0,0.0,0.0,10.0,0.0551274345646,0.24567661056,-0.635962868311,1.0,0.0,0.0,0.0,1.0,0.0,0.0,0.0,1.0,-0.0981958007813,-1.73399414063,11.9846777344,0.1,0.0,0.0,0.0,0.1,0.0,0.0,0.0,0.1
1452008910016566319,270,1452008910013545989,robocape,-16.761661757,11.9041124141,-21.1214875226,0.0,10.0,0.0,0.0,0.0,10.0,0.0,0.0,0.0,10.0,-0.0776311457758,-0.0490021640575,-0.582300172346,1.0,0.0,0.0,0.0,1.0,0.0,0.0,0.0,1.0,-0.0934057617188,-0.954415283203,8.14426391602,0.1,0.0,0.0,0.0,0.1,0.0,0.0,0.0,0.1
1452008910049635611,271,1452008910046601057,robocape,-16.8160566395,11.8989594551,-22.3050726772,0.0,10.0,0.0,0.0,0.0,10.0,0.0,0.0,0.0,10.0,0.0672448175245,0.206794458645,-0.627307594768,1.0,0.0,0.0,0.0,1.0,0.0,0.0,0.0,1.0,-0.184416503906,-0.222736816406,12.0289855957,0.1,0.0,0.0,0.0,0.1,0.0,0.0,0.0,0.1
1452008910083433902,272,1452008910080311059,robocape,-17.0399893621,11.774058895,-23.2618582783,0.0,10.0,0.0,0.0,0.0,10.0,0.0,0.0,0.0,10.0,-0.0463390029674,0.113850136601,-0.535561695215,1.0,0.0,0.0,0.0,1.0,0.0,0.0,0.0,1.0,2.86683837891,-2.14354248047,10.1812280273,0.1,0.0,0.0,0.0,0.1,0.0,0.0,0.0,0.1
1452008910116981152,273,1452008910113828897,robocape,-17.3200910132,11.5766989395,-24.3335874955,0.0,10.0,0.0,0.0,0.0,10.0,0.0,0.0,0.0,10.0,-0.0680437658515,0.100134856987,-0.609597573519,1.0,0.0,0.0,0.0,1.0,0.0,0.0,0.0,1.0,-1.31606323242,-4.69423828125,10.5309008789,0.1,0.0,0.0,0.0,0.1,0.0,0.0,0.0,0.1
1452008910149724902,274,1452008910146630048,robocape,-17.6343405339,11.5281464777,-25.0534432956,0.0,10.0,0.0,0.0,0.0,10.0,0.0,0.0,0.0,10.0,-0.122239094035,0.120774355435,-0.411724704526,1.0,0.0,0.0,0.0,1.0,0.0,0.0,0.0,1.0,-1.36156860352,-1.43102416992,11.4182556152,0.1,0.0,0.0,0.0,0.1,0.0,0.0,0.0,0.1
1452008910182970652,275,1452008910179873943,robocape,-17.7525841096,11.3615421292,-25.9552001998,0.0,10.0,0.0,0.0,0.0,10.0,0.0,0.0,0.0,10.0,-0.00253000303558,0.0929443220438,-0.523044838092,1.0,0.0,0.0,0.0,1.0,0.0,0.0,0.0,1.0,-0.150886230469,-2.28724365234,12.8492797852,0.1,0.0,0.0,0.0,0.1,0.0,0.0,0.0,0.1
1452008910216384694,276,1452008910213090896,robocape,-17.7553587671,11.3689817633,-27.0070580998,0.0,10.0,0.0,0.0,0.0,10.0,0.0,0.0,0.0,10.0,0.0700411366691,0.207327090863,-0.576041743784,1.0,0.0,0.0,0.0,1.0,0.0,0.0,0.0,1.0,1.49688720703,-1.16757202148,12.1906494141,0.1,0.0,0.0,0.0,0.1,0.0,0.0,0.0,0.1
1452008910249627736,277,1452008910246541976,robocape,-17.6619678142,11.4501515307,-28.633498542,0.0,10.0,0.0,0.0,0.0,10.0,0.0,0.0,0.0,10.0,0.17177389031,0.344746203111,-0.866592618712,1.0,0.0,0.0,0.0,1.0,0.0,0.0,0.0,1.0,3.32069458008,-0.289797363281,11.9774926758,0.1,0.0,0.0,0.0,0.1,0.0,0.0,0.0,0.1
1452008910282816736,278,1452008910279737949,robocape,-17.0946831543,11.8078247906,-30.7786915273,0.0,10.0,0.0,0.0,0.0,10.0,0.0,0.0,0.0,10.0,0.473243725707,0.568984366895,-1.10055132048,1.0,0.0,0.0,0.0,1.0,0.0,0.0,0.0,1.0,-4.11344604492,0.662222900391,12.4684716797,0.1,0.0,0.0,0.0,0.1,0.0,0.0,0.0,0.1
1452008910316435194,279,1452008910313224077,robocape,-16.8897335865,11.6913900634,-31.7540381889,0.0,10.0,0.0,0.0,0.0,10.0,0.0,0.0,0.0,10.0,0.176034948054,0.131426999795,-0.57590858573,1.0,0.0,0.0,0.0,1.0,0.0,0.0,0.0,1.0,2.08486450195,0.76640625,8.79570922852,0.1,0.0,0.0,0.0,0.1,0.0,0.0,0.0,0.1
1452008910349870027,280,1452008910346859931,robocape,-16.6855218464,11.5655882952,-33.0409337163,0.0,10.0,0.0,0.0,0.0,10.0,0.0,0.0,0.0,10.0,0.202267084792,0.179097583308,-0.749280372694,1.0,0.0,0.0,0.0,1.0,0.0,0.0,0.0,1.0,4.41282348633,-1.29810058594,10.6231091309,0.1,0.0,0.0,0.0,0.1,0.0,0.0,0.0,0.1
1452008910382814986,281,1452008910379779100,robocape,-16.2826798606,11.4990179291,-34.0852604022,0.0,10.0,0.0,0.0,0.0,10.0,0.0,0.0,0.0,10.0,0.284691920529,0.165515461748,-0.616521792353,1.0,0.0,0.0,0.0,1.0,0.0,0.0,0.0,1.0,0.130528564453,-0.0131726074219,11.2757519531,0.1,0.0,0.0,0.0,0.1,0.0,0.0,0.0,0.1
1452008910416610027,282,1452008910413523912,robocape,-15.7852544741,11.4478002823,-35.2655456792,0.0,10.0,0.0,0.0,0.0,10.0,0.0,0.0,0.0,10.0,0.346743573928,0.192413388758,-0.694152938129,1.0,0.0,0.0,0.0,1.0,0.0,0.0,0.0,1.0,-0.0742456054688,-0.752036132813,11.3667626953,0.1,0.0,0.0,0.0,0.1,0.0,0.0,0.0,0.1
1452008910449795027,283,1452008910446757078,robocape,-14.943233125,11.4622263149,-36.4009378683,0.0,10.0,0.0,0.0,0.0,10.0,0.0,0.0,0.0,10.0,0.5262406314,0.211055516389,-0.665124482247,1.0,0.0,0.0,0.0,1.0,0.0,0.0,0.0,1.0,-0.870589599609,-1.59867553711,10.2770288086,0.1,0.0,0.0,0.0,0.1,0.0,0.0,0.0,0.1
1452008910482938402,284,1452008910479922056,robocape,-13.7776333188,11.5896028991,-37.6615631189,0.0,10.0,0.0,0.0,0.0,10.0,0.0,0.0,0.0,10.0,0.711463485215,0.27790085975,-0.727042977592,1.0,0.0,0.0,0.0,1.0,0.0,0.0,0.0,1.0,-0.705333251953,-1.10051147461,12.8828100586,0.1,0.0,0.0,0.0,0.1,0.0,0.0,0.0,0.1
1452008910516651652,285,1452008910513447046,robocape,-12.2910672353,11.8453333494,-38.8136124315,0.0,10.0,0.0,0.0,0.0,10.0,0.0,0.0,0.0,10.0,0.875913682527,0.31545143112,-0.664192375866,1.0,0.0,0.0,0.0,1.0,0.0,0.0,0.0,1.0,-1.47652954102,-2.42854980469,9.26633056641,0.1,0.0,0.0,0.0,0.1,0.0,0.0,0.0,0.1
1452008910550595694,286,1452008910547523021,robocape,-10.4048219071,12.2152483017,-39.8891348781,0.0,10.0,0.0,0.0,0.0,10.0,0.0,0.0,0.0,10.0,1.08656972475,0.350072525291,-0.625310223951,1.0,0.0,0.0,0.0,1.0,0.0,0.0,0.0,1.0,-2.29802124023,-1.71842651367,10.3321142578,0.1,0.0,0.0,0.0,0.1,0.0,0.0,0.0,0.1
1452008910582775486,287,1452008910579767942,robocape,-8.06553047084,12.7517006315,-40.7268260534,0.0,10.0,0.0,0.0,0.0,10.0,0.0,0.0,0.0,10.0,1.3097426241,0.395079947713,-0.498543756063,1.0,0.0,0.0,0.0,1.0,0.0,0.0,0.0,1.0,1.33163085938,0.510139160156,11.4026879883,0.1,0.0,0.0,0.0,0.1,0.0,0.0,0.0,0.1
1452008910617659569,288,1452008910614450931,robocape,-6.03363980885,13.0516357111,-40.9500423701,0.0,10.0,0.0,0.0,0.0,10.0,0.0,0.0,0.0,10.0,1.08736867308,0.205596036154,-0.186421276306,1.0,0.0,0.0,0.0,1.0,0.0,0.0,0.0,1.0,1.11009155273,-0.633482666016,5.41992919922,0.1,0.0,0.0,0.0,0.1,0.0,0.0,0.0,0.1
1452008910649448028,289,1452008910646404981,robocape,-2.79468739846,14.0633231431,-41.5841845116,0.0,10.0,0.0,0.0,0.0,10.0,0.0,0.0,0.0,10.0,1.78192108537,0.609064941301,-0.426105774413,1.0,0.0,0.0,0.0,1.0,0.0,0.0,0.0,1.0,-1.66214355469,-0.398770751953,8.60530517578,0.1,0.0,0.0,0.0,0.1,0.0,0.0,0.0,0.1
1452008910682997444,290,1452008910679878950,robocape,0.203386134949,14.8871075994,-41.9246951263,0.0,10.0,0.0,0.0,0.0,10.0,0.0,0.0,0.0,10.0,1.63411564487,0.490154798629,-0.311723005594,1.0,0.0,0.0,0.0,1.0,0.0,0.0,0.0,1.0,2.78540771484,0.633482666016,7.30959960938,0.1,0.0,0.0,0.0,0.1,0.0,0.0,0.0,0.1
1452008910716362694,291,1452008910713095903,robocape,3.6078425403,16.136549522,-41.9305298221,0.0,10.0,0.0,0.0,0.0,10.0,0.0,0.0,0.0,10.0,1.81907218258,0.714792436577,-0.190149701832,1.0,0.0,0.0,0.0,1.0,0.0,0.0,0.0,1.0,0.0550854492188,1.28373046875,10.6506518555,0.1,0.0,0.0,0.0,0.1,0.0,0.0,0.0,0.1
1452008910749606778,292,1452008910746503114,robocape,7.09745648669,16.8690685419,-41.4381171789,0.0,10.0,0.0,0.0,0.0,10.0,0.0,0.0,0.0,10.0,1.79736741969,0.456066336676,0.0669785014155,1.0,0.0,0.0,0.0,1.0,0.0,0.0,0.0,1.0,3.62725708008,-0.0239501953125,6.33362915039,0.1,0.0,0.0,0.0,0.1,0.0,0.0,0.0,0.1
1452008910782839944,293,1452008910779716014,robocape,10.5693203569,18.0757754424,-40.2217970151,0.0,10.0,0.0,0.0,0.0,10.0,0.0,0.0,0.0,10.0,1.67699253842,0.764993023125,0.372975710666,1.0,0.0,0.0,0.0,1.0,0.0,0.0,0.0,1.0,0.581989746094,1.46215942383,8.62326782227,0.1,0.0,0.0,0.0,0.1,0.0,0.0,0.0,0.1
1452008910816568986,294,1452008910813143014,robocape,14.2365183173,19.6409280305,-38.8791769181,0.0,10.0,0.0,0.0,0.0,10.0,0.0,0.0,0.0,10.0,1.77513002459,1.00813963065,0.30333404816,1.0,0.0,0.0,0.0,1.0,0.0,0.0,0.0,1.0,4.70262084961,2.82372802734,7.06890014648,0.1,0.0,0.0,0.0,0.1,0.0,0.0,0.0,0.1
1452008910849805819,295,1452008910846436977,robocape,15.6010463158,20.8896969036,-36.8404926809,0.0,10.0,0.0,0.0,0.0,10.0,0.0,0.0,0.0,10.0,0.372842552611,0.910801092807,0.746350895495,1.0,0.0,0.0,0.0,1.0,0.0,0.0,0.0,1.0,-1.92200317383,19.6194012451,8.50471435547,0.1,0.0,0.0,0.0,0.1,0.0,0.0,0.0,0.1
1452008910883223069,296,1452008910879841089,robocape,13.714347155,22.4151368539,-34.851997458,0.0,10.0,0.0,0.0,0.0,10.0,0.0,0.0,0.0,10.0,-1.39589588537,0.997087512126,0.780838831611,1.0,0.0,0.0,0.0,1.0,0.0,0.0,0.0,1.0,-0.743653564453,6.91082885742,11.4541809082,0.1,0.0,0.0,0.0,0.1,0.0,0.0,0.0,0.1
1452008910918421653,297,1452008910915282011,robocape,11.469031176,22.790728566,-33.4061505682,0.0,10.0,0.0,0.0,0.0,10.0,0.0,0.0,0.0,10.0,-1.49549811013,0.314386166684,0.698547153928,1.0,0.0,0.0,0.0,1.0,0.0,0.0,0.0,1.0,-2.66086669922,2.53632568359,7.52515136719,0.1,0.0,0.0,0.0,0.1,0.0,0.0,0.0,0.1
1452008910952063944,298,1452008910949033021,robocape,9.0231189725,22.8440151835,-32.0992995408,0.0,10.0,0.0,0.0,0.0,10.0,0.0,0.0,0.0,10.0,-1.57179767536,0.107059075821,0.674179229954,1.0,0.0,0.0,0.0,1.0,0.0,0.0,0.0,1.0,-2.32077392578,0.136516113281,7.05932006836,0.1,0.0,0.0,0.0,0.1,0.0,0.0,0.0,0.1
1452008910983038486,299,1452008910979878902,robocape,6.54855643622,22.7745523808,-31.1908656238,0.0,10.0,0.0,0.0,0.0,10.0,0.0,0.0,0.0,10.0,-1.49283494904,0.0034621094171,0.472311619326,1.0,0.0,0.0,0.0,1.0,0.0,0.0,0.0,1.0,-3.23686889648,1.51005981445,9.3082434082,0.1,0.0,0.0,0.0,0.1,0.0,0.0,0.0,0.1
1452008911016543153,300,1452008911013211965,robocape,4.00505708359,22.8392444116,-30.7254623224,0.0,10.0,0.0,0.0,0.0,10.0,0.0,0.0,0.0,10.0,-1.42692171206,0.0535295379106,0.221974476858,1.0,0.0,0.0,0.0,1.0,0.0,0.0,0.0,1.0,0.746048583984,-0.0359252929688,10.7488476563,0.1,0.0,0.0,0.0,0.1,0.0,0.0,0.0,0.1
1452008911049659528,301,1452008911046622991,robocape,1.07277745483,22.5865905748,-30.7210155038,0.0,10.0,0.0,0.0,0.0,10.0,0.0,0.0,0.0,10.0,-1.53411394594,-0.124902255125,-0.00266316109008,1.0,0.0,0.0,0.0,1.0,0.0,0.0,0.0,1.0,2.17228271484,0.742456054688,9.42919189453,0.1,0.0,0.0,0.0,0.1,0.0,0.0,0.0,0.1
1452008911082950653,302,1452008911079932928,robocape,-2.02888668461,22.0334881559,-30.2584990843,0.0,10.0,0.0,0.0,0.0,10.0,0.0,0.0,0.0,10.0,-1.71747258699,-0.297208777653,0.229697644019,1.0,0.0,0.0,0.0,1.0,0.0,0.0,0.0,1.0,-0.834664306641,-1.21307739258,7.76944335938,0.1,0.0,0.0,0.0,0.1,0.0,0.0,0.0,0.1
1452008911116396986,303,1452008911113110065,robocape,-5.17416200847,21.3261563679,-29.923427919,0.0,10.0,0.0,0.0,0.0,10.0,0.0,0.0,0.0,10.0,-1.71201310676,-0.376171503974,0.13422331894,1.0,0.0,0.0,0.0,1.0,0.0,0.0,0.0,1.0,0.0934057617188,-0.126936035156,7.3227722168,0.1,0.0,0.0,0.0,0.1,0.0,0.0,0.0,0.1
1452008911149689194,304,1452008911146553993,robocape,-8.5850866809,20.4272269007,-29.5633005,0.0,10.0,0.0,0.0,0.0,10.0,0.0,0.0,0.0,10.0,-1.85502485729,-0.479102680105,0.105860653331,1.0,0.0,0.0,0.0,1.0,0.0,0.0,0.0,1.0,0.183218994141,-0.534089355469,5.54806274414,0.1,0.0,0.0,0.0,0.1,0.0,0.0,0.0,0.1
1452008911183107611,305,1452008911180001974,robocape,-11.9297072796,19.3648019589,-29.6480605554,0.0,10.0,0.0,0.0,0.0,10.0,0.0,0.0,0.0,10.0,-1.74556893649,-0.50999534875,-0.180162847744,1.0,0.0,0.0,0.0,1.0,0.0,0.0,0.0,1.0,-0.0419128417969,-0.607137451172,8.48555419922,0.1,0.0,0.0,0.0,0.1,0.0,0.0,0.0,0.1
1452008911217705028,306,1452008911214432001,robocape,-14.9387085546,18.3533768755,-30.1009676074,0.0,10.0,0.0,0.0,0.0,10.0,0.0,0.0,0.0,10.0,-1.52146393076,-0.412789968962,-0.408129437055,1.0,0.0,0.0,0.0,1.0,0.0,0.0,0.0,1.0,6.1731628418,-0.78556640625,7.95745239258,0.1,0.0,0.0,0.0,0.1,0.0,0.0,0.0,0.1
1452008911251053653,307,1452008911247981071,robocape,-17.8697775034,17.2551342641,-30.5181239237,0.0,10.0,0.0,0.0,0.0,10.0,0.0,0.0,0.0,10.0,-1.50268864508,-0.435160522119,-0.439954212081,1.0,0.0,0.0,0.0,1.0,0.0,0.0,0.0,1.0,5.74565185547,-1.79985717773,9.80880249023,0.1,0.0,0.0,0.0,0.1,0.0,0.0,0.0,0.1
1452008911284437820,308,1452008911281316995,robocape,-19.8878477366,16.5605153237,-32.6910101841,0.0,10.0,0.0,0.0,0.0,10.0,0.0,0.0,0.0,10.0,-0.797616746479,0.117445404072,-1.29842418947,1.0,0.0,0.0,0.0,1.0,0.0,0.0,0.0,1.0,3.26441162109,-13.3785791016,19.6194012451,0.1,0.0,0.0,0.0,0.1,0.0,0.0,0.0,0.1
1452008911317866028,309,1452008911314357042,robocape,-19.5194675903,16.4732862737,-35.1156665049,0.0,10.0,0.0,0.0,0.0,10.0,0.0,0.0,0.0,10.0,0.490687430847,0.471512670999,-1.30867735966,1.0,0.0,0.0,0.0,1.0,0.0,0.0,0.0,1.0,4.95769042969,-3.64162719727,11.2446166992,0.1,0.0,0.0,0.0,0.1,0.0,0.0,0.0,0.1
1452008911351103153,310,1452008911347958087,robocape,-18.2439020951,16.8193551183,-36.745355409,0.0,10.0,0.0,0.0,0.0,10.0,0.0,0.0,0.0,10.0,0.868723147584,0.517452199802,-0.834634685631,1.0,0.0,0.0,0.0,1.0,0.0,0.0,0.0,1.0,0.302969970703,-1.07775878906,12.0792810059,0.1,0.0,0.0,0.0,0.1,0.0,0.0,0.0,0.1
1452008911384492570,311,1452008911381360054,robocape,-16.9271759375,17.1033108098,-38.4539887786,0.0,10.0,0.0,0.0,0.0,10.0,0.0,0.0,0.0,10.0,0.909203196153,0.490287956684,-0.91000214448,1.0,0.0,0.0,0.0,1.0,0.0,0.0,0.0,1.0,2.43932739258,-1.3448034668,9.89143066406,0.1,0.0,0.0,0.0,0.1,0.0,0.0,0.0,0.1
1452008911418461278,312,1452008911415338993,robocape,-15.5795397877,17.4628890981,-39.5943730259,0.0,10.0,0.0,0.0,0.0,10.0,0.0,0.0,0.0,10.0,0.852611022989,0.418116291142,-0.619850743716,1.0,0.0,0.0,0.0,1.0,0.0,0.0,0.0,1.0,0.353265380859,0.217946777344,9.87107299805,0.1,0.0,0.0,0.0,0.1,0.0,0.0,0.0,0.1
1452008911451185570,313,1452008911448087930,robocape,-14.1165959733,17.912113149,-40.4090869689,0.0,10.0,0.0,0.0,0.0,10.0,0.0,0.0,0.0,10.0,0.872984205328,0.40266995682,-0.450207382278,1.0,0.0,0.0,0.0,1.0,0.0,0.0,0.0,1.0,3.17938842773,-1.57831787109,9.03042114258,0.1,0.0,0.0,0.0,0.1,0.0,0.0,0.0,0.1
1452008911486335320,314,1452008911482808113,robocape,-12.4332073829,18.3172805449,-41.1939357925,0.0,10.0,0.0,0.0,0.0,10.0,0.0,0.0,0.0,10.0,0.992293822164,0.368581494867,-0.454601598077,1.0,0.0,0.0,0.0,1.0,0.0,0.0,0.0,1.0,-4.27870239258,-2.05971679688,10.2123632813,0.1,0.0,0.0,0.0,0.1,0.0,0.0,0.0,0.1
1452008911519436778,315,1452008911514358997,robocape,-10.5672953045,18.7561277729,-41.854407834,0.0,10.0,0.0,0.0,0.0,10.0,0.0,0.0,0.0,10.0,1.07658287066,0.362589382414,-0.401737850438,1.0,0.0,0.0,0.0,1.0,0.0,0.0,0.0,1.0,-3.63324462891,-1.9579284668,8.88432495117,0.1,0.0,0.0,0.0,0.1,0.0,0.0,0.0,0.1
1452008911552659695,316,1452008911548960924,robocape,-8.70654448055,19.3286342188,-42.2474442621,0.0,10.0,0.0,0.0,0.0,10.0,0.0,0.0,0.0,10.0,1.03756756069,0.397077318531,-0.265250844572,1.0,0.0,0.0,0.0,1.0,0.0,0.0,0.0,1.0,-5.11695922852,-2.90396118164,8.51309692383,0.1,0.0,0.0,0.0,0.1,0.0,0.0,0.0,0.1
1452008911586829278,317,1452008911582998991,robocape,-6.31392287003,19.8816553509,-42.5221929771,0.0,10.0,0.0,0.0,0.0,10.0,0.0,0.0,0.0,10.0,1.30508209219,0.373375184829,-0.221974476858,1.0,0.0,0.0,0.0,1.0,0.0,0.0,0.0,1.0,-2.16150512695,0.444276123047,10.6925646973,0.1,0.0,0.0,0.0,0.1,0.0,0.0,0.0,0.1
1452008911620979070,318,1452008911617517948,robocape,-4.03312902052,20.5361687478,-42.4144080507,0.0,10.0,0.0,0.0,0.0,10.0,0.0,0.0,0.0,10.0,1.18484036898,0.398275741021,-0.0315584589174,1.0,0.0,0.0,0.0,1.0,0.0,0.0,0.0,1.0,0.744851074219,-0.299377441406,7.77183837891,0.1,0.0,0.0,0.0,0.1,0.0,0.0,0.0,0.1
1452008911653296611,319,1452008911650213003,robocape,-1.57176601978,21.2040752933,-42.2370085523,0.0,10.0,0.0,0.0,0.0,10.0,0.0,0.0,0.0,10.0,1.2743225816,0.411192072308,-0.0213052887206,1.0,0.0,0.0,0.0,1.0,0.0,0.0,0.0,1.0,-0.762813720703,0.878972167969,11.0386450195,0.1,0.0,0.0,0.0,0.1,0.0,0.0,0.0,0.1
1452008911686242361,320,1452008911683182001,robocape,0.955987531247,21.8492839975,-41.7448592724,0.0,10.0,0.0,0.0,0.0,10.0,0.0,0.0,0.0,10.0,1.25328360899,0.397077318531,0.125701203452,1.0,0.0,0.0,0.0,1.0,0.0,0.0,0.0,1.0,2.01540893555,0.510139160156,6.7060546875,0.1,0.0,0.0,0.0,0.1,0.0,0.0,0.0,0.1
1452008911719471903,321,1452008911715266942,robocape,3.2609788735,22.5806795481,-40.9421781251,0.0,10.0,0.0,0.0,0.0,10.0,0.0,0.0,0.0,10.0,1.07605023845,0.45233791115,0.268846112043,1.0,0.0,0.0,0.0,1.0,0.0,0.0,0.0,1.0,1.01788330078,1.96511352539,11.6266223145,0.1,0.0,0.0,0.0,0.1,0.0,0.0,0.0,0.1
1452008911754382611,322,1452008911750936031,robocape,5.18766255934,23.2646420977,-39.7820413703,0.0,10.0,0.0,0.0,0.0,10.0,0.0,0.0,0.0,10.0,0.797483588424,0.441019476517,0.451006330605,1.0,0.0,0.0,0.0,1.0,0.0,0.0,0.0,1.0,-0.156873779297,0.898132324219,6.90963134766,0.1,0.0,0.0,0.0,0.1,0.0,0.0,0.0,0.1
1452008911786655528,323,1452008911783020973,robocape,6.70689595729,24.2843764119,-38.8389095645,0.0,10.0,0.0,0.0,0.0,10.0,0.0,0.0,0.0,10.0,0.635163919984,0.63742760691,0.285224552747,1.0,0.0,0.0,0.0,1.0,0.0,0.0,0.0,1.0,1.01189575195,4.74692871094,11.2086914063,0.1,0.0,0.0,0.0,0.1,0.0,0.0,0.0,0.1
1452008911820616278,324,1452008911817064046,robocape,8.04300651223,24.8863249807,-37.4933425172,0.0,10.0,0.0,0.0,0.0,10.0,0.0,0.0,0.0,10.0,0.431698412702,0.43076630632,0.531433795525,1.0,0.0,0.0,0.0,1.0,0.0,0.0,0.0,1.0,-3.26201660156,0.330512695313,7.8137512207,0.1,0.0,0.0,0.0,0.1,0.0,0.0,0.0,0.1
1452008911853735153,325,1452008911850462913,robocape,9.13336359607,25.477415878,-36.2418482427,0.0,10.0,0.0,0.0,0.0,10.0,0.0,0.0,0.0,10.0,0.320644595246,0.433296309356,0.474308990143,1.0,0.0,0.0,0.0,1.0,0.0,0.0,0.0,1.0,-5.41274414063,3.1003527832,10.8566235352,0.1,0.0,0.0,0.0,0.1,0.0,0.0,0.0,0.1
1452008911885793570,326,1452008911882411003,robocape,9.7329816249,25.9315367144,-35.1026395986,0.0,10.0,0.0,0.0,0.0,10.0,0.0,0.0,0.0,10.0,0.0804274649204,0.356064637744,0.436358944609,1.0,0.0,0.0,0.0,1.0,0.0,0.0,0.0,1.0,-2.38184692383,1.04901855469,8.35861816406,0.1,0.0,0.0,0.0,0.1,0.0,0.0,0.0,0.1
1452008911956292820,327,1452008911916122913,robocape,10.5300506125,26.5328075571,-33.9965995338,0.0,10.0,0.0,0.0,0.0,10.0,0.0,0.0,0.0,10.0,0.195209707903,0.44554685037,0.386824148334,1.0,0.0,0.0,0.0,1.0,0.0,0.0,0.0,1.0,-1.18074462891,3.52546875,8.33107543945,0.1,0.0,0.0,0.0,0.1,0.0,0.0,0.0,0.1
1452008911974129070,328,1452008911970877885,robocape,10.532290046,27.2170377807,-33.0539364341,0.0,10.0,0.0,0.0,0.0,10.0,0.0,0.0,0.0,10.0,-0.191747598486,0.473110567653,0.306929315632,1.0,0.0,0.0,0.0,1.0,0.0,0.0,0.0,1.0,1.19391723633,3.07520507813,10.0483044434,0.1,0.0,0.0,0.0,0.1,0.0,0.0,0.0,0.1
1452008911995155070,329,1452008911992109060,robocape,10.1770356509,27.7958543419,-32.1803178911,0.0,10.0,0.0,0.0,0.0,10.0,0.0,0.0,0.0,10.0,-0.372576236502,0.405732592074,0.295477722944,1.0,0.0,0.0,0.0,1.0,0.0,0.0,0.0,1.0,-1.89805297852,2.38424194336,9.84353027344,0.1,0.0,0.0,0.0,0.1,0.0,0.0,0.0,0.1
1452008912019015778,330,1452008912015841007,robocape,9.9502362413,28.2594727334,-31.4572639576,0.0,10.0,0.0,0.0,0.0,10.0,0.0,0.0,0.0,10.0,-0.268846112043,0.337955142331,0.231961330946,1.0,0.0,0.0,0.0,1.0,0.0,0.0,0.0,1.0,1.71004394531,2.74109985352,10.8302783203,0.1,0.0,0.0,0.0,0.1,0.0,0.0,0.0,0.1
1452008912052184737,331,1452008912048628091,robocape,9.89769481288,28.6215481646,-30.3657620773,0.0,10.0,0.0,0.0,0.0,10.0,0.0,0.0,0.0,10.0,-0.281229811112,0.301336677342,0.426638406631,1.0,0.0,0.0,0.0,1.0,0.0,0.0,0.0,1.0,-1.839375,5.08462646484,13.0875842285,0.1,0.0,0.0,0.0,0.1,0.0,0.0,0.0,0.1
1452008912085451112,332,1452008912082319021,robocape,8.63571140606,28.8120146288,-29.2154966065,0.0,10.0,0.0,0.0,0.0,10.0,0.0,0.0,0.0,10.0,-0.952080089703,0.180429163853,0.509063242369,1.0,0.0,0.0,0.0,1.0,0.0,0.0,0.0,1.0,2.33873657227,1.81781982422,8.26760742188,0.1,0.0,0.0,0.0,0.1,0.0,0.0,0.0,0.1
1452008912118750278,333,1452008912115473985,robocape,6.66887496417,28.632182756,-28.3296635598,0.0,10.0,0.0,0.0,0.0,10.0,0.0,0.0,0.0,10.0,-1.26167256643,-0.0561926990007,0.435426838228,1.0,0.0,0.0,0.0,1.0,0.0,0.0,0.0,1.0,-2.82492553711,3.59731933594,10.060279541,0.1,0.0,0.0,0.0,0.1,0.0,0.0,0.0,0.1
1452008912151916862,334,1452008912148761987,robocape,4.10963235378,28.4752401749,-28.1432724914,0.0,10.0,0.0,0.0,0.0,10.0,0.0,0.0,0.0,10.0,-1.38590903128,-0.0713727172141,0.0904143190082,1.0,0.0,0.0,0.0,1.0,0.0,0.0,0.0,1.0,2.36867431641,4.38288574219,11.1811486816,0.1,0.0,0.0,0.0,0.1,0.0,0.0,0.0,0.1
1452008912184156778,335,1452008912180990934,robocape,1.12732734637,27.3481236019,-27.805584907,0.0,10.0,0.0,0.0,0.0,10.0,0.0,0.0,0.0,10.0,-1.65462198527,-0.614923895699,0.218379209386,1.0,0.0,0.0,0.0,1.0,0.0,0.0,0.0,1.0,3.68833007813,-1.28133544922,6.68210449219,0.1,0.0,0.0,0.0,0.1,0.0,0.0,0.0,0.1
1452008912217239237,336,1452008912214205026,robocape,-0.233751479697,27.0525392039,-27.8522796073,0.0,10.0,0.0,0.0,0.0,10.0,0.0,0.0,0.0,10.0,-0.694286096184,-0.125434887343,-0.051532167093,1.0,0.0,0.0,0.0,1.0,0.0,0.0,0.0,1.0,0.201181640625,-1.64897094727,12.681628418,0.1,0.0,0.0,0.0,0.1,0.0,0.0,0.0,0.1
1452008912250981362,337,1452008912247920036,robocape,-0.497403067063,26.9077785165,-28.6042940337,0.0,10.0,0.0,0.0,0.0,10.0,0.0,0.0,0.0,10.0,0.0565921731642,-0.00772316716123,-0.420912610287,1.0,0.0,0.0,0.0,1.0,0.0,0.0,0.0,1.0,2.34472412109,-5.22832763672,9.11185180664,0.1,0.0,0.0,0.0,0.1,0.0,0.0,0.0,0.1
1452008912283633570,338,1452008912280510902,robocape,0.593584528206,27.0006196817,-29.494882003,0.0,10.0,0.0,0.0,0.0,10.0,0.0,0.0,0.0,10.0,0.808269390839,0.13688648003,-0.511593245404,1.0,0.0,0.0,0.0,1.0,0.0,0.0,0.0,1.0,0.524509277344,-4.21762939453,9.44356201172,0.1,0.0,0.0,0.0,0.1,0.0,0.0,0.0,0.1
1452008912316854070,339,1452008912313797950,robocape,2.8882800738,27.4761995665,-30.2361414603,0.0,10.0,0.0,0.0,0.0,10.0,0.0,0.0,0.0,10.0,1.42119591572,0.349539893073,-0.476306360961,1.0,0.0,0.0,0.0,1.0,0.0,0.0,0.0,1.0,-0.893342285156,-3.42966796875,6.18394042969,0.1,0.0,0.0,0.0,0.1,0.0,0.0,0.0,0.1
1452008912350032487,340,1452008912346887111,robocape,6.68268296942,28.2378478137,-29.6621062265,0.0,10.0,0.0,0.0,0.0,10.0,0.0,0.0,0.0,10.0,1.89896701528,0.524243260582,0.1153148752,1.0,0.0,0.0,0.0,1.0,0.0,0.0,0.0,1.0,-4.09787841797,-2.529140625,6.5180456543,0.1,0.0,0.0,0.0,0.1,0.0,0.0,0.0,0.1
1452008912383100403,341,1452008912380065917,robocape,11.2325738663,29.6095486037,-29.2950799948,0.0,10.0,0.0,0.0,0.0,10.0,0.0,0.0,0.0,10.0,2.40177182909,0.905741086736,-0.135821215594,1.0,0.0,0.0,0.0,1.0,0.0,0.0,0.0,1.0,-3.9122644043,2.78780273438,5.28221557617,0.1,0.0,0.0,0.0,0.1,0.0,0.0,0.0,0.1
1452008912416848653,342,1452008912413687944,robocape,14.2265462934,32.1769165358,-28.4349222971,0.0,10.0,0.0,0.0,0.0,10.0,0.0,0.0,0.0,10.0,1.48737546881,1.60522034705,-0.146740176063,1.0,0.0,0.0,0.0,1.0,0.0,0.0,0.0,1.0,3.90986938477,13.9450012207,4.43916870117,0.1,0.0,0.0,0.0,0.1,0.0,0.0,0.0,0.1
1452008912449685237,343,1452008912446670055,robocape,12.5861915399,32.3226216252,-26.3435342141,0.0,10.0,0.0,0.0,0.0,10.0,0.0,0.0,0.0,10.0,-1.47938598554,0.235157124254,0.940095864798,1.0,0.0,0.0,0.0,1.0,0.0,0.0,0.0,1.0,-6.94555664063,18.0021643066,13.2360754395,0.1,0.0,0.0,0.0,0.1,0.0,0.0,0.0,0.1
1452008912482921695,344,1452008912479922056,robocape,9.2517340146,32.6045081338,-24.2122194031,0.0,10.0,0.0,0.0,0.0,10.0,0.0,0.0,0.0,10.0,-2.39138550084,0.236089230636,0.978844858659,1.0,0.0,0.0,0.0,1.0,0.0,0.0,0.0,1.0,2.5638684082,5.8210949707,8.33706298828,0.1,0.0,0.0,0.0,0.1,0.0,0.0,0.0,0.1
1452008912516469320,345,1452008912513355016,robocape,4.72358028137,32.2504008265,-22.3277923827,0.0,10.0,0.0,0.0,0.0,10.0,0.0,0.0,0.0,10.0,-2.94159458205,-0.195342865957,0.942359551725,1.0,0.0,0.0,0.0,1.0,0.0,0.0,0.0,1.0,-5.91090820313,1.27654541016,4.72776855469,0.1,0.0,0.0,0.0,0.1,0.0,0.0,0.0,0.1
1452008912549577112,346,1452008912546551942,robocape,-0.27784285117,31.3665945421,-21.7026563343,0.0,10.0,0.0,0.0,0.0,10.0,0.0,0.0,0.0,10.0,-2.80630599867,-0.520781151165,0.347542522255,1.0,0.0,0.0,0.0,1.0,0.0,0.0,0.0,1.0,-1.50167724609,-3.92902954102,2.19024536133,0.1,0.0,0.0,0.0,0.1,0.0,0.0,0.0,0.1
1452008912582869112,347,1452008912579833030,robocape,-4.30557362946,30.1952953466,-22.1263853647,0.0,10.0,0.0,0.0,0.0,10.0,0.0,0.0,0.0,10.0,-1.99670502729,-0.614524421536,-0.208658671408,1.0,0.0,0.0,0.0,1.0,0.0,0.0,0.0,1.0,1.00351318359,-3.88831420898,9.44954956055,0.1,0.0,0.0,0.0,0.1,0.0,0.0,0.0,0.1
1452008912616295320,348,1452008912613126039,robocape,-6.7113663887,29.0489452483,-23.5469092021,0.0,10.0,0.0,0.0,0.0,10.0,0.0,0.0,0.0,10.0,-0.892025807122,-0.492684801665,-0.732768773935,1.0,0.0,0.0,0.0,1.0,0.0,0.0,0.0,1.0,5.83905761719,-5.01277587891,9.09628417969,0.1,0.0,0.0,0.0,0.1,0.0,0.0,0.0,0.1
1452008912649752070,349,1452008912646642923,robocape,-7.07453138363,28.5656273836,-24.9658916497,0.0,10.0,0.0,0.0,0.0,10.0,0.0,0.0,0.0,10.0,0.167379674511,-0.0997353828235,-0.732635615881,1.0,0.0,0.0,0.0,1.0,0.0,0.0,0.0,1.0,2.43812988281,-3.38655761719,12.7870092773,0.1,0.0,0.0,0.0,0.1,0.0,0.0,0.0,0.1
1452008912683702070,350,1452008912680630922,robocape,-6.23605283379,28.6655712823,-26.3619065159,0.0,10.0,0.0,0.0,0.0,10.0,0.0,0.0,0.0,10.0,0.791890950135,0.221708160749,-0.707601901634,1.0,0.0,0.0,0.0,1.0,0.0,0.0,0.0,1.0,0.923280029297,1.11248657227,11.9236047363,0.1,0.0,0.0,0.0,0.1,0.0,0.0,0.0,0.1
1452008912716495529,351,1452008912713255882,robocape,-5.10550768954,28.6769539394,-26.243846724,0.0,10.0,0.0,0.0,0.0,10.0,0.0,0.0,0.0,10.0,0.565122783315,0.0516653251475,0.0127831732324,1.0,0.0,0.0,0.0,1.0,0.0,0.0,0.0,1.0,2.30640380859,3.48475341797,8.51668945313,0.1,0.0,0.0,0.0,0.1,0.0,0.0,0.0,0.1
1452008912749769279,352,1452008912746696949,robocape,-4.88212005627,29.0675019167,-25.5045988209,0.0,10.0,0.0,0.0,0.0,10.0,0.0,0.0,0.0,10.0,-0.067644291688,0.21877868355,0.319712488864,1.0,0.0,0.0,0.0,1.0,0.0,0.0,0.0,1.0,2.34951416016,9.47349975586,15.3868029785,0.1,0.0,0.0,0.0,0.1,0.0,0.0,0.0,0.1
1452008912783277820,353,1452008912780224084,robocape,-7.47362109034,28.6801932607,-24.3310743302,0.0,10.0,0.0,0.0,0.0,10.0,0.0,0.0,0.0,10.0,-1.65395619499,-0.2616555771,0.514922196767,1.0,0.0,0.0,0.0,1.0,0.0,0.0,0.0,1.0,-2.85845581055,-0.548459472656,2.67523681641,0.1,0.0,0.0,0.0,0.1,0.0,0.0,0.0,0.1
1452008912816463820,354,1452008912813342094,robocape,-8.46543345364,28.2491523676,-23.8781075207,0.0,10.0,0.0,0.0,0.0,10.0,0.0,0.0,0.0,10.0,-0.634364971657,-0.227034482929,0.156460714042,1.0,0.0,0.0,0.0,1.0,0.0,0.0,0.0,1.0,1.84177001953,1.03704345703,15.7125256348,0.1,0.0,0.0,0.0,0.1,0.0,0.0,0.0,0.1
1452008912849853695,355,1452008912846822977,robocape,-11.1426017058,27.1204945812,-23.4397522825,0.0,10.0,0.0,0.0,0.0,10.0,0.0,0.0,0.0,10.0,-1.51041181224,-0.607733360756,0.0926780059348,1.0,0.0,0.0,0.0,1.0,0.0,0.0,0.0,1.0,1.86212768555,-1.76512939453,6.35638183594,0.1,0.0,0.0,0.0,0.1,0.0,0.0,0.0,0.1
1452008912884769695,356,1452008912881719112,robocape,-11.7499993213,26.4285444699,-24.2947254805,0.0,10.0,0.0,0.0,0.0,10.0,0.0,0.0,0.0,10.0,-0.126366993724,-0.223838689621,-0.502405339643,1.0,0.0,0.0,0.0,1.0,0.0,0.0,0.0,1.0,1.90044799805,-3.13747558594,16.2466149902,0.1,0.0,0.0,0.0,0.1,0.0,0.0,0.0,0.1
1452008912919152070,357,1452008912915999889,robocape,-11.8052315438,26.212265042,-25.8382649168,0.0,10.0,0.0,0.0,0.0,10.0,0.0,0.0,0.0,10.0,0.314652482793,0.118377510454,-0.796551482043,1.0,0.0,0.0,0.0,1.0,0.0,0.0,0.0,1.0,1.9890637207,-3.27159667969,12.431348877,0.1,0.0,0.0,0.0,0.1,0.0,0.0,0.0,0.1
1452008912950515862,358,1452008912947407007,robocape,-10.6883326494,26.2150557855,-27.1104814918,0.0,10.0,0.0,0.0,0.0,10.0,0.0,0.0,0.0,10.0,0.868723147584,0.194277601521,-0.649411831816,1.0,0.0,0.0,0.0,1.0,0.0,0.0,0.0,1.0,0.486188964844,-1.31606323242,9.03042114258,0.1,0.0,0.0,0.0,0.1,0.0,0.0,0.0,0.1
1452008912982707904,359,1452008912979695081,robocape,-9.29794693355,26.2206580088,-26.715672377,0.0,10.0,0.0,0.0,0.0,10.0,0.0,0.0,0.0,10.0,0.633432865275,0.00186421276306,0.156727030151,1.0,0.0,0.0,0.0,1.0,0.0,0.0,0.0,1.0,-0.718505859375,2.51357299805,8.41969116211,0.1,0.0,0.0,0.0,0.1,0.0,0.0,0.0,0.1
1452008913016316779,360,1452008913013070106,robocape,-9.79139150722,26.1358910875,-26.1884947337,0.0,10.0,0.0,0.0,0.0,10.0,0.0,0.0,0.0,10.0,-0.384294145298,-0.0527305895836,0.209457619735,1.0,0.0,0.0,0.0,1.0,0.0,0.0,0.0,1.0,-2.33514404297,3.24046142578,5.3995715332,0.1,0.0,0.0,0.0,0.1,0.0,0.0,0.0,0.1
1452008913049579987,361,1452008913046495914,robocape,-11.5540297824,25.7644599852,-25.2823555063,0.0,10.0,0.0,0.0,0.0,10.0,0.0,0.0,0.0,10.0,-1.13450662437,-0.251402406903,0.367649388485,1.0,0.0,0.0,0.0,1.0,0.0,0.0,0.0,1.0,-3.37458251953,2.97102172852,8.15264648438,0.1,0.0,0.0,0.0,0.1,0.0,0.0,0.0,0.1
1452008913082774779,362,1452008913079766988,robocape,-14.4798624803,24.8260615851,-24.6250698331,0.0,10.0,0.0,0.0,0.0,10.0,0.0,0.0,0.0,10.0,-1.6867130764,-0.526506947509,0.174170735291,1.0,0.0,0.0,0.0,1.0,0.0,0.0,0.0,1.0,2.17467773438,-1.05620361328,7.25092163086,0.1,0.0,0.0,0.0,0.1,0.0,0.0,0.0,0.1
1452008913116547945,363,1452008913113100051,robocape,-16.9631959691,23.9325461001,-25.5679914161,0.0,10.0,0.0,0.0,0.0,10.0,0.0,0.0,0.0,10.0,-1.12518556056,-0.257394519356,-0.618386005116,1.0,0.0,0.0,0.0,1.0,0.0,0.0,0.0,1.0,1.23463256836,-2.25131835938,12.3774609375,0.1,0.0,0.0,0.0,0.1,0.0,0.0,0.0,0.1
1452008913149506529,364,1452008913146344900,robocape,-18.0861444837,23.3105277891,-27.6357307231,0.0,10.0,0.0,0.0,0.0,10.0,0.0,0.0,0.0,10.0,-0.195742340121,0.0868190515366,-1.12957977636,1.0,0.0,0.0,0.0,1.0,0.0,0.0,0.0,1.0,0.965192871094,-2.85725830078,19.3625354004,0.1,0.0,0.0,0.0,0.1,0.0,0.0,0.0,0.1
1452008913183213112,365,1452008913179786920,robocape,-17.8743004866,23.2940127452,-29.7787735239,0.0,10.0,0.0,0.0,0.0,10.0,0.0,0.0,0.0,10.0,0.513457458167,0.414654181725,-1.07897971565,1.0,0.0,0.0,0.0,1.0,0.0,0.0,0.0,1.0,3.88951171875,-3.93501708984,13.0564489746,0.1,0.0,0.0,0.0,0.1,0.0,0.0,0.0,0.1
1452008913216666904,366,1452008913213053941,robocape,-15.6475525492,23.6810189393,-31.6248841626,0.0,10.0,0.0,0.0,0.0,10.0,0.0,0.0,0.0,10.0,1.52572498851,0.536227485487,-0.874182627819,1.0,0.0,0.0,0.0,1.0,0.0,0.0,0.0,1.0,-0.886157226563,-2.1076171875,11.6936828613,0.1,0.0,0.0,0.0,0.1,0.0,0.0,0.0,0.1
1452008913249884237,367,1452008913246448040,robocape,-13.0784790844,24.2088053054,-32.356650657,0.0,10.0,0.0,0.0,0.0,10.0,0.0,0.0,0.0,10.0,1.48790810103,0.417716816979,-0.334892507077,1.0,0.0,0.0,0.0,1.0,0.0,0.0,0.0,1.0,0.0467028808594,-0.556842041016,8.20533691406,0.1,0.0,0.0,0.0,0.1,0.0,0.0,0.0,0.1
1452008913282993070,368,1452008913279752969,robocape,-10.9159595162,24.8534152201,-32.5822887194,0.0,10.0,0.0,0.0,0.0,10.0,0.0,0.0,0.0,10.0,1.17352193434,0.414654181725,-0.100134856987,1.0,0.0,0.0,0.0,1.0,0.0,0.0,0.0,1.0,0.552052001953,2.79618530273,6.99225952148,0.1,0.0,0.0,0.0,0.1,0.0,0.0,0.0,0.1
1452008913317169737,369,1452008913313209056,robocape,-9.83076899526,25.25739061,-32.0869621068,0.0,10.0,0.0,0.0,0.0,10.0,0.0,0.0,0.0,10.0,0.454468440022,0.207593406972,0.224770796003,1.0,0.0,0.0,0.0,1.0,0.0,0.0,0.0,1.0,-1.02387084961,4.89901245117,8.05445068359,0.1,0.0,0.0,0.0,0.1,0.0,0.0,0.0,0.1
1452008913349926737,370,1452008913346899986,robocape,-10.1173167673,25.1475294836,-31.2953677061,0.0,10.0,0.0,0.0,0.0,10.0,0.0,0.0,0.0,10.0,-0.329033552679,-0.0988032764419,0.335158823186,1.0,0.0,0.0,0.0,1.0,0.0,0.0,0.0,1.0,0.771196289063,3.93142456055,7.13356567383,0.1,0.0,0.0,0.0,0.1,0.0,0.0,0.0,0.1
1452008913382920112,371,1452008913379849910,robocape,-11.6214684413,24.6792601365,-30.6814560977,0.0,10.0,0.0,0.0,0.0,10.0,0.0,0.0,0.0,10.0,-0.927046375457,-0.272441379515,0.215449732187,1.0,0.0,0.0,0.0,1.0,0.0,0.0,0.0,1.0,0.549656982422,2.50040039063,8.61608276367,0.1,0.0,0.0,0.0,0.1,0.0,0.0,0.0,0.1
1452008913416655862,372,1452008913413364887,robocape,-13.5468372926,24.0747375125,-30.5660089725,0.0,10.0,0.0,0.0,0.0,10.0,0.0,0.0,0.0,10.0,-1.04329335704,-0.279631914458,-0.0584563859272,1.0,0.0,0.0,0.0,1.0,0.0,0.0,0.0,1.0,0.955612792969,-2.22736816406,11.8613342285,0.1,0.0,0.0,0.0,0.1,0.0,0.0,0.0,0.1
1452008913449659279,373,1452008913446624994,robocape,-14.8502721275,22.9902110296,-31.3759523966,0.0,10.0,0.0,0.0,0.0,10.0,0.0,0.0,0.0,10.0,-0.530368531089,-0.39587889604,-0.580169643474,1.0,0.0,0.0,0.0,1.0,0.0,0.0,0.0,1.0,-0.821491699219,-8.07600585937,14.2826989746,0.1,0.0,0.0,0.0,0.1,0.0,0.0,0.0,0.1
1452008913482899862,374,1452008913479876041,robocape,-14.1929956968,23.1570938507,-32.986218877,0.0,10.0,0.0,0.0,0.0,10.0,0.0,0.0,0.0,10.0,0.64954498987,0.378302032846,-0.837164688666,1.0,0.0,0.0,0.0,1.0,0.0,0.0,0.0,1.0,1.73758666992,-5.1768347168,13.6743640137,0.1,0.0,0.0,0.0,0.1,0.0,0.0,0.0,0.1
1452008913517616737,375,1452008913514365911,robocape,-11.6094396351,23.3829484168,-34.3616892976,0.0,10.0,0.0,0.0,0.0,10.0,0.0,0.0,0.0,10.0,1.62546037133,0.345944625601,-0.713327697978,1.0,0.0,0.0,0.0,1.0,0.0,0.0,0.0,1.0,0.828676757813,-3.43805053711,8.32269287109,0.1,0.0,0.0,0.0,0.1,0.0,0.0,0.0,0.1
1452008913550944946,376,1452008913547844886,robocape,-8.71487782935,24.2027862744,-34.7249817269,0.0,10.0,0.0,0.0,0.0,10.0,0.0,0.0,0.0,10.0,1.58950769661,0.525175366964,-0.180162847744,1.0,0.0,0.0,0.0,1.0,0.0,0.0,0.0,1.0,-2.15671508789,0.464633789063,8.71547607422,0.1,0.0,0.0,0.0,0.1,0.0,0.0,0.0,0.1
1452008913584276071,377,1452008913581144094,robocape,-6.40540295742,24.8345263737,-33.8448210191,0.0,10.0,0.0,0.0,0.0,10.0,0.0,0.0,0.0,10.0,1.01919174917,0.306929315632,0.41864892336,1.0,0.0,0.0,0.0,1.0,0.0,0.0,0.0,1.0,1.84656005859,5.33969604492,5.07504638672,0.1,0.0,0.0,0.0,0.1,0.0,0.0,0.0,0.1
1452008913616712904,378,1452008913613480091,robocape,-6.66204063237,25.5019765406,-33.1106105018,0.0,10.0,0.0,0.0,0.0,10.0,0.0,0.0,0.0,10.0,-0.296809303489,0.350205683345,0.335291981241,1.0,0.0,0.0,0.0,1.0,0.0,0.0,0.0,1.0,-2.10282714844,5.64386352539,8.1622265625,0.1,0.0,0.0,0.0,0.1,0.0,0.0,0.0,0.1
1452008913650198071,379,1452008913647074937,robocape,-7.45155056041,24.8051311092,-32.2991600554,0.0,10.0,0.0,0.0,0.0,10.0,0.0,0.0,0.0,10.0,-0.594018081142,-0.405199959856,0.331963029878,1.0,0.0,0.0,0.0,1.0,0.0,0.0,0.0,1.0,-3.36260742188,-9.196875,12.2337597656,0.1,0.0,0.0,0.0,0.1,0.0,0.0,0.0,0.1
1452008913683171446,380,1452008913679858922,robocape,-9.15224354646,22.7423354039,-30.9562820501,0.0,10.0,0.0,0.0,0.0,10.0,0.0,0.0,0.0,10.0,-1.17005982493,-1.20441460299,0.532632218016,1.0,0.0,0.0,0.0,1.0,0.0,0.0,0.0,1.0,-0.21076171875,6.26776611328,14.2850939941,0.1,0.0,0.0,0.0,0.1,0.0,0.0,0.0,0.1
1452008913716521946,381,1452008913713329076,robocape,-13.6407401471,23.0765792994,-29.2440185859,0.0,10.0,0.0,0.0,0.0,10.0,0.0,0.0,0.0,10.0,-2.70417377087,0.0185089695761,0.833835737304,1.0,0.0,0.0,0.0,1.0,0.0,0.0,0.0,1.0,7.84967651367,-11.0386450195,-2.22018310547,0.1,0.0,0.0,0.0,0.1,0.0,0.0,0.0,0.1
1452008913750343196,382,1452008913747350931,robocape,-12.1909554595,23.1485307169,-30.1752223329,0.0,10.0,0.0,0.0,0.0,10.0,0.0,0.0,0.0,10.0,0.937299545653,0.199603923701,-0.492951117774,1.0,0.0,0.0,0.0,1.0,0.0,0.0,0.0,1.0,-0.771196289063,-2.97940429688,12.6037902832,0.1,0.0,0.0,0.0,0.1,0.0,0.0,0.0,0.1
1452008913783060737,383,1452008913779993057,robocape,-10.3178281523,23.6232145878,-31.6496332873,0.0,10.0,0.0,0.0,0.0,10.0,0.0,0.0,0.0,10.0,1.27605363631,0.472977409598,-0.744486682732,1.0,0.0,0.0,0.0,1.0,0.0,0.0,0.0,1.0,6.84736083984,-6.054609375,9.06514892578,0.1,0.0,0.0,0.0,0.1,0.0,0.0,0.0,0.1
1452008913816760571,384,1452008913813620090,robocape,-6.23272426948,24.3801942068,-32.6163669461,0.0,10.0,0.0,0.0,0.0,10.0,0.0,0.0,0.0,10.0,2.34890808145,0.542485914049,-0.494149540264,1.0,0.0,0.0,0.0,1.0,0.0,0.0,0.0,1.0,0.267044677734,-2.70277954102,6.34320922852,0.1,0.0,0.0,0.0,0.1,0.0,0.0,0.0,0.1
1452008913850114279,385,1452008913847043037,robocape,-1.99788788327,25.1510588779,-32.0286033599,0.0,10.0,0.0,0.0,0.0,10.0,0.0,0.0,0.0,10.0,2.09936988731,0.437823683209,0.24421187196,1.0,0.0,0.0,0.0,1.0,0.0,0.0,0.0,1.0,1.9124230957,1.35318603516,3.23088134766,0.1,0.0,0.0,0.0,0.1,0.0,0.0,0.0,0.1
1452008913882892571,386,1452008913879822969,robocape,0.883234921501,26.5171518132,-30.8194729011,0.0,10.0,0.0,0.0,0.0,10.0,0.0,0.0,0.0,10.0,1.25088676401,0.774447244995,0.503337446025,1.0,0.0,0.0,0.0,1.0,0.0,0.0,0.0,1.0,1.17834960938,11.1404333496,10.3692370605,0.1,0.0,0.0,0.0,0.1,0.0,0.0,0.0,0.1
1452008913918617321,387,1452008913915318965,robocape,1.14324898998,27.9090534111,-29.2799479833,0.0,10.0,0.0,0.0,0.0,10.0,0.0,0.0,0.0,10.0,-0.220376580204,0.784833573246,0.657001840923,1.0,0.0,0.0,0.0,1.0,0.0,0.0,0.0,1.0,-0.872984619141,10.6602319336,11.250604248,0.1,0.0,0.0,0.0,0.1,0.0,0.0,0.0,0.1
1452008913949510612,388,1452008913946511983,robocape,-0.606935484971,28.5961692387,-27.8416739906,0.0,10.0,0.0,0.0,0.0,10.0,0.0,0.0,0.0,10.0,-1.27125994635,0.371510972066,0.653273415396,1.0,0.0,0.0,0.0,1.0,0.0,0.0,0.0,1.0,-4.12063110352,6.0198815918,9.87466552734,0.1,0.0,0.0,0.0,0.1,0.0,0.0,0.0,0.1
1452008913982925154,389,1452008913979917049,robocape,-3.23741732028,28.402780817,-27.1100173798,0.0,10.0,0.0,0.0,0.0,10.0,0.0,0.0,0.0,10.0,-1.56021292462,-0.110521185238,0.331297239606,1.0,0.0,0.0,0.0,1.0,0.0,0.0,0.0,1.0,-0.328117675781,0.285007324219,8.70350097656,0.1,0.0,0.0,0.0,0.1,0.0,0.0,0.0,0.1
1452008914016537862,390,1452008914013330936,robocape,-4.84254189813,27.9329415275,-27.3281776459,0.0,10.0,0.0,0.0,0.0,10.0,0.0,0.0,0.0,10.0,-0.78376830881,-0.201867610628,-0.151400707971,1.0,0.0,0.0,0.0,1.0,0.0,0.0,0.0,1.0,1.40348144531,-5.19838989258,8.87474487305,0.1,0.0,0.0,0.0,0.1,0.0,0.0,0.0,0.1
1452008914049511571,391,1452008914046503067,robocape,-4.31133949693,27.5122487279,-28.3461585816,0.0,10.0,0.0,0.0,0.0,10.0,0.0,0.0,0.0,10.0,0.533564324397,-0.111186975511,-0.554470138954,1.0,0.0,0.0,0.0,1.0,0.0,0.0,0.0,1.0,4.71220092773,-4.89422241211,12.6720483398,0.1,0.0,0.0,0.0,0.1,0.0,0.0,0.0,0.1
1452008914084426738,392,1452008914081363916,robocape,-2.17579511926,27.687136287,-29.4903628932,0.0,10.0,0.0,0.0,0.0,10.0,0.0,0.0,0.0,10.0,1.4148043291,0.223039741294,-0.624910749787,1.0,0.0,0.0,0.0,1.0,0.0,0.0,0.0,1.0,0.195194091797,-6.14442260742,4.95050537109,0.1,0.0,0.0,0.0,0.1,0.0,0.0,0.0,0.1
