%time,field.header.seq,field.header.stamp,field.header.frame_id,field.orientation.x,field.orientation.y,field.orientation.z,field.orientation.w,field.orientation_covariance0,field.orientation_covariance1,field.orientation_covariance2,field.orientation_covariance3,field.orientation_covariance4,field.orientation_covariance5,field.orientation_covariance6,field.orientation_covariance7,field.orientation_covariance8,field.angular_velocity.x,field.angular_velocity.y,field.angular_velocity.z,field.angular_velocity_covariance0,field.angular_velocity_covariance1,field.angular_velocity_covariance2,field.angular_velocity_covariance3,field.angular_velocity_covariance4,field.angular_velocity_covariance5,field.angular_velocity_covariance6,field.angular_velocity_covariance7,field.angular_velocity_covariance8,field.linear_acceleration.x,field.linear_acceleration.y,field.linear_acceleration.z,field.linear_acceleration_covariance0,field.linear_acceleration_covariance1,field.linear_acceleration_covariance2,field.linear_acceleration_covariance3,field.linear_acceleration_covariance4,field.linear_acceleration_covariance5,field.linear_acceleration_covariance6,field.linear_acceleration_covariance7,field.linear_acceleration_covariance8
1446036723844860396,1,1446036723562925100,robocape,5.74800453246,-0.583798724556,-26.8041079433,0.0,10.0,0.0,0.0,0.0,10.0,0.0,0.0,0.0,10.0,0.00812264132474,0.0107858024148,0.00838895743375,1.0,0.0,0.0,0.0,1.0,0.0,0.0,0.0,1.0,-0.0526904296875,0.904119873047,10.0566870117,0.1,0.0,0.0,0.0,0.1,0.0,0.0,0.0,0.1
1446036723845270813,2,1446036723595422029,robocape,5.75765711974,-0.572397941577,-26.7928484023,0.0,10.0,0.0,0.0,0.0,10.0,0.0,0.0,0.0,10.0,0.00852211548825,0.0107858024148,0.00878843159726,1.0,0.0,0.0,0.0,1.0,0.0,0.0,0.0,1.0,-0.0467028808594,0.908909912109,10.0542919922,0.1,0.0,0.0,0.0,0.1,0.0,0.0,0.0,0.1
1446036723845307521,3,1446036723629033088,robocape,5.7668574074,-0.561276879827,-26.7819213158,0.0,10.0,0.0,0.0,0.0,10.0,0.0,0.0,0.0,10.0,0.00812264132474,0.0105194863058,0.00852211548825,1.0,0.0,0.0,0.0,1.0,0.0,0.0,0.0,1.0,-0.0550854492188,0.889749755859,10.0471069336,0.1,0.0,0.0,0.0,0.1,0.0,0.0,0.0,0.1
1446036723845342563,4,1446036723675121068,robocape,5.77727568032,-0.549746505869,-26.7704908609,0.0,10.0,0.0,0.0,0.0,10.0,0.0,0.0,0.0,10.0,0.00918790576077,0.0109189604693,0.00892158965177,1.0,0.0,0.0,0.0,1.0,0.0,0.0,0.0,1.0,-0.0562829589844,0.895737304688,10.0590820312,0.1,0.0,0.0,0.0,0.1,0.0,0.0,0.0,0.1
1446036723845376730,5,1446036723696136951,robocape,5.78678551693,-0.538786757092,-26.7595753885,0.0,10.0,0.0,0.0,0.0,10.0,0.0,0.0,0.0,10.0,0.00838895743375,0.0103863282513,0.00852211548825,1.0,0.0,0.0,0.0,1.0,0.0,0.0,0.0,1.0,-0.0371228027344,0.90052734375,10.0506994629,0.1,0.0,0.0,0.0,0.1,0.0,0.0,0.0,0.1
1446036723845414480,6,1446036723728980064,robocape,5.79629868487,-0.527662145012,-26.7487945505,0.0,10.0,0.0,0.0,0.0,10.0,0.0,0.0,0.0,10.0,0.00838895743375,0.0105194863058,0.00838895743375,1.0,0.0,0.0,0.0,1.0,0.0,0.0,0.0,1.0,-0.0455053710938,0.905317382813,10.0495019531,0.1,0.0,0.0,0.0,0.1,0.0,0.0,0.0,0.1
1446036723845488355,7,1446036723761950969,robocape,5.8055061027,-0.516725700419,-26.7377237281,0.0,10.0,0.0,0.0,0.0,10.0,0.0,0.0,0.0,10.0,0.00812264132474,0.0103863282513,0.00865527354276,1.0,0.0,0.0,0.0,1.0,0.0,0.0,0.0,1.0,-0.0431103515625,0.895737304688,10.0542919922,0.1,0.0,0.0,0.0,0.1,0.0,0.0,0.0,0.1
1446036723845554396,8,1446036723795361042,robocape,5.81394824417,-0.505380354804,-26.7261494862,0.0,10.0,0.0,0.0,0.0,10.0,0.0,0.0,0.0,10.0,0.00745685105222,0.0107858024148,0.00905474770627,1.0,0.0,0.0,0.0,1.0,0.0,0.0,0.0,1.0,-0.0419128417969,0.895737304688,10.0650695801,0.1,0.0,0.0,0.0,0.1,0.0,0.0,0.0,0.1
1446036723863927188,9,1446036723832181930,robocape,5.82300467153,-0.494482686555,-26.7147717627,0.0,10.0,0.0,0.0,0.0,10.0,0.0,0.0,0.0,10.0,0.00798948327024,0.0103863282513,0.00892158965177,1.0,0.0,0.0,0.0,1.0,0.0,0.0,0.0,1.0,-0.0431103515625,0.892144775391,10.0566870117,0.1,0.0,0.0,0.0,0.1,0.0,0.0,0.0,0.1
1446036723874041730,10,1446036723871522903,robocape,5.83237357194,-0.483526394207,-26.7039995396,0.0,10.0,0.0,0.0,0.0,10.0,0.0,0.0,0.0,10.0,0.00825579937925,0.0103863282513,0.00838895743375,1.0,0.0,0.0,0.0,1.0,0.0,0.0,0.0,1.0,-0.0514929199219,0.90052734375,10.0495019531,0.1,0.0,0.0,0.0,0.1,0.0,0.0,0.0,0.1
1446036723896062688,11,1446036723894260883,robocape,5.84143278288,-0.472346039904,-26.6924355401,0.0,10.0,0.0,0.0,0.0,10.0,0.0,0.0,0.0,10.0,0.00798948327024,0.0106526443603,0.00905474770627,1.0,0.0,0.0,0.0,1.0,0.0,0.0,0.0,1.0,-0.0455053710938,0.902922363281,10.0590820312,0.1,0.0,0.0,0.0,0.1,0.0,0.0,0.0,0.1
1446036723928856480,12,1446036723927115917,robocape,5.8509516486,-0.460710687193,-26.6808231332,0.0,10.0,0.0,0.0,0.0,10.0,0.0,0.0,0.0,10.0,0.00838895743375,0.0110521185238,0.00905474770627,1.0,0.0,0.0,0.0,1.0,0.0,0.0,0.0,1.0,-0.0514929199219,0.906514892578,10.0471069336,0.1,0.0,0.0,0.0,0.1,0.0,0.0,0.0,0.1
1446036723963203355,13,1446036723961518049,robocape,5.86108241784,-0.449707237317,-26.6691192445,0.0,10.0,0.0,0.0,0.0,10.0,0.0,0.0,0.0,10.0,0.00892158965177,0.0105194863058,0.00918790576077,1.0,0.0,0.0,0.0,1.0,0.0,0.0,0.0,1.0,-0.0455053710938,0.895737304688,10.0746496582,0.1,0.0,0.0,0.0,0.1,0.0,0.0,0.0,0.1
1446036723996402980,14,1446036723994713068,robocape,5.87076158276,-0.43927253005,-26.6579312462,0.0,10.0,0.0,0.0,0.0,10.0,0.0,0.0,0.0,10.0,0.00852211548825,0.0099868540878,0.00878843159726,1.0,0.0,0.0,0.0,1.0,0.0,0.0,0.0,1.0,-0.0443078613281,0.894539794922,10.0686621094,0.1,0.0,0.0,0.0,0.1,0.0,0.0,0.0,0.1
1446036724030296188,15,1446036724028353929,robocape,5.88029079982,-0.428061266953,-26.6468152164,0.0,10.0,0.0,0.0,0.0,10.0,0.0,0.0,0.0,10.0,0.00838895743375,0.0106526443603,0.00865527354276,1.0,0.0,0.0,0.0,1.0,0.0,0.0,0.0,1.0,-0.0610729980469,0.899329833984,10.0662670898,0.1,0.0,0.0,0.0,0.1,0.0,0.0,0.0,0.1
1446036724062619188,16,1446036724060848951,robocape,5.88906348727,-0.416485150215,-26.6362732879,0.0,10.0,0.0,0.0,0.0,10.0,0.0,0.0,0.0,10.0,0.00772316716123,0.0109189604693,0.00812264132474,1.0,0.0,0.0,0.0,1.0,0.0,0.0,0.0,1.0,-0.0395178222656,0.899329833984,10.0506994629,0.1,0.0,0.0,0.0,0.1,0.0,0.0,0.0,0.1
1446036724095828563,17,1446036724094116926,robocape,5.89829119391,-0.40590897649,-26.6250646542,0.0,10.0,0.0,0.0,0.0,10.0,0.0,0.0,0.0,10.0,0.00812264132474,0.0101200121423,0.00878843159726,1.0,0.0,0.0,0.0,1.0,0.0,0.0,0.0,1.0,-0.0431103515625,0.90052734375,10.0495019531,0.1,0.0,0.0,0.0,0.1,0.0,0.0,0.0,0.1
1446036724130311605,18,1446036724128619909,robocape,5.90767632794,-0.394677873658,-26.6142469045,0.0,10.0,0.0,0.0,0.0,10.0,0.0,0.0,0.0,10.0,0.00825579937925,0.0106526443603,0.00838895743375,1.0,0.0,0.0,0.0,1.0,0.0,0.0,0.0,1.0,-0.0383203125,0.904119873047,10.0770446777,0.1,0.0,0.0,0.0,0.1,0.0,0.0,0.0,0.1
1446036724162448855,19,1446036724160748004,robocape,5.91721502265,-0.383313765543,-26.6032598296,0.0,10.0,0.0,0.0,0.0,10.0,0.0,0.0,0.0,10.0,0.00838895743375,0.0107858024148,0.00852211548825,1.0,0.0,0.0,0.0,1.0,0.0,0.0,0.0,1.0,-0.0395178222656,0.905317382813,10.0411193848,0.1,0.0,0.0,0.0,0.1,0.0,0.0,0.0,0.1
1446036724195616105,20,1446036724193918943,robocape,5.9261445197,-0.371969495945,-26.592119173,0.0,10.0,0.0,0.0,0.0,10.0,0.0,0.0,0.0,10.0,0.00785632521573,0.0107858024148,0.00865527354276,1.0,0.0,0.0,0.0,1.0,0.0,0.0,0.0,1.0,-0.047900390625,0.890947265625,10.0435144043,0.1,0.0,0.0,0.0,0.1,0.0,0.0,0.0,0.1
1446036724229977480,21,1446036724228243112,robocape,5.93537775203,-0.361150835179,-26.5804169472,0.0,10.0,0.0,0.0,0.0,10.0,0.0,0.0,0.0,10.0,0.00812264132474,0.0103863282513,0.00918790576077,1.0,0.0,0.0,0.0,1.0,0.0,0.0,0.0,1.0,-0.0598754882813,0.896934814453,10.0171691895,0.1,0.0,0.0,0.0,0.1,0.0,0.0,0.0,0.1
1446036724262240646,22,1446036724260482072,robocape,5.94553536583,-0.350377648766,-26.5697911084,0.0,10.0,0.0,0.0,0.0,10.0,0.0,0.0,0.0,10.0,0.00892158965177,0.0102531701968,0.00825579937925,1.0,0.0,0.0,0.0,1.0,0.0,0.0,0.0,1.0,-0.0538879394531,0.896934814453,10.0375268555,0.1,0.0,0.0,0.0,0.1,0.0,0.0,0.0,0.1
1446036724295513438,23,1446036724293772935,robocape,5.95507948099,-0.338619232518,-26.5582938698,0.0,10.0,0.0,0.0,0.0,10.0,0.0,0.0,0.0,10.0,0.00838895743375,0.0111852765783,0.00892158965177,1.0,0.0,0.0,0.0,1.0,0.0,0.0,0.0,1.0,-0.0622705078125,0.892144775391,10.060279541,0.1,0.0,0.0,0.0,0.1,0.0,0.0,0.0,0.1
1446036724334856646,24,1446036724331331014,robocape,5.96523923124,-0.327427876341,-26.5473133099,0.0,10.0,0.0,0.0,0.0,10.0,0.0,0.0,0.0,10.0,0.00892158965177,0.0106526443603,0.00852211548825,1.0,0.0,0.0,0.0,1.0,0.0,0.0,0.0,1.0,-0.0526904296875,0.906514892578,10.0530944824,0.1,0.0,0.0,0.0,0.1,0.0,0.0,0.0,0.1
1446036724364264896,25,1446036724362416028,robocape,5.9747916031,-0.316224613388,-26.536482611,0.0,10.0,0.0,0.0,0.0,10.0,0.0,0.0,0.0,10.0,0.00838895743375,0.0106526443603,0.00838895743375,1.0,0.0,0.0,0.0,1.0,0.0,0.0,0.0,1.0,-0.047900390625,0.906514892578,10.0542919922,0.1,0.0,0.0,0.0,0.1,0.0,0.0,0.0,0.1
1446036724395712147,26,1446036724393960952,robocape,5.98434045599,-0.305442306914,-26.524619539,0.0,10.0,0.0,0.0,0.0,10.0,0.0,0.0,0.0,10.0,0.00838895743375,0.0103863282513,0.00932106381528,1.0,0.0,0.0,0.0,1.0,0.0,0.0,0.0,1.0,-0.0419128417969,0.893342285156,10.0315393066,0.1,0.0,0.0,0.0,0.1,0.0,0.0,0.0,0.1
1446036724433892313,27,1446036724432090997,robocape,5.99343831582,-0.294110335374,-26.5136175153,0.0,10.0,0.0,0.0,0.0,10.0,0.0,0.0,0.0,10.0,0.00798948327024,0.0107858024148,0.00852211548825,1.0,0.0,0.0,0.0,1.0,0.0,0.0,0.0,1.0,-0.0490979003906,0.901724853516,10.0518969727,0.1,0.0,0.0,0.0,0.1,0.0,0.0,0.0,0.1
1446036724462227272,28,1446036724460489988,robocape,6.00253604024,-0.282830397237,-26.5021584493,0.0,10.0,0.0,0.0,0.0,10.0,0.0,0.0,0.0,10.0,0.00798948327024,0.0107858024148,0.00892158965177,1.0,0.0,0.0,0.0,1.0,0.0,0.0,0.0,1.0,-0.0431103515625,0.898132324219,10.0423168945,0.1,0.0,0.0,0.0,0.1,0.0,0.0,0.0,0.1
1446036724495694647,29,1446036724493966102,robocape,6.01193983126,-0.271891530397,-26.490426017,0.0,10.0,0.0,0.0,0.0,10.0,0.0,0.0,0.0,10.0,0.00825579937925,0.0105194863058,0.00918790576077,1.0,0.0,0.0,0.0,1.0,0.0,0.0,0.0,1.0,-0.0407153320313,0.90052734375,10.0351318359,0.1,0.0,0.0,0.0,0.1,0.0,0.0,0.0,0.1
1446036724531730855,30,1446036724529721975,robocape,6.02149907762,-0.260788172842,-26.4788275486,0.0,10.0,0.0,0.0,0.0,10.0,0.0,0.0,0.0,10.0,0.00838895743375,0.0106526443603,0.00905474770627,1.0,0.0,0.0,0.0,1.0,0.0,0.0,0.0,1.0,-0.0538879394531,0.902922363281,10.0506994629,0.1,0.0,0.0,0.0,0.1,0.0,0.0,0.0,0.1
1446036724562312022,31,1446036724560627937,robocape,6.03121663453,-0.249913261079,-26.4680180015,0.0,10.0,0.0,0.0,0.0,10.0,0.0,0.0,0.0,10.0,0.00852211548825,0.0103863282513,0.00838895743375,1.0,0.0,0.0,0.0,1.0,0.0,0.0,0.0,1.0,-0.0455053710938,0.910107421875,10.0650695801,0.1,0.0,0.0,0.0,0.1,0.0,0.0,0.0,0.1
1446036724595507980,32,1446036724593827009,robocape,6.04093347584,-0.238649560733,-26.4565515178,0.0,10.0,0.0,0.0,0.0,10.0,0.0,0.0,0.0,10.0,0.00852211548825,0.0107858024148,0.00892158965177,1.0,0.0,0.0,0.0,1.0,0.0,0.0,0.0,1.0,-0.0514929199219,0.889749755859,10.0818347168,0.1,0.0,0.0,0.0,0.1,0.0,0.0,0.0,0.1
1446036724633065813,33,1446036724630641937,robocape,6.05034614321,-0.227422239316,-26.4447796901,0.0,10.0,0.0,0.0,0.0,10.0,0.0,0.0,0.0,10.0,0.00825579937925,0.0107858024148,0.00918790576077,1.0,0.0,0.0,0.0,1.0,0.0,0.0,0.0,1.0,-0.0335302734375,0.907712402344,10.0530944824,0.1,0.0,0.0,0.0,0.1,0.0,0.0,0.0,0.1
1446036724662055313,34,1446036724660392045,robocape,6.05991707227,-0.215645194176,-26.4338681581,0.0,10.0,0.0,0.0,0.0,10.0,0.0,0.0,0.0,10.0,0.00838895743375,0.0111852765783,0.00838895743375,1.0,0.0,0.0,0.0,1.0,0.0,0.0,0.0,1.0,-0.0658630371094,0.898132324219,10.0459094238,0.1,0.0,0.0,0.0,0.1,0.0,0.0,0.0,0.1
1446036724695931063,35,1446036724694174051,robocape,6.06964042839,-0.205323747835,-26.4223410772,0.0,10.0,0.0,0.0,0.0,10.0,0.0,0.0,0.0,10.0,0.00852211548825,0.0099868540878,0.00905474770627,1.0,0.0,0.0,0.0,1.0,0.0,0.0,0.0,1.0,-0.0586779785156,0.895737304688,10.0734521484,0.1,0.0,0.0,0.0,0.1,0.0,0.0,0.0,0.1
1446036724731998938,36,1446036724729707002,robocape,6.07891179809,-0.194892650728,-26.4118744241,0.0,10.0,0.0,0.0,0.0,10.0,0.0,0.0,0.0,10.0,0.00812264132474,0.0099868540878,0.00812264132474,1.0,0.0,0.0,0.0,1.0,0.0,0.0,0.0,1.0,-0.0586779785156,0.904119873047,10.0471069336,0.1,0.0,0.0,0.0,0.1,0.0,0.0,0.0,0.1
1446036724762074980,37,1446036724760329008,robocape,6.08848501757,-0.183866319966,-26.3998079171,0.0,10.0,0.0,0.0,0.0,10.0,0.0,0.0,0.0,10.0,0.00838895743375,0.0106526443603,0.00945422186978,1.0,0.0,0.0,0.0,1.0,0.0,0.0,0.0,1.0,-0.0455053710938,1.07177124023,10.0495019531,0.1,0.0,0.0,0.0,0.1,0.0,0.0,0.0,0.1
1446036724795408147,38,1446036724793663024,robocape,6.09806338457,-0.172746641868,-26.3886499403,0.0,10.0,0.0,0.0,0.0,10.0,0.0,0.0,0.0,10.0,0.00838895743375,0.0106526443603,0.00865527354276,1.0,0.0,0.0,0.0,1.0,0.0,0.0,0.0,1.0,-0.0562829589844,0.902922363281,10.0351318359,0.1,0.0,0.0,0.0,0.1,0.0,0.0,0.0,0.1
1446036724831503688,39,1446036724829649925,robocape,6.10748992205,-0.161375462667,-26.3770025164,0.0,10.0,0.0,0.0,0.0,10.0,0.0,0.0,0.0,10.0,0.00825579937925,0.0109189604693,0.00905474770627,1.0,0.0,0.0,0.0,1.0,0.0,0.0,0.0,1.0,-0.0514929199219,0.899329833984,10.0411193848,0.1,0.0,0.0,0.0,0.1,0.0,0.0,0.0,0.1
1446036724863923647,40,1446036724862042903,robocape,6.11722564701,-0.150247550193,-26.3659925817,0.0,10.0,0.0,0.0,0.0,10.0,0.0,0.0,0.0,10.0,0.00852211548825,0.0106526443603,0.00852211548825,1.0,0.0,0.0,0.0,1.0,0.0,0.0,0.0,1.0,-0.0467028808594,0.883762207031,10.024354248,0.1,0.0,0.0,0.0,0.1,0.0,0.0,0.0,0.1
1446036724896059522,41,1446036724893922090,robocape,6.1265061469,-0.139259388208,-26.3551488018,0.0,10.0,0.0,0.0,0.0,10.0,0.0,0.0,0.0,10.0,0.00812264132474,0.0105194863058,0.00838895743375,1.0,0.0,0.0,0.0,1.0,0.0,0.0,0.0,1.0,-0.047900390625,0.895737304688,10.0566870117,0.1,0.0,0.0,0.0,0.1,0.0,0.0,0.0,0.1
1446036724932571938,42,1446036724930775880,robocape,6.13685683186,-0.128275181085,-26.3443031495,0.0,10.0,0.0,0.0,0.0,10.0,0.0,0.0,0.0,10.0,0.00905474770627,0.0105194863058,0.00838895743375,1.0,0.0,0.0,0.0,1.0,0.0,0.0,0.0,1.0,-0.0359252929688,0.894539794922,10.0686621094,0.1,0.0,0.0,0.0,0.1,0.0,0.0,0.0,0.1
1446036724962282688,43,1446036724960494995,robocape,6.14598827167,-0.117631674909,-26.3331848623,0.0,10.0,0.0,0.0,0.0,10.0,0.0,0.0,0.0,10.0,0.00798948327024,0.0102531701968,0.00865527354276,1.0,0.0,0.0,0.0,1.0,0.0,0.0,0.0,1.0,-0.047900390625,0.901724853516,10.0578845215,0.1,0.0,0.0,0.0,0.1,0.0,0.0,0.0,0.1
1446036724995632438,44,1446036724993839979,robocape,6.15557830458,-0.106753488477,-26.3214253071,0.0,10.0,0.0,0.0,0.0,10.0,0.0,0.0,0.0,10.0,0.00838895743375,0.0105194863058,0.00918790576077,1.0,0.0,0.0,0.0,1.0,0.0,0.0,0.0,1.0,-0.0514929199219,0.894539794922,10.060279541,0.1,0.0,0.0,0.0,0.1,0.0,0.0,0.0,0.1
1446036725029970897,45,1446036725027982950,robocape,6.16532393136,-0.0955262186425,-26.3100862957,0.0,10.0,0.0,0.0,0.0,10.0,0.0,0.0,0.0,10.0,0.00852211548825,0.0107858024148,0.00878843159726,1.0,0.0,0.0,0.0,1.0,0.0,0.0,0.0,1.0,-0.0359252929688,0.901724853516,10.0351318359,0.1,0.0,0.0,0.0,0.1,0.0,0.0,0.0,0.1
1446036725062196188,46,1446036725060456037,robocape,6.17491917441,-0.0841511284068,-26.2987289964,0.0,10.0,0.0,0.0,0.0,10.0,0.0,0.0,0.0,10.0,0.00838895743375,0.0109189604693,0.00878843159726,1.0,0.0,0.0,0.0,1.0,0.0,0.0,0.0,1.0,-0.0371228027344,0.892144775391,10.0267492676,0.1,0.0,0.0,0.0,0.1,0.0,0.0,0.0,0.1
1446036725095480439,47,1446036725093802928,robocape,6.18421043706,-0.0727104982745,-26.2865948962,0.0,10.0,0.0,0.0,0.0,10.0,0.0,0.0,0.0,10.0,0.00812264132474,0.0110521185238,0.00945422186978,1.0,0.0,0.0,0.0,1.0,0.0,0.0,0.0,1.0,-0.0419128417969,0.899329833984,10.0495019531,0.1,0.0,0.0,0.0,0.1,0.0,0.0,0.0,0.1
1446036725129441189,48,1446036725127607107,robocape,6.19381056319,-0.0617663163843,-26.2755866076,0.0,10.0,0.0,0.0,0.0,10.0,0.0,0.0,0.0,10.0,0.00838895743375,0.0105194863058,0.00852211548825,1.0,0.0,0.0,0.0,1.0,0.0,0.0,0.0,1.0,-0.0538879394531,0.90052734375,10.0614770508,0.1,0.0,0.0,0.0,0.1,0.0,0.0,0.0,0.1
1446036725163908647,49,1446036725161591053,robocape,6.20386995224,-0.0514993972397,-26.2640355681,0.0,10.0,0.0,0.0,0.0,10.0,0.0,0.0,0.0,10.0,0.00878843159726,0.0099868540878,0.00905474770627,1.0,0.0,0.0,0.0,1.0,0.0,0.0,0.0,1.0,-0.0467028808594,0.901724853516,10.039921875,0.1,0.0,0.0,0.0,0.1,0.0,0.0,0.0,0.1
1446036725195472855,50,1446036725193715095,robocape,6.2128636741,-0.0402758902938,-26.2528388951,0.0,10.0,0.0,0.0,0.0,10.0,0.0,0.0,0.0,10.0,0.00785632521573,0.0107858024148,0.00865527354276,1.0,0.0,0.0,0.0,1.0,0.0,0.0,0.0,1.0,-0.0646655273438,0.911304931641,10.0518969727,0.1,0.0,0.0,0.0,0.1,0.0,0.0,0.0,0.1
1446036725229242730,51,1446036725227473974,robocape,6.22216494866,-0.0290232975849,-26.241943814,0.0,10.0,0.0,0.0,0.0,10.0,0.0,0.0,0.0,10.0,0.00812264132474,0.0107858024148,0.00838895743375,1.0,0.0,0.0,0.0,1.0,0.0,0.0,0.0,1.0,-0.0610729980469,0.896934814453,10.0483044434,0.1,0.0,0.0,0.0,0.1,0.0,0.0,0.0,0.1
1446036725264103022,52,1446036725261888027,robocape,6.2316208851,-0.0177912511391,-26.2308952058,0.0,10.0,0.0,0.0,0.0,10.0,0.0,0.0,0.0,10.0,0.00825579937925,0.0107858024148,0.00852211548825,1.0,0.0,0.0,0.0,1.0,0.0,0.0,0.0,1.0,-0.047900390625,0.895737304688,10.0566870117,0.1,0.0,0.0,0.0,0.1,0.0,0.0,0.0,0.1
1446036725295499814,53,1446036725293768882,robocape,6.24107891844,-0.00703491458979,-26.2197427871,0.0,10.0,0.0,0.0,0.0,10.0,0.0,0.0,0.0,10.0,0.00825579937925,0.0103863282513,0.00865527354276,1.0,0.0,0.0,0.0,1.0,0.0,0.0,0.0,1.0,-0.0467028808594,0.899329833984,10.0590820312,0.1,0.0,0.0,0.0,0.1,0.0,0.0,0.0,0.1
1446036725329118272,54,1446036725327222108,robocape,6.25023386298,0.00370099300596,-26.2084369399,0.0,10.0,0.0,0.0,0.0,10.0,0.0,0.0,0.0,10.0,0.00798948327024,0.0103863282513,0.00878843159726,1.0,0.0,0.0,0.0,1.0,0.0,0.0,0.0,1.0,-0.0526904296875,0.896934814453,10.0435144043,0.1,0.0,0.0,0.0,0.1,0.0,0.0,0.0,0.1
1446036725364979564,55,1446036725363140106,robocape,6.26000142557,0.0154778804795,-26.1968612633,0.0,10.0,0.0,0.0,0.0,10.0,0.0,0.0,0.0,10.0,0.00852211548825,0.0113184346328,0.00892158965177,1.0,0.0,0.0,0.0,1.0,0.0,0.0,0.0,1.0,-0.0502954101563,0.902922363281,10.0518969727,0.1,0.0,0.0,0.0,0.1,0.0,0.0,0.0,0.1
1446036725395588480,56,1446036725393840074,robocape,6.26916073931,0.0260708710674,-26.1857201971,0.0,10.0,0.0,0.0,0.0,10.0,0.0,0.0,0.0,10.0,0.00798948327024,0.0102531701968,0.00865527354276,1.0,0.0,0.0,0.0,1.0,0.0,0.0,0.0,1.0,-0.0490979003906,0.894539794922,10.0614770508,0.1,0.0,0.0,0.0,0.1,0.0,0.0,0.0,0.1
1446036725428962147,57,1446036725427136898,robocape,6.27832215185,0.0374346643934,-26.1746457369,0.0,10.0,0.0,0.0,0.0,10.0,0.0,0.0,0.0,10.0,0.00798948327024,0.0109189604693,0.00852211548825,1.0,0.0,0.0,0.0,1.0,0.0,0.0,0.0,1.0,-0.0443078613281,0.906514892578,10.0710571289,0.1,0.0,0.0,0.0,0.1,0.0,0.0,0.0,0.1
1446036725466166439,58,1446036725463890075,robocape,6.28794319476,0.0482215858373,-26.1639395525,0.0,10.0,0.0,0.0,0.0,10.0,0.0,0.0,0.0,10.0,0.00838895743375,0.0103863282513,0.00825579937925,1.0,0.0,0.0,0.0,1.0,0.0,0.0,0.0,1.0,-0.0526904296875,0.905317382813,10.0566870117,0.1,0.0,0.0,0.0,0.1,0.0,0.0,0.0,0.1
1446036725495469439,59,1446036725493716955,robocape,6.29833025582,0.0599649287005,-26.1522043889,0.0,10.0,0.0,0.0,0.0,10.0,0.0,0.0,0.0,10.0,0.00905474770627,0.0113184346328,0.00905474770627,1.0,0.0,0.0,0.0,1.0,0.0,0.0,0.0,1.0,-0.0538879394531,0.901724853516,10.0566870117,0.1,0.0,0.0,0.0,0.1,0.0,0.0,0.0,0.1
1446036725529064564,60,1446036725527179002,robocape,6.3071938458,0.0709297754788,-26.14039934,0.0,10.0,0.0,0.0,0.0,10.0,0.0,0.0,0.0,10.0,0.00772316716123,0.0106526443603,0.00918790576077,1.0,0.0,0.0,0.0,1.0,0.0,0.0,0.0,1.0,-0.0395178222656,0.888552246094,10.0638720703,0.1,0.0,0.0,0.0,0.1,0.0,0.0,0.0,0.1
1446036725565713022,61,1446036725563775062,robocape,6.31666992627,0.0822102729349,-26.1287106431,0.0,10.0,0.0,0.0,0.0,10.0,0.0,0.0,0.0,10.0,0.00825579937925,0.0109189604693,0.00905474770627,1.0,0.0,0.0,0.0,1.0,0.0,0.0,0.0,1.0,-0.0526904296875,0.883762207031,10.0926123047,0.1,0.0,0.0,0.0,0.1,0.0,0.0,0.0,0.1
1446036725595481855,62,1446036725593815088,robocape,6.32630027654,0.0929144902478,-26.1173905845,0.0,10.0,0.0,0.0,0.0,10.0,0.0,0.0,0.0,10.0,0.00838895743375,0.0103863282513,0.00878843159726,1.0,0.0,0.0,0.0,1.0,0.0,0.0,0.0,1.0,-0.0335302734375,0.888552246094,10.0423168945,0.1,0.0,0.0,0.0,0.1,0.0,0.0,0.0,0.1
1446036725629091855,63,1446036725627159118,robocape,6.33547498821,0.104539928622,-26.1061194652,0.0,10.0,0.0,0.0,0.0,10.0,0.0,0.0,0.0,10.0,0.00798948327024,0.0111852765783,0.00865527354276,1.0,0.0,0.0,0.0,1.0,0.0,0.0,0.0,1.0,-0.0455053710938,0.883762207031,10.0327368164,0.1,0.0,0.0,0.0,0.1,0.0,0.0,0.0,0.1
1446036725667003772,64,1446036725664486885,robocape,6.34572146589,0.115774309137,-26.0941217975,0.0,10.0,0.0,0.0,0.0,10.0,0.0,0.0,0.0,10.0,0.00892158965177,0.0109189604693,0.00932106381528,1.0,0.0,0.0,0.0,1.0,0.0,0.0,0.0,1.0,-0.0455053710938,0.896934814453,10.0363293457,0.1,0.0,0.0,0.0,0.1,0.0,0.0,0.0,0.1
1446036725695580314,65,1446036725693819046,robocape,6.35535751197,0.126517019572,-26.0832512476,0.0,10.0,0.0,0.0,0.0,10.0,0.0,0.0,0.0,10.0,0.00838895743375,0.0103863282513,0.00838895743375,1.0,0.0,0.0,0.0,1.0,0.0,0.0,0.0,1.0,-0.0407153320313,0.894539794922,10.0674645996,0.1,0.0,0.0,0.0,0.1,0.0,0.0,0.0,0.1
1446036725728862147,66,1446036725727077007,robocape,6.3656077494,0.137322788169,-26.0716036755,0.0,10.0,0.0,0.0,0.0,10.0,0.0,0.0,0.0,10.0,0.00892158965177,0.0105194863058,0.00905474770627,1.0,0.0,0.0,0.0,1.0,0.0,0.0,0.0,1.0,-0.0514929199219,0.888552246094,10.0890197754,0.1,0.0,0.0,0.0,0.1,0.0,0.0,0.0,0.1
1446036725765503105,67,1446036725762983083,robocape,6.37463743702,0.14775522055,-26.0607632968,0.0,10.0,0.0,0.0,0.0,10.0,0.0,0.0,0.0,10.0,0.00785632521573,0.0101200121423,0.00838895743375,1.0,0.0,0.0,0.0,1.0,0.0,0.0,0.0,1.0,-0.0395178222656,0.890947265625,10.0375268555,0.1,0.0,0.0,0.0,0.1,0.0,0.0,0.0,0.1
1446036725795414564,68,1446036725793672084,robocape,6.38366882286,0.158503388995,-26.0500390009,0.0,10.0,0.0,0.0,0.0,10.0,0.0,0.0,0.0,10.0,0.00785632521573,0.0103863282513,0.00825579937925,1.0,0.0,0.0,0.0,1.0,0.0,0.0,0.0,1.0,-0.0443078613281,0.901724853516,10.0435144043,0.1,0.0,0.0,0.0,0.1,0.0,0.0,0.0,0.1
1446036725828898689,69,1446036725827142953,robocape,6.39331388036,0.169196999124,-26.0388580202,0.0,10.0,0.0,0.0,0.0,10.0,0.0,0.0,0.0,10.0,0.00838895743375,0.0103863282513,0.00865527354276,1.0,0.0,0.0,0.0,1.0,0.0,0.0,0.0,1.0,-0.0490979003906,0.895737304688,10.0746496582,0.1,0.0,0.0,0.0,0.1,0.0,0.0,0.0,0.1
1446036725868183481,70,1446036725866405010,robocape,6.40326548886,0.180374070923,-26.0279274625,0.0,10.0,0.0,0.0,0.0,10.0,0.0,0.0,0.0,10.0,0.00865527354276,0.0107858024148,0.00838895743375,1.0,0.0,0.0,0.0,1.0,0.0,0.0,0.0,1.0,-0.0275427246094,0.899329833984,10.0674645996,0.1,0.0,0.0,0.0,0.1,0.0,0.0,0.0,0.1
1446036725895711897,71,1446036725893992900,robocape,6.41367875944,0.191025730679,-26.016439459,0.0,10.0,0.0,0.0,0.0,10.0,0.0,0.0,0.0,10.0,0.00905474770627,0.0103863282513,0.00892158965177,1.0,0.0,0.0,0.0,1.0,0.0,0.0,0.0,1.0,-0.0455053710938,0.904119873047,10.0495019531,0.1,0.0,0.0,0.0,0.1,0.0,0.0,0.0,0.1
1446036725928953647,72,1446036725927205085,robocape,6.42409366031,0.201690310096,-26.0051011384,0.0,10.0,0.0,0.0,0.0,10.0,0.0,0.0,0.0,10.0,0.00905474770627,0.0103863282513,0.00878843159726,1.0,0.0,0.0,0.0,1.0,0.0,0.0,0.0,1.0,-0.0443078613281,0.905317382813,10.019564209,0.1,0.0,0.0,0.0,0.1,0.0,0.0,0.0,0.1
1446036725965740189,73,1446036725963969945,robocape,6.43389853984,0.212099828661,-25.9942499816,0.0,10.0,0.0,0.0,0.0,10.0,0.0,0.0,0.0,10.0,0.00852211548825,0.0101200121423,0.00838895743375,1.0,0.0,0.0,0.0,1.0,0.0,0.0,0.0,1.0,-0.0598754882813,0.90052734375,10.039921875,0.1,0.0,0.0,0.0,0.1,0.0,0.0,0.0,0.1
1446036725995408981,74,1446036725993737936,robocape,6.44355114831,0.223782042407,-25.9838666579,0.0,10.0,0.0,0.0,0.0,10.0,0.0,0.0,0.0,10.0,0.00838895743375,0.0111852765783,0.00785632521573,1.0,0.0,0.0,0.0,1.0,0.0,0.0,0.0,1.0,-0.0443078613281,0.899329833984,10.0327368164,0.1,0.0,0.0,0.0,0.1,0.0,0.0,0.0,0.1
1446036726028846106,75,1446036726027040004,robocape,6.45305556415,0.235089860715,-25.9729091441,0.0,10.0,0.0,0.0,0.0,10.0,0.0,0.0,0.0,10.0,0.00825579937925,0.0109189604693,0.00838895743375,1.0,0.0,0.0,0.0,1.0,0.0,0.0,0.0,1.0,-0.0395178222656,0.895737304688,10.0518969727,0.1,0.0,0.0,0.0,0.1,0.0,0.0,0.0,0.1
1446036726065966647,76,1446036726064208984,robocape,6.46271992812,0.246407859134,-25.960719592,0.0,10.0,0.0,0.0,0.0,10.0,0.0,0.0,0.0,10.0,0.00838895743375,0.0110521185238,0.00945422186978,1.0,0.0,0.0,0.0,1.0,0.0,0.0,0.0,1.0,-0.0383203125,0.890947265625,10.0542919922,0.1,0.0,0.0,0.0,0.1,0.0,0.0,0.0,0.1
1446036726095638106,77,1446036726093847036,robocape,6.47207669375,0.257539483671,-25.9496238458,0.0,10.0,0.0,0.0,0.0,10.0,0.0,0.0,0.0,10.0,0.00812264132474,0.0107858024148,0.00852211548825,1.0,0.0,0.0,0.0,1.0,0.0,0.0,0.0,1.0,-0.0455053710938,0.895737304688,10.0506994629,0.1,0.0,0.0,0.0,0.1,0.0,0.0,0.0,0.1
1446036726128884981,78,1446036726127063989,robocape,6.48174438398,0.268732329122,-25.9377509433,0.0,10.0,0.0,0.0,0.0,10.0,0.0,0.0,0.0,10.0,0.00838895743375,0.0109189604693,0.00918790576077,1.0,0.0,0.0,0.0,1.0,0.0,0.0,0.0,1.0,-0.0395178222656,0.910107421875,10.0363293457,0.1,0.0,0.0,0.0,0.1,0.0,0.0,0.0,0.1
1446036726164774022,79,1446036726162971019,robocape,6.49125915884,0.279218101154,-25.9264171761,0.0,10.0,0.0,0.0,0.0,10.0,0.0,0.0,0.0,10.0,0.00825579937925,0.0102531701968,0.00878843159726,1.0,0.0,0.0,0.0,1.0,0.0,0.0,0.0,1.0,-0.0359252929688,0.908909912109,10.0483044434,0.1,0.0,0.0,0.0,0.1,0.0,0.0,0.0,0.1
1446036726195533231,80,1446036726193814039,robocape,6.50062429249,0.289833733855,-25.9149127898,0.0,10.0,0.0,0.0,0.0,10.0,0.0,0.0,0.0,10.0,0.00812264132474,0.0103863282513,0.00892158965177,1.0,0.0,0.0,0.0,1.0,0.0,0.0,0.0,1.0,-0.0455053710938,0.904119873047,10.0411193848,0.1,0.0,0.0,0.0,0.1,0.0,0.0,0.0,0.1
1446036726228836022,81,1446036726227070093,robocape,6.51014182121,0.300497076577,-25.903861457,0.0,10.0,0.0,0.0,0.0,10.0,0.0,0.0,0.0,10.0,0.00825579937925,0.0103863282513,0.00852211548825,1.0,0.0,0.0,0.0,1.0,0.0,0.0,0.0,1.0,-0.0443078613281,0.907712402344,10.0435144043,0.1,0.0,0.0,0.0,0.1,0.0,0.0,0.0,0.1
1446036726263384314,82,1446036726261615991,robocape,6.51996406668,0.311057432302,-25.8932804319,0.0,10.0,0.0,0.0,0.0,10.0,0.0,0.0,0.0,10.0,0.00852211548825,0.0102531701968,0.00812264132474,1.0,0.0,0.0,0.0,1.0,0.0,0.0,0.0,1.0,-0.0431103515625,0.910107421875,10.039921875,0.1,0.0,0.0,0.0,0.1,0.0,0.0,0.0,0.1
1446036726295677647,83,1446036726293946027,robocape,6.52994539205,0.321980017966,-25.881887533,0.0,10.0,0.0,0.0,0.0,10.0,0.0,0.0,0.0,10.0,0.00865527354276,0.0106526443603,0.00878843159726,1.0,0.0,0.0,0.0,1.0,0.0,0.0,0.0,1.0,-0.0538879394531,0.892144775391,10.039921875,0.1,0.0,0.0,0.0,0.1,0.0,0.0,0.0,0.1
1446036726329064272,84,1446036726327215909,robocape,6.53977390548,0.332028785783,-25.8709001173,0.0,10.0,0.0,0.0,0.0,10.0,0.0,0.0,0.0,10.0,0.00852211548825,0.00985369603329,0.00852211548825,1.0,0.0,0.0,0.0,1.0,0.0,0.0,0.0,1.0,-0.0586779785156,0.887354736328,10.0495019531,0.1,0.0,0.0,0.0,0.1,0.0,0.0,0.0,0.1
1446036726363389731,85,1446036726361567020,robocape,6.54899930655,0.343042293119,-25.8590312898,0.0,10.0,0.0,0.0,0.0,10.0,0.0,0.0,0.0,10.0,0.00798948327024,0.0107858024148,0.00918790576077,1.0,0.0,0.0,0.0,1.0,0.0,0.0,0.0,1.0,-0.0467028808594,0.894539794922,10.0902172852,0.1,0.0,0.0,0.0,0.1,0.0,0.0,0.0,0.1
1446036726396764647,86,1446036726394999980,robocape,6.55883483834,0.35440490714,-25.8475805534,0.0,10.0,0.0,0.0,0.0,10.0,0.0,0.0,0.0,10.0,0.00852211548825,0.0110521185238,0.00878843159726,1.0,0.0,0.0,0.0,1.0,0.0,0.0,0.0,1.0,-0.0490979003906,0.886157226563,10.0578845215,0.1,0.0,0.0,0.0,0.1,0.0,0.0,0.0,0.1
1446036726428829439,87,1446036726427079916,robocape,6.56866918304,0.36506218961,-25.8366698255,0.0,10.0,0.0,0.0,0.0,10.0,0.0,0.0,0.0,10.0,0.00852211548825,0.0103863282513,0.00838895743375,1.0,0.0,0.0,0.0,1.0,0.0,0.0,0.0,1.0,-0.0490979003906,0.892144775391,10.0506994629,0.1,0.0,0.0,0.0,0.1,0.0,0.0,0.0,0.1
1446036726462746272,88,1446036726461036920,robocape,6.57774729141,0.375327734948,-25.8250343096,0.0,10.0,0.0,0.0,0.0,10.0,0.0,0.0,0.0,10.0,0.00785632521573,0.0101200121423,0.00905474770627,1.0,0.0,0.0,0.0,1.0,0.0,0.0,0.0,1.0,-0.0490979003906,0.899329833984,10.0483044434,0.1,0.0,0.0,0.0,0.1,0.0,0.0,0.0,0.1
1446036726497671814,89,1446036726495691061,robocape,6.58759009988,0.386359647456,-25.813461196,0.0,10.0,0.0,0.0,0.0,10.0,0.0,0.0,0.0,10.0,0.00852211548825,0.0107858024148,0.00892158965177,1.0,0.0,0.0,0.0,1.0,0.0,0.0,0.0,1.0,-0.0431103515625,0.902922363281,10.0375268555,0.1,0.0,0.0,0.0,0.1,0.0,0.0,0.0,0.1
1446036726530175564,90,1446036726528398990,robocape,6.597735782,0.397005412363,-25.8025450173,0.0,10.0,0.0,0.0,0.0,10.0,0.0,0.0,0.0,10.0,0.00878843159726,0.0103863282513,0.00838895743375,1.0,0.0,0.0,0.0,1.0,0.0,0.0,0.0,1.0,-0.0455053710938,0.907712402344,10.060279541,0.1,0.0,0.0,0.0,0.1,0.0,0.0,0.0,0.1
1446036726562416481,91,1446036726560676097,robocape,6.60773505834,0.40742708657,-25.7910381676,0.0,10.0,0.0,0.0,0.0,10.0,0.0,0.0,0.0,10.0,0.00865527354276,0.0102531701968,0.00892158965177,1.0,0.0,0.0,0.0,1.0,0.0,0.0,0.0,1.0,-0.0490979003906,0.905317382813,10.0411193848,0.1,0.0,0.0,0.0,0.1,0.0,0.0,0.0,0.1
1446036726599455481,92,1446036726597770929,robocape,6.61743199143,0.418597161681,-25.7794416395,0.0,10.0,0.0,0.0,0.0,10.0,0.0,0.0,0.0,10.0,0.00838895743375,0.0109189604693,0.00892158965177,1.0,0.0,0.0,0.0,1.0,0.0,0.0,0.0,1.0,-0.0431103515625,0.904119873047,10.0495019531,0.1,0.0,0.0,0.0,0.1,0.0,0.0,0.0,0.1
1446036726628869898,93,1446036726627177000,robocape,6.62727578612,0.429734877471,-25.7689217917,0.0,10.0,0.0,0.0,0.0,10.0,0.0,0.0,0.0,10.0,0.00852211548825,0.0107858024148,0.00798948327024,1.0,0.0,0.0,0.0,1.0,0.0,0.0,0.0,1.0,-0.0395178222656,0.902922363281,10.0315393066,0.1,0.0,0.0,0.0,0.1,0.0,0.0,0.0,0.1
1446036726662454523,94,1446036726660674095,robocape,6.6372797163,0.440480354452,-25.7576773773,0.0,10.0,0.0,0.0,0.0,10.0,0.0,0.0,0.0,10.0,0.00865527354276,0.0105194863058,0.00865527354276,1.0,0.0,0.0,0.0,1.0,0.0,0.0,0.0,1.0,-0.0502954101563,0.902922363281,10.0327368164,0.1,0.0,0.0,0.0,0.1,0.0,0.0,0.0,0.1
1446036726698943148,95,1446036726697012901,robocape,6.64698667503,0.451284669012,-25.7456555922,0.0,10.0,0.0,0.0,0.0,10.0,0.0,0.0,0.0,10.0,0.00838895743375,0.0106526443603,0.00932106381528,1.0,0.0,0.0,0.0,1.0,0.0,0.0,0.0,1.0,-0.0383203125,0.904119873047,10.0578845215,0.1,0.0,0.0,0.0,0.1,0.0,0.0,0.0,0.1
1446036726728842898,96,1446036726727072000,robocape,6.65668686663,0.462826449684,-25.7347737661,0.0,10.0,0.0,0.0,0.0,10.0,0.0,0.0,0.0,10.0,0.00838895743375,0.0111852765783,0.00825579937925,1.0,0.0,0.0,0.0,1.0,0.0,0.0,0.0,1.0,-0.0443078613281,0.901724853516,10.0471069336,0.1,0.0,0.0,0.0,0.1,0.0,0.0,0.0,0.1
1446036726762775023,97,1446036726760864973,robocape,6.66654387774,0.473878021491,-25.723639916,0.0,10.0,0.0,0.0,0.0,10.0,0.0,0.0,0.0,10.0,0.00852211548825,0.0107858024148,0.00852211548825,1.0,0.0,0.0,0.0,1.0,0.0,0.0,0.0,1.0,-0.0550854492188,0.904119873047,10.0542919922,0.1,0.0,0.0,0.0,0.1,0.0,0.0,0.0,0.1
1446036726800780106,98,1446036726799062967,robocape,6.67595277103,0.48466984187,-25.7116125414,0.0,10.0,0.0,0.0,0.0,10.0,0.0,0.0,0.0,10.0,0.00812264132474,0.0106526443603,0.00932106381528,1.0,0.0,0.0,0.0,1.0,0.0,0.0,0.0,1.0,-0.0455053710938,0.901724853516,10.0339343262,0.1,0.0,0.0,0.0,0.1,0.0,0.0,0.0,0.1
1446036726828848898,99,1446036726827141046,robocape,6.68612627741,0.496076064313,-25.6996638322,0.0,10.0,0.0,0.0,0.0,10.0,0.0,0.0,0.0,10.0,0.00878843159726,0.0111852765783,0.00918790576077,1.0,0.0,0.0,0.0,1.0,0.0,0.0,0.0,1.0,-0.047900390625,0.892144775391,10.0710571289,0.1,0.0,0.0,0.0,0.1,0.0,0.0,0.0,0.1
1446036726863484314,100,1446036726861695051,robocape,6.69614428756,0.50754835691,-25.6883192926,0.0,10.0,0.0,0.0,0.0,10.0,0.0,0.0,0.0,10.0,0.00865527354276,0.0111852765783,0.00865527354276,1.0,0.0,0.0,0.0,1.0,0.0,0.0,0.0,1.0,-0.0467028808594,0.899329833984,10.0411193848,0.1,0.0,0.0,0.0,0.1,0.0,0.0,0.0,0.1
1446036726899791648,101,1446036726897706985,robocape,6.70585719481,0.518283189282,-25.6772133216,0.0,10.0,0.0,0.0,0.0,10.0,0.0,0.0,0.0,10.0,0.00838895743375,0.0105194863058,0.00852211548825,1.0,0.0,0.0,0.0,1.0,0.0,0.0,0.0,1.0,-0.0514929199219,0.892144775391,10.039921875,0.1,0.0,0.0,0.0,0.1,0.0,0.0,0.0,0.1
1446036726928854356,102,1446036726927128076,robocape,6.71618727684,0.529411433028,-25.6655972928,0.0,10.0,0.0,0.0,0.0,10.0,0.0,0.0,0.0,10.0,0.00892158965177,0.0109189604693,0.00892158965177,1.0,0.0,0.0,0.0,1.0,0.0,0.0,0.0,1.0,-0.0395178222656,0.893342285156,10.0495019531,0.1,0.0,0.0,0.0,0.1,0.0,0.0,0.0,0.1
1446036726962381273,103,1446036726960603952,robocape,6.72606239568,0.539767248603,-25.6539170134,0.0,10.0,0.0,0.0,0.0,10.0,0.0,0.0,0.0,10.0,0.00852211548825,0.0102531701968,0.00905474770627,1.0,0.0,0.0,0.0,1.0,0.0,0.0,0.0,1.0,-0.0598754882813,0.901724853516,10.060279541,0.1,0.0,0.0,0.0,0.1,0.0,0.0,0.0,0.1
1446036726999022939,104,1446036726997006893,robocape,6.73562654847,0.550825719276,-25.6430726589,0.0,10.0,0.0,0.0,0.0,10.0,0.0,0.0,0.0,10.0,0.00825579937925,0.0107858024148,0.00825579937925,1.0,0.0,0.0,0.0,1.0,0.0,0.0,0.0,1.0,-0.0514929199219,0.910107421875,10.0710571289,0.1,0.0,0.0,0.0,0.1,0.0,0.0,0.0,0.1
1446036727028654481,105,1446036727026947975,robocape,6.74489556693,0.561023663745,-25.6314067562,0.0,10.0,0.0,0.0,0.0,10.0,0.0,0.0,0.0,10.0,0.00798948327024,0.0101200121423,0.00905474770627,1.0,0.0,0.0,0.0,1.0,0.0,0.0,0.0,1.0,-0.047900390625,0.910107421875,10.0650695801,0.1,0.0,0.0,0.0,0.1,0.0,0.0,0.0,0.1
1446036727062764898,106,1446036727060985088,robocape,6.75415864253,0.57207442174,-25.6205587216,0.0,10.0,0.0,0.0,0.0,10.0,0.0,0.0,0.0,10.0,0.00798948327024,0.0107858024148,0.00825579937925,1.0,0.0,0.0,0.0,1.0,0.0,0.0,0.0,1.0,-0.0538879394531,0.894539794922,10.0435144043,0.1,0.0,0.0,0.0,0.1,0.0,0.0,0.0,0.1
1446036727099921939,107,1446036727098144054,robocape,6.76404261355,0.582414658273,-25.6088714298,0.0,10.0,0.0,0.0,0.0,10.0,0.0,0.0,0.0,10.0,0.00852211548825,0.0102531701968,0.00905474770627,1.0,0.0,0.0,0.0,1.0,0.0,0.0,0.0,1.0,-0.0371228027344,0.896934814453,10.0471069336,0.1,0.0,0.0,0.0,0.1,0.0,0.0,0.0,0.1
1446036727128680606,108,1446036727127037048,robocape,6.77331274098,0.593272054551,-25.5977345438,0.0,10.0,0.0,0.0,0.0,10.0,0.0,0.0,0.0,10.0,0.00798948327024,0.0106526443603,0.00852211548825,1.0,0.0,0.0,0.0,1.0,0.0,0.0,0.0,1.0,-0.0514929199219,0.892144775391,10.039921875,0.1,0.0,0.0,0.0,0.1,0.0,0.0,0.0,0.1
1446036727162387189,109,1446036727160573005,robocape,6.78349834676,0.603693553447,-25.5868013359,0.0,10.0,0.0,0.0,0.0,10.0,0.0,0.0,0.0,10.0,0.00878843159726,0.0102531701968,0.00838895743375,1.0,0.0,0.0,0.0,1.0,0.0,0.0,0.0,1.0,-0.0455053710938,0.894539794922,10.0818347168,0.1,0.0,0.0,0.0,0.1,0.0,0.0,0.0,0.1
1446036727198530023,110,1446036727196727991,robocape,6.79384263545,0.614674993049,-25.5754910133,0.0,10.0,0.0,0.0,0.0,10.0,0.0,0.0,0.0,10.0,0.00892158965177,0.0107858024148,0.00865527354276,1.0,0.0,0.0,0.0,1.0,0.0,0.0,0.0,1.0,-0.0251477050781,0.904119873047,10.0818347168,0.1,0.0,0.0,0.0,0.1,0.0,0.0,0.0,0.1
1446036727228869023,111,1446036727227008104,robocape,6.80312495129,0.626066154801,-25.5638215254,0.0,10.0,0.0,0.0,0.0,10.0,0.0,0.0,0.0,10.0,0.00798948327024,0.0111852765783,0.00892158965177,1.0,0.0,0.0,0.0,1.0,0.0,0.0,0.0,1.0,-0.0538879394531,0.905317382813,10.0471069336,0.1,0.0,0.0,0.0,0.1,0.0,0.0,0.0,0.1
1446036727262855815,112,1446036727260593891,robocape,6.81240541499,0.636889640057,-25.552525544,0.0,10.0,0.0,0.0,0.0,10.0,0.0,0.0,0.0,10.0,0.00798948327024,0.0106526443603,0.00865527354276,1.0,0.0,0.0,0.0,1.0,0.0,0.0,0.0,1.0,-0.0502954101563,0.90052734375,10.0387243652,0.1,0.0,0.0,0.0,0.1,0.0,0.0,0.0,0.1
1446036727298046440,113,1446036727296295881,robocape,6.822606778,0.647523526695,-25.5409427552,0.0,10.0,0.0,0.0,0.0,10.0,0.0,0.0,0.0,10.0,0.00878843159726,0.0105194863058,0.00892158965177,1.0,0.0,0.0,0.0,1.0,0.0,0.0,0.0,1.0,-0.0550854492188,0.904119873047,10.0339343262,0.1,0.0,0.0,0.0,0.1,0.0,0.0,0.0,0.1
1446036727328772648,114,1446036727327001094,robocape,6.83189156263,0.658339036456,-25.529643004,0.0,10.0,0.0,0.0,0.0,10.0,0.0,0.0,0.0,10.0,0.00798948327024,0.0106526443603,0.00865527354276,1.0,0.0,0.0,0.0,1.0,0.0,0.0,0.0,1.0,-0.047900390625,0.901724853516,10.0578845215,0.1,0.0,0.0,0.0,0.1,0.0,0.0,0.0,0.1
1446036727362339565,115,1446036727360537052,robocape,6.84118711604,0.668911166423,-25.5176020527,0.0,10.0,0.0,0.0,0.0,10.0,0.0,0.0,0.0,10.0,0.00798948327024,0.0105194863058,0.00932106381528,1.0,0.0,0.0,0.0,1.0,0.0,0.0,0.0,1.0,-0.0514929199219,0.894539794922,10.0506994629,0.1,0.0,0.0,0.0,0.1,0.0,0.0,0.0,0.1
1446036727396254356,116,1446036727394512891,robocape,6.85108343832,0.680054138959,-25.5065652857,0.0,10.0,0.0,0.0,0.0,10.0,0.0,0.0,0.0,10.0,0.00852211548825,0.0109189604693,0.00838895743375,1.0,0.0,0.0,0.0,1.0,0.0,0.0,0.0,1.0,-0.0586779785156,0.895737304688,10.0339343262,0.1,0.0,0.0,0.0,0.1,0.0,0.0,0.0,0.1
1446036727428803856,117,1446036727427061080,robocape,6.86052801832,0.690091494239,-25.4951995785,0.0,10.0,0.0,0.0,0.0,10.0,0.0,0.0,0.0,10.0,0.00812264132474,0.0099868540878,0.00878843159726,1.0,0.0,0.0,0.0,1.0,0.0,0.0,0.0,1.0,-0.0502954101563,0.904119873047,10.0339343262,0.1,0.0,0.0,0.0,0.1,0.0,0.0,0.0,0.1
1446036727462347231,118,1446036727460611104,robocape,6.8696766695,0.701118521764,-25.483249998,0.0,10.0,0.0,0.0,0.0,10.0,0.0,0.0,0.0,10.0,0.00785632521573,0.0109189604693,0.00918790576077,1.0,0.0,0.0,0.0,1.0,0.0,0.0,0.0,1.0,-0.0610729980469,0.8813671875,10.0590820312,0.1,0.0,0.0,0.0,0.1,0.0,0.0,0.0,0.1
1446036727496515940,119,1446036727494704961,robocape,6.8789677831,0.711501718961,-25.4722989335,0.0,10.0,0.0,0.0,0.0,10.0,0.0,0.0,0.0,10.0,0.00798948327024,0.0102531701968,0.00838895743375,1.0,0.0,0.0,0.0,1.0,0.0,0.0,0.0,1.0,-0.047900390625,0.888552246094,10.0339343262,0.1,0.0,0.0,0.0,0.1,0.0,0.0,0.0,0.1
1446036727530077856,120,1446036727528302907,robocape,6.8887196712,0.722479403458,-25.4612729353,0.0,10.0,0.0,0.0,0.0,10.0,0.0,0.0,0.0,10.0,0.00838895743375,0.0107858024148,0.00838895743375,1.0,0.0,0.0,0.0,1.0,0.0,0.0,0.0,1.0,-0.0431103515625,0.895737304688,10.0530944824,0.1,0.0,0.0,0.0,0.1,0.0,0.0,0.0,0.1
1446036727562367648,121,1446036727560666084,robocape,6.89893535812,0.733416858825,-25.4499419784,0.0,10.0,0.0,0.0,0.0,10.0,0.0,0.0,0.0,10.0,0.00878843159726,0.0107858024148,0.00865527354276,1.0,0.0,0.0,0.0,1.0,0.0,0.0,0.0,1.0,-0.0490979003906,0.896934814453,10.0411193848,0.1,0.0,0.0,0.0,0.1,0.0,0.0,0.0,0.1
1446036727595944648,122,1446036727594182968,robocape,6.90915497316,0.744182565596,-25.4384758671,0.0,10.0,0.0,0.0,0.0,10.0,0.0,0.0,0.0,10.0,0.00878843159726,0.0106526443603,0.00878843159726,1.0,0.0,0.0,0.0,1.0,0.0,0.0,0.0,1.0,-0.0514929199219,0.895737304688,10.039921875,0.1,0.0,0.0,0.0,0.1,0.0,0.0,0.0,0.1
1446036727630515690,123,1446036727628722906,robocape,6.91921700475,0.755465046811,-25.4275586498,0.0,10.0,0.0,0.0,0.0,10.0,0.0,0.0,0.0,10.0,0.00865527354276,0.0110521185238,0.00825579937925,1.0,0.0,0.0,0.0,1.0,0.0,0.0,0.0,1.0,-0.0490979003906,0.887354736328,10.0483044434,0.1,0.0,0.0,0.0,0.1,0.0,0.0,0.0,0.1
1446036727662295273,124,1446036727660510063,robocape,6.92913296276,0.766856479356,-25.4163180359,0.0,10.0,0.0,0.0,0.0,10.0,0.0,0.0,0.0,10.0,0.00852211548825,0.0111852765783,0.00852211548825,1.0,0.0,0.0,0.0,1.0,0.0,0.0,0.0,1.0,-0.0311352539063,0.895737304688,10.0686621094,0.1,0.0,0.0,0.0,0.1,0.0,0.0,0.0,0.1
1446036727695970023,125,1446036727694226026,robocape,6.93813641415,0.777478609212,-25.4050161105,0.0,10.0,0.0,0.0,0.0,10.0,0.0,0.0,0.0,10.0,0.00772316716123,0.0105194863058,0.00865527354276,1.0,0.0,0.0,0.0,1.0,0.0,0.0,0.0,1.0,-0.0407153320313,0.889749755859,10.039921875,0.1,0.0,0.0,0.0,0.1,0.0,0.0,0.0,0.1
1446036727731023731,126,1446036727729018926,robocape,6.94744638337,0.787648830987,-25.3937677745,0.0,10.0,0.0,0.0,0.0,10.0,0.0,0.0,0.0,10.0,0.00798948327024,0.0101200121423,0.00865527354276,1.0,0.0,0.0,0.0,1.0,0.0,0.0,0.0,1.0,-0.0359252929688,0.889749755859,10.060279541,0.1,0.0,0.0,0.0,0.1,0.0,0.0,0.0,0.1
1446036727762348690,127,1446036727760591030,robocape,6.95645513112,0.798860716218,-25.3823884664,0.0,10.0,0.0,0.0,0.0,10.0,0.0,0.0,0.0,10.0,0.00772316716123,0.0110521185238,0.00865527354276,1.0,0.0,0.0,0.0,1.0,0.0,0.0,0.0,1.0,-0.047900390625,0.886157226563,10.0674645996,0.1,0.0,0.0,0.0,0.1,0.0,0.0,0.0,0.1
1446036727795647440,128,1446036727793891906,robocape,6.96714538847,0.8093036835,-25.3709481782,0.0,10.0,0.0,0.0,0.0,10.0,0.0,0.0,0.0,10.0,0.00918790576077,0.0103863282513,0.00878843159726,1.0,0.0,0.0,0.0,1.0,0.0,0.0,0.0,1.0,-0.028740234375,0.90052734375,10.0710571289,0.1,0.0,0.0,0.0,0.1,0.0,0.0,0.0,0.1
1446036727833482773,129,1446036727831517934,robocape,6.97784156188,0.819407527145,-25.3592399833,0.0,10.0,0.0,0.0,0.0,10.0,0.0,0.0,0.0,10.0,0.00918790576077,0.0101200121423,0.00905474770627,1.0,0.0,0.0,0.0,1.0,0.0,0.0,0.0,1.0,-0.0371228027344,0.90052734375,10.0518969727,0.1,0.0,0.0,0.0,0.1,0.0,0.0,0.0,0.1
1446036727862689898,130,1446036727860924005,robocape,6.98808046846,0.829824160163,-25.3476442515,0.0,10.0,0.0,0.0,0.0,10.0,0.0,0.0,0.0,10.0,0.00878843159726,0.0103863282513,0.00892158965177,1.0,0.0,0.0,0.0,1.0,0.0,0.0,0.0,1.0,-0.0514929199219,0.906514892578,10.0375268555,0.1,0.0,0.0,0.0,0.1,0.0,0.0,0.0,0.1
1446036727896166398,131,1446036727894419908,robocape,6.99755057563,0.840757670314,-25.33659681,0.0,10.0,0.0,0.0,0.0,10.0,0.0,0.0,0.0,10.0,0.00812264132474,0.0107858024148,0.00838895743375,1.0,0.0,0.0,0.0,1.0,0.0,0.0,0.0,1.0,-0.0443078613281,0.898132324219,10.0363293457,0.1,0.0,0.0,0.0,0.1,0.0,0.0,0.0,0.1
1446036727931616982,132,1446036727929924011,robocape,7.00764554345,0.850980534173,-25.3247130633,0.0,10.0,0.0,0.0,0.0,10.0,0.0,0.0,0.0,10.0,0.00865527354276,0.0102531701968,0.00918790576077,1.0,0.0,0.0,0.0,1.0,0.0,0.0,0.0,1.0,-0.047900390625,0.902922363281,10.0471069336,0.1,0.0,0.0,0.0,0.1,0.0,0.0,0.0,0.1
1446036727962284148,133,1446036727960542917,robocape,7.0165277298,0.861759431965,-25.3124501178,0.0,10.0,0.0,0.0,0.0,10.0,0.0,0.0,0.0,10.0,0.00759000910673,0.0107858024148,0.00945422186978,1.0,0.0,0.0,0.0,1.0,0.0,0.0,0.0,1.0,-0.0502954101563,0.893342285156,10.0722546387,0.1,0.0,0.0,0.0,0.1,0.0,0.0,0.0,0.1
1446036727995971357,134,1446036727994271039,robocape,7.02631627313,0.872626073178,-25.3009426594,0.0,10.0,0.0,0.0,0.0,10.0,0.0,0.0,0.0,10.0,0.00838895743375,0.0107858024148,0.00878843159726,1.0,0.0,0.0,0.0,1.0,0.0,0.0,0.0,1.0,-0.0443078613281,0.90052734375,10.060279541,0.1,0.0,0.0,0.0,0.1,0.0,0.0,0.0,0.1
1446036728033544982,135,1446036728031685113,robocape,7.03687376496,0.88300455685,-25.2891863361,0.0,10.0,0.0,0.0,0.0,10.0,0.0,0.0,0.0,10.0,0.00905474770627,0.0103863282513,0.00905474770627,1.0,0.0,0.0,0.0,1.0,0.0,0.0,0.0,1.0,-0.0467028808594,0.898132324219,10.0471069336,0.1,0.0,0.0,0.0,0.1,0.0,0.0,0.0,0.1
1446036728062195440,136,1446036728060496091,robocape,7.04727674833,0.893713872721,-25.2776935424,0.0,10.0,0.0,0.0,0.0,10.0,0.0,0.0,0.0,10.0,0.00892158965177,0.0106526443603,0.00878843159726,1.0,0.0,0.0,0.0,1.0,0.0,0.0,0.0,1.0,-0.0490979003906,0.893342285156,10.0387243652,0.1,0.0,0.0,0.0,0.1,0.0,0.0,0.0,0.1
1446036728095655023,137,1446036728093978881,robocape,7.05691661127,0.904437556042,-25.2663502638,0.0,10.0,0.0,0.0,0.0,10.0,0.0,0.0,0.0,10.0,0.00825579937925,0.0106526443603,0.00865527354276,1.0,0.0,0.0,0.0,1.0,0.0,0.0,0.0,1.0,-0.0419128417969,0.901724853516,10.0459094238,0.1,0.0,0.0,0.0,0.1,0.0,0.0,0.0,0.1
1446036728133871357,138,1446036728131973028,robocape,7.0667160938,0.915120340521,-25.2547022027,0.0,10.0,0.0,0.0,0.0,10.0,0.0,0.0,0.0,10.0,0.00838895743375,0.0106526443603,0.00892158965177,1.0,0.0,0.0,0.0,1.0,0.0,0.0,0.0,1.0,-0.0502954101563,0.90052734375,10.055489502,0.1,0.0,0.0,0.0,0.1,0.0,0.0,0.0,0.1
1446036728162250690,139,1446036728160514116,robocape,7.07605727904,0.925668661658,-25.2432225266,0.0,10.0,0.0,0.0,0.0,10.0,0.0,0.0,0.0,10.0,0.00798948327024,0.0105194863058,0.00878843159726,1.0,0.0,0.0,0.0,1.0,0.0,0.0,0.0,1.0,-0.0455053710938,0.894539794922,10.0291442871,0.1,0.0,0.0,0.0,0.1,0.0,0.0,0.0,0.1
1446036728195919482,140,1446036728194204092,robocape,7.08586304015,0.936027156297,-25.2314569476,0.0,10.0,0.0,0.0,0.0,10.0,0.0,0.0,0.0,10.0,0.00838895743375,0.0103863282513,0.00905474770627,1.0,0.0,0.0,0.0,1.0,0.0,0.0,0.0,1.0,-0.0455053710938,0.890947265625,10.0506994629,0.1,0.0,0.0,0.0,0.1,0.0,0.0,0.0,0.1
1446036728232272898,141,1446036728230407953,robocape,7.09673061002,0.945990518107,-25.2202002769,0.0,10.0,0.0,0.0,0.0,10.0,0.0,0.0,0.0,10.0,0.00932106381528,0.0099868540878,0.00865527354276,1.0,0.0,0.0,0.0,1.0,0.0,0.0,0.0,1.0,-0.0502954101563,0.904119873047,10.0518969727,0.1,0.0,0.0,0.0,0.1,0.0,0.0,0.0,0.1
1446036728262181940,142,1446036728260462045,robocape,7.10714023607,0.956117413163,-25.2090742619,0.0,10.0,0.0,0.0,0.0,10.0,0.0,0.0,0.0,10.0,0.00892158965177,0.0101200121423,0.00852211548825,1.0,0.0,0.0,0.0,1.0,0.0,0.0,0.0,1.0,-0.0490979003906,0.899329833984,10.0411193848,0.1,0.0,0.0,0.0,0.1,0.0,0.0,0.0,0.1
1446036728295595898,143,1446036728293853044,robocape,7.11724204298,0.967635574233,-25.1982306186,0.0,10.0,0.0,0.0,0.0,10.0,0.0,0.0,0.0,10.0,0.00865527354276,0.0113184346328,0.00812264132474,1.0,0.0,0.0,0.0,1.0,0.0,0.0,0.0,1.0,-0.0586779785156,0.908909912109,10.0698596191,0.1,0.0,0.0,0.0,0.1,0.0,0.0,0.0,0.1
1446036728332537732,144,1446036728330739021,robocape,7.12720286908,0.978628726504,-25.1868359206,0.0,10.0,0.0,0.0,0.0,10.0,0.0,0.0,0.0,10.0,0.00852211548825,0.0109189604693,0.00865527354276,1.0,0.0,0.0,0.0,1.0,0.0,0.0,0.0,1.0,-0.047900390625,0.902922363281,10.055489502,0.1,0.0,0.0,0.0,0.1,0.0,0.0,0.0,0.1
1446036728362428523,145,1446036728360440015,robocape,7.13716595362,0.989617723095,-25.1754392392,0.0,10.0,0.0,0.0,0.0,10.0,0.0,0.0,0.0,10.0,0.00852211548825,0.0109189604693,0.00865527354276,1.0,0.0,0.0,0.0,1.0,0.0,0.0,0.0,1.0,-0.0467028808594,0.892144775391,10.060279541,0.1,0.0,0.0,0.0,0.1,0.0,0.0,0.0,0.1
1446036728395710690,146,1446036728393740892,robocape,7.14622972106,1.00080692184,-25.1632455786,0.0,10.0,0.0,0.0,0.0,10.0,0.0,0.0,0.0,10.0,0.00772316716123,0.0111852765783,0.00932106381528,1.0,0.0,0.0,0.0,1.0,0.0,0.0,0.0,1.0,-0.0419128417969,0.890947265625,10.0255517578,0.1,0.0,0.0,0.0,0.1,0.0,0.0,0.0,0.1
1446036728431385190,147,1446036728429635047,robocape,7.15513016739,1.01102575536,-25.1517887698,0.0,10.0,0.0,0.0,0.0,10.0,0.0,0.0,0.0,10.0,0.00759000910673,0.0102531701968,0.00878843159726,1.0,0.0,0.0,0.0,1.0,0.0,0.0,0.0,1.0,-0.0502954101563,0.90052734375,10.0770446777,0.1,0.0,0.0,0.0,0.1,0.0,0.0,0.0,0.1
1446036728462796690,148,1446036728460855007,robocape,7.16480792022,1.02176078445,-25.1396484606,0.0,10.0,0.0,0.0,0.0,10.0,0.0,0.0,0.0,10.0,0.00825579937925,0.0107858024148,0.00932106381528,1.0,0.0,0.0,0.0,1.0,0.0,0.0,0.0,1.0,-0.0598754882813,0.901724853516,10.0423168945,0.1,0.0,0.0,0.0,0.1,0.0,0.0,0.0,0.1
1446036728495550523,149,1446036728493774890,robocape,7.17540117514,1.03265891461,-25.1276385463,0.0,10.0,0.0,0.0,0.0,10.0,0.0,0.0,0.0,10.0,0.00905474770627,0.0109189604693,0.00918790576077,1.0,0.0,0.0,0.0,1.0,0.0,0.0,0.0,1.0,-0.0359252929688,0.912502441406,10.0447119141,0.1,0.0,0.0,0.0,0.1,0.0,0.0,0.0,0.1
1446036728530793898,150,1446036728529037952,robocape,7.18554033758,1.04293965095,-25.1155514697,0.0,10.0,0.0,0.0,0.0,10.0,0.0,0.0,0.0,10.0,0.00865527354276,0.0103863282513,0.00932106381528,1.0,0.0,0.0,0.0,1.0,0.0,0.0,0.0,1.0,-0.0395178222656,0.906514892578,10.0483044434,0.1,0.0,0.0,0.0,0.1,0.0,0.0,0.0,0.1
1446036728562342982,151,1446036728560488939,robocape,7.19598338982,1.05293794021,-25.1036520917,0.0,10.0,0.0,0.0,0.0,10.0,0.0,0.0,0.0,10.0,0.00892158965177,0.0101200121423,0.00918790576077,1.0,0.0,0.0,0.0,1.0,0.0,0.0,0.0,1.0,-0.0467028808594,0.906514892578,10.0614770508,0.1,0.0,0.0,0.0,0.1,0.0,0.0,0.0,0.1
1446036728595544649,152,1446036728593864917,robocape,7.20549762764,1.06363907557,-25.0925828447,0.0,10.0,0.0,0.0,0.0,10.0,0.0,0.0,0.0,10.0,0.00812264132474,0.0106526443603,0.00838895743375,1.0,0.0,0.0,0.0,1.0,0.0,0.0,0.0,1.0,-0.0550854492188,0.907712402344,10.0662670898,0.1,0.0,0.0,0.0,0.1,0.0,0.0,0.0,0.1
1446036728630429190,153,1446036728628670930,robocape,7.21442322499,1.07405636436,-25.0804711002,0.0,10.0,0.0,0.0,0.0,10.0,0.0,0.0,0.0,10.0,0.00759000910673,0.0105194863058,0.00932106381528,1.0,0.0,0.0,0.0,1.0,0.0,0.0,0.0,1.0,-0.0467028808594,0.892144775391,10.0279467773,0.1,0.0,0.0,0.0,0.1,0.0,0.0,0.0,0.1
1446036728663964274,154,1446036728661531925,robocape,7.2231952527,1.08434016472,-25.0685282566,0.0,10.0,0.0,0.0,0.0,10.0,0.0,0.0,0.0,10.0,0.00745685105222,0.0103863282513,0.00918790576077,1.0,0.0,0.0,0.0,1.0,0.0,0.0,0.0,1.0,-0.047900390625,0.907712402344,10.0447119141,0.1,0.0,0.0,0.0,0.1,0.0,0.0,0.0,0.1
1446036728695734149,155,1446036728693968057,robocape,7.23241893058,1.09482509306,-25.0570187328,0.0,10.0,0.0,0.0,0.0,10.0,0.0,0.0,0.0,10.0,0.00785632521573,0.0105194863058,0.00878843159726,1.0,0.0,0.0,0.0,1.0,0.0,0.0,0.0,1.0,-0.0550854492188,0.901724853516,10.0662670898,0.1,0.0,0.0,0.0,0.1,0.0,0.0,0.0,0.1
1446036728729357190,156,1446036728727327108,robocape,7.24255954291,1.10500928683,-25.0455458152,0.0,10.0,0.0,0.0,0.0,10.0,0.0,0.0,0.0,10.0,0.00865527354276,0.0102531701968,0.00878843159726,1.0,0.0,0.0,0.0,1.0,0.0,0.0,0.0,1.0,-0.0419128417969,0.904119873047,10.0746496582,0.1,0.0,0.0,0.0,0.1,0.0,0.0,0.0,0.1
1446036728764069232,157,1446036728762027978,robocape,7.25239866288,1.11578310079,-25.0339940309,0.0,10.0,0.0,0.0,0.0,10.0,0.0,0.0,0.0,10.0,0.00838895743375,0.0107858024148,0.00878843159726,1.0,0.0,0.0,0.0,1.0,0.0,0.0,0.0,1.0,-0.047900390625,0.913699951172,10.0710571289,0.1,0.0,0.0,0.0,0.1,0.0,0.0,0.0,0.1
1446036728795585399,158,1446036728793850898,robocape,7.26207091621,1.12605394519,-25.0232744251,0.0,10.0,0.0,0.0,0.0,10.0,0.0,0.0,0.0,10.0,0.00825579937925,0.0102531701968,0.00812264132474,1.0,0.0,0.0,0.0,1.0,0.0,0.0,0.0,1.0,-0.0502954101563,0.907712402344,10.0650695801,0.1,0.0,0.0,0.0,0.1,0.0,0.0,0.0,0.1
1446036728829241899,159,1446036728827464103,robocape,7.27205859392,1.13596769077,-25.0121374167,0.0,10.0,0.0,0.0,0.0,10.0,0.0,0.0,0.0,10.0,0.00852211548825,0.0099868540878,0.00852211548825,1.0,0.0,0.0,0.0,1.0,0.0,0.0,0.0,1.0,-0.047900390625,0.902922363281,10.039921875,0.1,0.0,0.0,0.0,0.1,0.0,0.0,0.0,0.1
1446036728867637149,160,1446036728865513086,robocape,7.28160308648,1.14595030968,-25.0003737548,0.0,10.0,0.0,0.0,0.0,10.0,0.0,0.0,0.0,10.0,0.00812264132474,0.0101200121423,0.00905474770627,1.0,0.0,0.0,0.0,1.0,0.0,0.0,0.0,1.0,-0.0467028808594,0.883762207031,10.0698596191,0.1,0.0,0.0,0.0,0.1,0.0,0.0,0.0,0.1
1446036728895796690,161,1446036728893990039,robocape,7.29129349096,1.15613427317,-24.9890431436,0.0,10.0,0.0,0.0,0.0,10.0,0.0,0.0,0.0,10.0,0.00825579937925,0.0102531701968,0.00865527354276,1.0,0.0,0.0,0.0,1.0,0.0,0.0,0.0,1.0,-0.0562829589844,0.888552246094,10.0375268555,0.1,0.0,0.0,0.0,0.1,0.0,0.0,0.0,0.1
1446036728929024940,162,1446036728927290916,robocape,7.30067543843,1.16664886439,-24.9779747636,0.0,10.0,0.0,0.0,0.0,10.0,0.0,0.0,0.0,10.0,0.00798948327024,0.0105194863058,0.00838895743375,1.0,0.0,0.0,0.0,1.0,0.0,0.0,0.0,1.0,-0.0443078613281,0.888552246094,10.0662670898,0.1,0.0,0.0,0.0,0.1,0.0,0.0,0.0,0.1
1446036728963221607,163,1446036728961450099,robocape,7.31052893451,1.17678723734,-24.9663378282,0.0,10.0,0.0,0.0,0.0,10.0,0.0,0.0,0.0,10.0,0.00838895743375,0.0102531701968,0.00892158965177,1.0,0.0,0.0,0.0,1.0,0.0,0.0,0.0,1.0,-0.0550854492188,0.905317382813,10.0387243652,0.1,0.0,0.0,0.0,0.1,0.0,0.0,0.0,0.1
1446036728995687065,164,1446036728993891954,robocape,7.32037321615,1.18744229462,-24.9552462823,0.0,10.0,0.0,0.0,0.0,10.0,0.0,0.0,0.0,10.0,0.00838895743375,0.0106526443603,0.00838895743375,1.0,0.0,0.0,0.0,1.0,0.0,0.0,0.0,1.0,-0.0431103515625,0.901724853516,10.0267492676,0.1,0.0,0.0,0.0,0.1,0.0,0.0,0.0,0.1
1446036729029071107,165,1446036729027398109,robocape,7.32960695645,1.19840872944,-24.9442653379,0.0,10.0,0.0,0.0,0.0,10.0,0.0,0.0,0.0,10.0,0.00785632521573,0.0109189604693,0.00825579937925,1.0,0.0,0.0,0.0,1.0,0.0,0.0,0.0,1.0,-0.0431103515625,0.899329833984,10.0447119141,0.1,0.0,0.0,0.0,0.1,0.0,0.0,0.0,0.1
1446036729065536690,166,1446036729063222885,robocape,7.33946351293,1.20840638069,-24.9327938942,0.0,10.0,0.0,0.0,0.0,10.0,0.0,0.0,0.0,10.0,0.00838895743375,0.0101200121423,0.00878843159726,1.0,0.0,0.0,0.0,1.0,0.0,0.0,0.0,1.0,-0.0490979003906,0.893342285156,10.0387243652,0.1,0.0,0.0,0.0,0.1,0.0,0.0,0.0,0.1
1446036729095609982,167,1446036729093926906,robocape,7.34933036259,1.21895431798,-24.9209398645,0.0,10.0,0.0,0.0,0.0,10.0,0.0,0.0,0.0,10.0,0.00838895743375,0.0106526443603,0.00905474770627,1.0,0.0,0.0,0.0,1.0,0.0,0.0,0.0,1.0,-0.0443078613281,0.889749755859,10.055489502,0.1,0.0,0.0,0.0,0.1,0.0,0.0,0.0,0.1
1446036729129006732,168,1446036729127234935,robocape,7.35919992073,1.22964622603,-24.9090643932,0.0,10.0,0.0,0.0,0.0,10.0,0.0,0.0,0.0,10.0,0.00838895743375,0.0107858024148,0.00905474770627,1.0,0.0,0.0,0.0,1.0,0.0,0.0,0.0,1.0,-0.0538879394531,0.905317382813,10.0375268555,0.1,0.0,0.0,0.0,0.1,0.0,0.0,0.0,0.1
1446036729165335190,169,1446036729163347959,robocape,7.36921842746,1.23946517247,-24.8974557192,0.0,10.0,0.0,0.0,0.0,10.0,0.0,0.0,0.0,10.0,0.00852211548825,0.0099868540878,0.00892158965177,1.0,0.0,0.0,0.0,1.0,0.0,0.0,0.0,1.0,-0.0502954101563,0.899329833984,10.0483044434,0.1,0.0,0.0,0.0,0.1,0.0,0.0,0.0,0.1
1446036729196981440,170,1446036729195197105,robocape,7.37862711409,1.24989141223,-24.8859183055,0.0,10.0,0.0,0.0,0.0,10.0,0.0,0.0,0.0,10.0,0.00798948327024,0.0105194863058,0.00878843159726,1.0,0.0,0.0,0.0,1.0,0.0,0.0,0.0,1.0,-0.0383203125,0.893342285156,10.0339343262,0.1,0.0,0.0,0.0,0.1,0.0,0.0,0.0,0.1
1446036729228982024,171,1446036729227221965,robocape,7.38879577947,1.25974115701,-24.8746088414,0.0,10.0,0.0,0.0,0.0,10.0,0.0,0.0,0.0,10.0,0.00865527354276,0.0099868540878,0.00865527354276,1.0,0.0,0.0,0.0,1.0,0.0,0.0,0.0,1.0,-0.0502954101563,0.905317382813,10.0518969727,0.1,0.0,0.0,0.0,0.1,0.0,0.0,0.0,0.1
1446036729266282690,172,1446036729264342069,robocape,7.39867863365,1.26963910905,-24.8625211445,0.0,10.0,0.0,0.0,0.0,10.0,0.0,0.0,0.0,10.0,0.00838895743375,0.0101200121423,0.00932106381528,1.0,0.0,0.0,0.0,1.0,0.0,0.0,0.0,1.0,-0.0419128417969,0.892144775391,10.0423168945,0.1,0.0,0.0,0.0,0.1,0.0,0.0,0.0,0.1
1446036729295440066,173,1446036729293673992,robocape,7.40870218126,1.27946218154,-24.8510567242,0.0,10.0,0.0,0.0,0.0,10.0,0.0,0.0,0.0,10.0,0.00852211548825,0.0099868540878,0.00878843159726,1.0,0.0,0.0,0.0,1.0,0.0,0.0,0.0,1.0,-0.047900390625,0.904119873047,10.0483044434,0.1,0.0,0.0,0.0,0.1,0.0,0.0,0.0,0.1
1446036729329002816,174,1446036729327236890,robocape,7.41843289244,1.28922382362,-24.8391364719,0.0,10.0,0.0,0.0,0.0,10.0,0.0,0.0,0.0,10.0,0.00825579937925,0.0099868540878,0.00918790576077,1.0,0.0,0.0,0.0,1.0,0.0,0.0,0.0,1.0,-0.0526904296875,0.894539794922,10.039921875,0.1,0.0,0.0,0.0,0.1,0.0,0.0,0.0,0.1
1446036729368258732,175,1446036729366333961,robocape,7.4281602073,1.29946366961,-24.8274580135,0.0,10.0,0.0,0.0,0.0,10.0,0.0,0.0,0.0,10.0,0.00825579937925,0.0103863282513,0.00892158965177,1.0,0.0,0.0,0.0,1.0,0.0,0.0,0.0,1.0,-0.0383203125,0.90052734375,10.0375268555,0.1,0.0,0.0,0.0,0.1,0.0,0.0,0.0,0.1
1446036729396062566,176,1446036729394356966,robocape,7.43911181662,1.31014284486,-24.8157183733,0.0,10.0,0.0,0.0,0.0,10.0,0.0,0.0,0.0,10.0,0.00932106381528,0.0107858024148,0.00892158965177,1.0,0.0,0.0,0.0,1.0,0.0,0.0,0.0,1.0,-0.0467028808594,0.894539794922,10.0674645996,0.1,0.0,0.0,0.0,0.1,0.0,0.0,0.0,0.1
1446036729428995982,177,1446036729427232027,robocape,7.44958497426,1.32034260979,-24.8049637937,0.0,10.0,0.0,0.0,0.0,10.0,0.0,0.0,0.0,10.0,0.00892158965177,0.0102531701968,0.00812264132474,1.0,0.0,0.0,0.0,1.0,0.0,0.0,0.0,1.0,-0.0490979003906,0.907712402344,10.0698596191,0.1,0.0,0.0,0.0,0.1,0.0,0.0,0.0,0.1
1446036729466747357,178,1446036729465044021,robocape,7.45930312694,1.33125783077,-24.7939569771,0.0,10.0,0.0,0.0,0.0,10.0,0.0,0.0,0.0,10.0,0.00825579937925,0.0109189604693,0.00825579937925,1.0,0.0,0.0,0.0,1.0,0.0,0.0,0.0,1.0,-0.047900390625,0.901724853516,10.0447119141,0.1,0.0,0.0,0.0,0.1,0.0,0.0,0.0,0.1
1446036729495577107,179,1446036729493874073,robocape,7.46948432513,1.34200194371,-24.7828166599,0.0,10.0,0.0,0.0,0.0,10.0,0.0,0.0,0.0,10.0,0.00865527354276,0.0107858024148,0.00838895743375,1.0,0.0,0.0,0.0,1.0,0.0,0.0,0.0,1.0,-0.0467028808594,0.905317382813,10.0626745605,0.1,0.0,0.0,0.0,0.1,0.0,0.0,0.0,0.1
1446036729529190316,180,1446036729527149915,robocape,7.47981329077,1.35172780174,-24.771964646,0.0,10.0,0.0,0.0,0.0,10.0,0.0,0.0,0.0,10.0,0.00878843159726,0.00985369603329,0.00825579937925,1.0,0.0,0.0,0.0,1.0,0.0,0.0,0.0,1.0,-0.047900390625,0.902922363281,10.055489502,0.1,0.0,0.0,0.0,0.1,0.0,0.0,0.0,0.1
1446036729565186066,181,1446036729563414096,robocape,7.49046054385,1.36259210989,-24.7606490322,0.0,10.0,0.0,0.0,0.0,10.0,0.0,0.0,0.0,10.0,0.00905474770627,0.0109189604693,0.00852211548825,1.0,0.0,0.0,0.0,1.0,0.0,0.0,0.0,1.0,0.00359252929688,0.774788818359,10.080637207,0.1,0.0,0.0,0.0,0.1,0.0,0.0,0.0,0.1
1446036729595699816,182,1446036729593894958,robocape,7.50112732794,1.37305990925,-24.7486144774,0.0,10.0,0.0,0.0,0.0,10.0,0.0,0.0,0.0,10.0,0.00905474770627,0.0106526443603,0.00918790576077,1.0,0.0,0.0,0.0,1.0,0.0,0.0,0.0,1.0,-0.0706530761719,0.888552246094,10.0674645996,0.1,0.0,0.0,0.0,0.1,0.0,0.0,0.0,0.1
1446036729629077941,183,1446036729627216100,robocape,7.5120937242,1.38341478683,-24.7369004325,0.0,10.0,0.0,0.0,0.0,10.0,0.0,0.0,0.0,10.0,0.00932106381528,0.0105194863058,0.00892158965177,1.0,0.0,0.0,0.0,1.0,0.0,0.0,0.0,1.0,-0.0646655273438,0.912502441406,10.0650695801,0.1,0.0,0.0,0.0,0.1,0.0,0.0,0.0,0.1
1446036729664354107,184,1446036729662586927,robocape,7.52241877469,1.39288863503,-24.726534718,0.0,10.0,0.0,0.0,0.0,10.0,0.0,0.0,0.0,10.0,0.00878843159726,0.00958737992429,0.00785632521573,1.0,0.0,0.0,0.0,1.0,0.0,0.0,0.0,1.0,-0.0119750976563,0.883762207031,10.0710571289,0.1,0.0,0.0,0.0,0.1,0.0,0.0,0.0,0.1
1446036729695567274,185,1446036729693736076,robocape,7.53178216289,1.4051166132,-24.7119444259,0.0,10.0,0.0,0.0,0.0,10.0,0.0,0.0,0.0,10.0,0.00785632521573,0.0125168571234,0.0111852765783,1.0,0.0,0.0,0.0,1.0,0.0,0.0,0.0,1.0,-0.243094482422,0.918489990234,10.0997973633,0.1,0.0,0.0,0.0,0.1,0.0,0.0,0.0,0.1
1446036729729558899,186,1446036729727669954,robocape,7.55289813485,1.41542581623,-24.7034613094,0.0,10.0,0.0,0.0,0.0,10.0,0.0,0.0,0.0,10.0,0.018242653467,0.0101200121423,0.00612527050718,1.0,0.0,0.0,0.0,1.0,0.0,0.0,0.0,1.0,0.0383203125,0.833466796875,10.1141674805,0.1,0.0,0.0,0.0,0.1,0.0,0.0,0.0,0.1
1446036729763531107,187,1446036729761826992,robocape,7.59078654186,1.43652262516,-24.707665909,0.0,10.0,0.0,0.0,0.0,10.0,0.0,0.0,0.0,10.0,0.0331563555715,0.018242653467,-0.00612527050718,1.0,0.0,0.0,0.0,1.0,0.0,0.0,0.0,1.0,-2.42016723633,0.877774658203,10.2578686523,0.1,0.0,0.0,0.0,0.1,0.0,0.0,0.0,0.1
1446036729795776399,188,1446036729793868064,robocape,7.60753203533,1.4504116589,-24.685282673,0.0,10.0,0.0,0.0,0.0,10.0,0.0,0.0,0.0,10.0,0.0141147537774,0.0149137021044,0.017710021249,1.0,0.0,0.0,0.0,1.0,0.0,0.0,0.0,1.0,-1.97948364258,0.949625244141,10.3404968262,0.1,0.0,0.0,0.0,0.1,0.0,0.0,0.0,0.1
1446036729829267982,189,1446036729827508926,robocape,7.61148750542,1.43959163228,-24.6678256796,0.0,10.0,0.0,0.0,0.0,10.0,0.0,0.0,0.0,10.0,0.00306263525359,-0.00759000910673,0.016378440704,1.0,0.0,0.0,0.0,1.0,0.0,0.0,0.0,1.0,-2.44052490234,1.17236206055,10.2734362793,0.1,0.0,0.0,0.0,0.1,0.0,0.0,0.0,0.1
1446036729865913066,190,1446036729863611936,robocape,7.59020484761,1.43861614385,-24.6407030395,0.0,10.0,0.0,0.0,0.0,10.0,0.0,0.0,0.0,10.0,-0.0191747598486,0.00226368692657,0.0235689756472,1.0,0.0,0.0,0.0,1.0,0.0,0.0,0.0,1.0,-1.81183227539,1.00471069336,10.3392993164,0.1,0.0,0.0,0.0,0.1,0.0,0.0,0.0,0.1
1446036729897034649,191,1446036729895273923,robocape,7.58311652575,1.44533782939,-24.6254631947,0.0,10.0,0.0,0.0,0.0,10.0,0.0,0.0,0.0,10.0,-0.00652474467069,0.00772316716123,0.0123836990689,1.0,0.0,0.0,0.0,1.0,0.0,0.0,0.0,1.0,-1.26337280273,0.834664306641,10.039921875,0.1,0.0,0.0,0.0,0.1,0.0,0.0,0.0,0.1
1446036729929083441,192,1446036729927313089,robocape,7.61596827722,1.39963742152,-24.599383571,0.0,10.0,0.0,0.0,0.0,10.0,0.0,0.0,0.0,10.0,0.0280963495003,-0.0375505713701,0.0279631914458,1.0,0.0,0.0,0.0,1.0,0.0,0.0,0.0,1.0,-1.78788208008,0.746048583984,10.100994873,0.1,0.0,0.0,0.0,0.1,0.0,0.0,0.0,0.1
1446036729962519232,193,1446036729960772037,robocape,7.70803652235,1.35464265955,-24.603280688,0.0,10.0,0.0,0.0,0.0,10.0,0.0,0.0,0.0,10.0,0.0804274649204,-0.0403468905147,0.00199737081756,1.0,0.0,0.0,0.0,1.0,0.0,0.0,0.0,1.0,-1.0382409668,0.525706787109,9.35494628906,0.1,0.0,0.0,0.0,0.1,0.0,0.0,0.0,0.1
1446036729997290691,194,1446036729995472908,robocape,7.83128623691,1.36461856602,-24.5732327929,0.0,10.0,0.0,0.0,0.0,10.0,0.0,0.0,0.0,10.0,0.106925917767,0.0123836990689,0.0247673981377,1.0,0.0,0.0,0.0,1.0,0.0,0.0,0.0,1.0,-1.65855102539,1.00590820312,10.9763745117,0.1,0.0,0.0,0.0,0.1,0.0,0.0,0.0,0.1
1446036730029133274,195,1446036730027442932,robocape,7.99245550088,1.3598185006,-24.5843953764,0.0,10.0,0.0,0.0,0.0,10.0,0.0,0.0,0.0,10.0,0.140881221665,-0.00559263828917,-0.00905474770627,1.0,0.0,0.0,0.0,1.0,0.0,0.0,0.0,1.0,-2.91952880859,0.520916748047,10.0291442871,0.1,0.0,0.0,0.0,0.1,0.0,0.0,0.0,0.1
1446036730062476149,196,1446036730060791015,robocape,8.20033513594,1.46560842536,-24.5455183238,0.0,10.0,0.0,0.0,0.0,10.0,0.0,0.0,0.0,10.0,0.180562321907,0.0985369603329,0.0202400242846,1.0,0.0,0.0,0.0,1.0,0.0,0.0,0.0,1.0,-4.39007080078,0.496966552734,10.9248815918,0.1,0.0,0.0,0.0,0.1,0.0,0.0,0.0,0.1
1446036730096676191,197,1446036730094861984,robocape,8.48567852161,1.5375790795,-24.5166192241,0.0,10.0,0.0,0.0,0.0,10.0,0.0,0.0,0.0,10.0,0.24833977165,0.0675111336335,0.015579492377,1.0,0.0,0.0,0.0,1.0,0.0,0.0,0.0,1.0,-2.37705688477,0.883762207031,11.1583959961,0.1,0.0,0.0,0.0,0.1,0.0,0.0,0.0,0.1
1446036730129013899,198,1446036730127244949,robocape,8.82535064097,1.71038762181,-24.5055736648,0.0,10.0,0.0,0.0,0.0,10.0,0.0,0.0,0.0,10.0,0.296143513217,0.154995975443,-0.0138484376684,1.0,0.0,0.0,0.0,1.0,0.0,0.0,0.0,1.0,-1.36156860352,0.425115966797,10.6087390137,0.1,0.0,0.0,0.0,0.1,0.0,0.0,0.0,0.1
1446036730162507691,199,1446036730160732984,robocape,9.27595315495,1.76330802377,-24.4555953312,0.0,10.0,0.0,0.0,0.0,10.0,0.0,0.0,0.0,10.0,0.391884154405,0.0539290120741,0.0355532005526,1.0,0.0,0.0,0.0,1.0,0.0,0.0,0.0,1.0,-0.926872558594,0.774788818359,11.5763269043,0.1,0.0,0.0,0.0,0.1,0.0,0.0,0.0,0.1
1446036730199108441,200,1446036730197443962,robocape,9.8548952485,1.66838887739,-24.4998161796,0.0,10.0,0.0,0.0,0.0,10.0,0.0,0.0,0.0,10.0,0.506400081279,-0.0906806351172,-0.0238352917562,1.0,0.0,0.0,0.0,1.0,0.0,0.0,0.0,1.0,-2.86444335938,0.280217285156,9.21124511719,0.1,0.0,0.0,0.0,0.1,0.0,0.0,0.0,0.1
1446036730229101483,201,1446036730227323055,robocape,10.5647767804,1.61599587342,-24.4927907015,0.0,10.0,0.0,0.0,0.0,10.0,0.0,0.0,0.0,10.0,0.619318111498,-0.0452737385313,0.0143810698864,1.0,0.0,0.0,0.0,1.0,0.0,0.0,0.0,1.0,-3.08119262695,-0.106578369141,10.8075256348,0.1,0.0,0.0,0.0,0.1,0.0,0.0,0.0,0.1
1446036730262333816,202,1446036730260581016,robocape,11.4568243423,1.80716848093,-24.4613977671,0.0,10.0,0.0,0.0,0.0,10.0,0.0,0.0,0.0,10.0,0.777643038303,0.174170735291,-0.00599211245268,1.0,0.0,0.0,0.0,1.0,0.0,0.0,0.0,1.0,-4.44276123047,0.754431152344,10.0566870117,0.1,0.0,0.0,0.0,0.1,0.0,0.0,0.0,0.1
1446036730299568024,203,1446036730297153949,robocape,12.5878936749,1.98874955191,-24.4848695242,0.0,10.0,0.0,0.0,0.0,10.0,0.0,0.0,0.0,10.0,0.98776644831,0.156194397933,-0.0541953281831,1.0,0.0,0.0,0.0,1.0,0.0,0.0,0.0,1.0,-2.52794311523,0.428708496094,10.4051623535,0.1,0.0,0.0,0.0,0.1,0.0,0.0,0.0,0.1
1446036730330075441,204,1446036730328370094,robocape,14.0624653197,2.1652083641,-24.5167355235,0.0,10.0,0.0,0.0,0.0,10.0,0.0,0.0,0.0,10.0,1.28790470316,0.149270179099,-0.0639158661619,1.0,0.0,0.0,0.0,1.0,0.0,0.0,0.0,1.0,-1.68369873047,0.216749267578,8.6987109375,0.1,0.0,0.0,0.0,0.1,0.0,0.0,0.0,0.1
1446036730362436399,205,1446036730360673904,robocape,15.9211547868,2.21699682889,-24.5942786771,0.0,10.0,0.0,0.0,0.0,10.0,0.0,0.0,0.0,10.0,1.62479458106,0.0279631914458,-0.0774979877213,1.0,0.0,0.0,0.0,1.0,0.0,0.0,0.0,1.0,0.107775878906,0.239501953125,9.84951782227,0.1,0.0,0.0,0.0,0.1,0.0,0.0,0.0,0.1
1446036730400547066,206,1446036730398551940,robocape,18.3287254443,2.24033895308,-24.7188985958,0.0,10.0,0.0,0.0,0.0,10.0,0.0,0.0,0.0,10.0,2.10562831587,-0.0117179087963,-0.110121711075,1.0,0.0,0.0,0.0,1.0,0.0,0.0,0.0,1.0,-0.492176513672,-0.346080322266,8.56219482422,0.1,0.0,0.0,0.0,0.1,0.0,0.0,0.0,0.1
1446036730428773358,207,1446036730427062988,robocape,21.31265838,2.19343274715,-24.8853222845,0.0,10.0,0.0,0.0,0.0,10.0,0.0,0.0,0.0,10.0,2.61029734244,-0.0893490545722,-0.12210593598,1.0,0.0,0.0,0.0,1.0,0.0,0.0,0.0,1.0,2.80576538086,-0.586779785156,7.45090576172,0.1,0.0,0.0,0.0,0.1,0.0,0.0,0.0,0.1
1446036730464097983,208,1446036730461414098,robocape,25.0751290179,2.16446751594,-25.0284254775,0.0,10.0,0.0,0.0,0.0,10.0,0.0,0.0,0.0,10.0,3.28940342041,-0.0733700880317,-0.104395914731,1.0,0.0,0.0,0.0,1.0,0.0,0.0,0.0,1.0,0.439486083984,-0.656235351563,8.97892822266,0.1,0.0,0.0,0.0,0.1,0.0,0.0,0.0,0.1
1446036730499321316,209,1446036730497334003,robocape,29.0024510321,1.59997237696,-24.2660547068,0.0,10.0,0.0,0.0,0.0,10.0,0.0,0.0,0.0,10.0,3.40631619227,-0.151933340189,0.824514673489,1.0,0.0,0.0,0.0,1.0,0.0,0.0,0.0,1.0,3.38655761719,10.5680236816,5.73966430664,0.1,0.0,0.0,0.0,0.1,0.0,0.0,0.0,0.1
1446036730529076941,210,1446036730527426958,robocape,30.1557663562,1.64922886136,-21.5212678138,0.0,10.0,0.0,0.0,0.0,10.0,0.0,0.0,0.0,10.0,0.937565861762,1.22065988564,2.06088720956,1.0,0.0,0.0,0.0,1.0,0.0,0.0,0.0,1.0,4.75770629883,19.6194012451,7.51916381836,0.1,0.0,0.0,0.0,0.1,0.0,0.0,0.0,0.1
1446036730562298358,211,1446036730560601949,robocape,28.508639384,1.99240889462,-18.1615691151,0.0,10.0,0.0,0.0,0.0,10.0,0.0,0.0,0.0,10.0,-1.53224973318,1.7060209943,2.40403551601,1.0,0.0,0.0,0.0,1.0,0.0,0.0,0.0,1.0,-7.10003540039,10.0087866211,10.6494543457,0.1,0.0,0.0,0.0,0.1,0.0,0.0,0.0,0.1
1446036730599237983,212,1446036730597194910,robocape,26.9292067321,2.46433510607,-15.5197438476,0.0,10.0,0.0,0.0,0.0,10.0,0.0,0.0,0.0,10.0,-1.46993176367,1.4516891102,1.84024431324,1.0,0.0,0.0,0.0,1.0,0.0,0.0,0.0,1.0,-0.350870361328,0.398770751953,8.46639404297,0.1,0.0,0.0,0.0,0.1,0.0,0.0,0.0,0.1
1446036730628735858,213,1446036730627094984,robocape,25.9095906159,2.89161227203,-13.1889628928,0.0,10.0,0.0,0.0,0.0,10.0,0.0,0.0,0.0,10.0,-0.987233816092,1.25514782175,1.64543407951,1.0,0.0,0.0,0.0,1.0,0.0,0.0,0.0,1.0,-5.53968017578,0.437091064453,11.0661877441,0.1,0.0,0.0,0.0,0.1,0.0,0.0,0.0,0.1
1446036730662425066,214,1446036730660624027,robocape,25.5683156553,2.9827661406,-11.2024526525,0.0,10.0,0.0,0.0,0.0,10.0,0.0,0.0,0.0,10.0,-0.389087835261,0.827577308742,1.52306182742,1.0,0.0,0.0,0.0,1.0,0.0,0.0,0.0,1.0,2.88360351563,-0.516126708984,11.0350524902,0.1,0.0,0.0,0.0,0.1,0.0,0.0,0.0,0.1
1446036730698007400,215,1446036730696053028,robocape,25.777784351,3.19661724933,-9.56604356187,0.0,10.0,0.0,0.0,0.0,10.0,0.0,0.0,0.0,10.0,0.103596966404,0.796018849825,1.19948775497,1.0,0.0,0.0,0.0,1.0,0.0,0.0,0.0,1.0,2.18545532227,-0.308957519531,9.56331298828,0.1,0.0,0.0,0.0,0.1,0.0,0.0,0.0,0.1
1446036730728858525,216,1446036730727122068,robocape,26.6851839204,3.41358129571,-8.14189402448,0.0,10.0,0.0,0.0,0.0,10.0,0.0,0.0,0.0,10.0,0.717988229885,0.729173506464,1.02385228108,1.0,0.0,0.0,0.0,1.0,0.0,0.0,0.0,1.0,2.1076171875,-0.0874182128906,9.49265991211,0.1,0.0,0.0,0.0,0.1,0.0,0.0,0.0,0.1
1446036730765309108,217,1446036730763542890,robocape,28.3301580048,3.40694767763,-6.83426237171,0.0,10.0,0.0,0.0,0.0,10.0,0.0,0.0,0.0,10.0,1.36553584894,0.52064799311,1.01319963672,1.0,0.0,0.0,0.0,1.0,0.0,0.0,0.0,1.0,-3.17579589844,-0.316142578125,9.30944091797,0.1,0.0,0.0,0.0,0.1,0.0,0.0,0.0,0.1
1446036730795633733,218,1446036730793768882,robocape,30.6254269534,3.44306903279,-5.54989449987,0.0,10.0,0.0,0.0,0.0,10.0,0.0,0.0,0.0,10.0,1.93412074167,0.579903327365,0.957539569938,1.0,0.0,0.0,0.0,1.0,0.0,0.0,0.0,1.0,-4.06434814453,5.46782958984,9.18130737305,0.1,0.0,0.0,0.0,0.1,0.0,0.0,0.0,0.1
1446036730829161275,219,1446036730827374935,robocape,32.1909633253,3.25294067747,-2.04442133107,0.0,10.0,0.0,0.0,0.0,10.0,0.0,0.0,0.0,10.0,1.18191089178,1.44103646584,2.69924692285,1.0,0.0,0.0,0.0,1.0,0.0,0.0,0.0,1.0,7.27247680664,3.79131591797,4.47150146484,0.1,0.0,0.0,0.0,0.1,0.0,0.0,0.0,0.1
1446036730866555525,220,1446036730864762067,robocape,34.1536181572,4.30603986342,2.60463340939,0.0,10.0,0.0,0.0,0.0,10.0,0.0,0.0,0.0,10.0,1.43544382755,3.04319417763,2.84971552444,1.0,0.0,0.0,0.0,1.0,0.0,0.0,0.0,1.0,-2.54949829102,10.6853796387,6.76114013672,0.1,0.0,0.0,0.0,0.1,0.0,0.0,0.0,0.1
1446036730895966941,221,1446036730894224882,robocape,34.198513767,4.99411515048,6.03251083244,0.0,10.0,0.0,0.0,0.0,10.0,0.0,0.0,0.0,10.0,-0.214384467751,2.2188126622,2.09737251649,1.0,0.0,0.0,0.0,1.0,0.0,0.0,0.0,1.0,-2.24413330078,6.50966308594,18.5781665039,0.1,0.0,0.0,0.0,0.1,0.0,0.0,0.0,0.1
1446036730929093233,222,1446036730927337884,robocape,33.7983734329,4.89241785754,8.74811917109,0.0,10.0,0.0,0.0,0.0,10.0,0.0,0.0,0.0,10.0,-0.563258570552,1.2389025391,2.01175188745,1.0,0.0,0.0,0.0,1.0,0.0,0.0,0.0,1.0,1.26696533203,1.37953125,9.59564575195,0.1,0.0,0.0,0.0,0.1,0.0,0.0,0.0,0.1
1446036730963685733,223,1446036730961889982,robocape,33.7154800236,5.05474966364,11.782136612,0.0,10.0,0.0,0.0,0.0,10.0,0.0,0.0,0.0,10.0,-0.313054586139,1.59536665101,2.10589463198,1.0,0.0,0.0,0.0,1.0,0.0,0.0,0.0,1.0,4.21403686523,1.20110229492,11.2410241699,0.1,0.0,0.0,0.0,0.1,0.0,0.0,0.0,0.1
1446036730997473525,224,1446036730995245933,robocape,33.7969653366,4.80489778228,14.7922994595,0.0,10.0,0.0,0.0,0.0,10.0,0.0,0.0,0.0,10.0,-0.165515461748,1.25434887343,2.30909382315,1.0,0.0,0.0,0.0,1.0,0.0,0.0,0.0,1.0,-0.716110839844,1.34959350586,10.2411035156,0.1,0.0,0.0,0.0,0.1,0.0,0.0,0.0,0.1
1446036731028912983,225,1446036731027164936,robocape,34.0646182883,4.79717671228,18.0718173424,0.0,10.0,0.0,0.0,0.0,10.0,0.0,0.0,0.0,10.0,-0.017177389031,1.58564611303,2.37021337017,1.0,0.0,0.0,0.0,1.0,0.0,0.0,0.0,1.0,-1.56155273438,2.99736694336,11.6014746094,0.1,0.0,0.0,0.0,0.1,0.0,0.0,0.0,0.1
1446036731062830941,226,1446036731061018943,robocape,34.52330955,4.87346725409,21.3978100548,0.0,10.0,0.0,0.0,0.0,10.0,0.0,0.0,0.0,10.0,0.144077014973,1.68990886971,2.34797597507,1.0,0.0,0.0,0.0,1.0,0.0,0.0,0.0,1.0,-3.72784790039,1.73159912109,9.97765136719,0.1,0.0,0.0,0.0,0.1,0.0,0.0,0.0,0.1
1446036731097662691,227,1446036731095295906,robocape,35.2263064355,4.64015153989,24.5141729377,0.0,10.0,0.0,0.0,0.0,10.0,0.0,0.0,0.0,10.0,0.377503084519,1.36620163921,2.35103861032,1.0,0.0,0.0,0.0,1.0,0.0,0.0,0.0,1.0,2.31478637695,0.0778381347656,10.6757995605,0.1,0.0,0.0,0.0,0.1,0.0,0.0,0.0,0.1
1446036731129180858,228,1446036731127389907,robocape,36.2008969897,4.47943348002,27.675811072,0.0,10.0,0.0,0.0,0.0,10.0,0.0,0.0,0.0,10.0,0.62144864037,1.48098388219,2.32254278666,1.0,0.0,0.0,0.0,1.0,0.0,0.0,0.0,1.0,1.67172363281,1.43222167969,9.11424682617,0.1,0.0,0.0,0.0,0.1,0.0,0.0,0.0,0.1
1446036731162692900,229,1446036731160924911,robocape,37.3647739972,4.21649819253,30.7791403973,0.0,10.0,0.0,0.0,0.0,10.0,0.0,0.0,0.0,10.0,0.801744646168,1.41706801603,2.31228961646,1.0,0.0,0.0,0.0,1.0,0.0,0.0,0.0,1.0,2.11001220703,1.30169311523,9.35135375977,0.1,0.0,0.0,0.0,0.1,0.0,0.0,0.0,0.1
1446036731196846150,230,1446036731195000886,robocape,38.8737783325,3.9576965861,33.9467648677,0.0,10.0,0.0,0.0,0.0,10.0,0.0,0.0,0.0,10.0,1.11213607122,1.51001233807,2.32027909973,1.0,0.0,0.0,0.0,1.0,0.0,0.0,0.0,1.0,-0.856219482422,1.14721435547,10.0063916016,0.1,0.0,0.0,0.0,0.1,0.0,0.0,0.0,0.1
1446036731228975483,231,1446036731227210044,robocape,40.8783272328,3.90319426941,36.8022827234,0.0,10.0,0.0,0.0,0.0,10.0,0.0,0.0,0.0,10.0,1.57219714953,1.55475344439,1.9410449605,1.0,0.0,0.0,0.0,1.0,0.0,0.0,0.0,1.0,-1.05380859375,0.313747558594,7.9742175293,0.1,0.0,0.0,0.0,0.1,0.0,0.0,0.0,0.1
1446036731262357150,232,1446036731260600090,robocape,43.5667308576,4.0334110329,39.5494882796,0.0,10.0,0.0,0.0,0.0,10.0,0.0,0.0,0.0,10.0,2.17420471394,1.6984309852,1.68910992138,1.0,0.0,0.0,0.0,1.0,0.0,0.0,0.0,1.0,0.233514404297,0.395178222656,10.2123632813,0.1,0.0,0.0,0.0,0.1,0.0,0.0,0.0,0.1
1446036731296553941,233,1446036731294641017,robocape,46.9617856708,4.09224329169,42.0626344788,0.0,10.0,0.0,0.0,0.0,10.0,0.0,0.0,0.0,10.0,2.80204494093,1.5936355963,1.50082443231,1.0,0.0,0.0,0.0,1.0,0.0,0.0,0.0,1.0,4.44036621094,-0.270637207031,7.92751464844,0.1,0.0,0.0,0.0,0.1,0.0,0.0,0.0,0.1
1446036731329004275,234,1446036731327234983,robocape,51.0764323436,4.42286112864,44.7923528113,0.0,10.0,0.0,0.0,0.0,10.0,0.0,0.0,0.0,10.0,3.40791408892,1.9999008206,1.32212632317,1.0,0.0,0.0,0.0,1.0,0.0,0.0,0.0,1.0,6.01509155273,1.01429077148,10.6722070313,0.1,0.0,0.0,0.0,0.1,0.0,0.0,0.0,0.1
1446036731362463608,235,1446036731360703945,robocape,56.3291319366,4.97262582256,47.8399081854,0.0,10.0,0.0,0.0,0.0,10.0,0.0,0.0,0.0,10.0,4.35879575613,2.44970872871,1.14622453317,1.0,0.0,0.0,0.0,1.0,0.0,0.0,0.0,1.0,6.45936767578,-0.0119750976563,4.58286987305,0.1,0.0,0.0,0.0,0.1,0.0,0.0,0.0,0.1
1446036731395649483,236,1446036731393929958,robocape,61.6363293264,5.65543179947,51.0249611848,0.0,10.0,0.0,0.0,0.0,10.0,0.0,0.0,0.0,10.0,4.36318997193,2.71509273134,0.859268925714,1.0,0.0,0.0,0.0,1.0,0.0,0.0,0.0,1.0,4.86428466797,19.6194012451,2.99497192383,0.1,0.0,0.0,0.0,0.1,0.0,0.0,0.0,0.1
1446036731429309525,237,1446036731427558898,robocape,62.837011189,5.06619119875,55.0594811753,0.0,10.0,0.0,0.0,0.0,10.0,0.0,0.0,0.0,10.0,0.701343473072,2.83533445455,2.1389178295,1.0,0.0,0.0,0.0,1.0,0.0,0.0,0.0,1.0,2.44531494141,19.6194012451,-0.188009033203,0.1,0.0,0.0,0.0,0.1,0.0,0.0,0.0,0.1
1446036731463529983,238,1446036731461751937,robocape,63.0894641915,5.46849193345,59.4626960608,0.0,10.0,0.0,0.0,0.0,10.0,0.0,0.0,0.0,10.0,-0.150868075753,3.58541377557,1.39230061789,1.0,0.0,0.0,0.0,1.0,0.0,0.0,0.0,1.0,6.13843505859,3.03209472656,1.92439819336,0.1,0.0,0.0,0.0,0.1,0.0,0.0,0.0,0.1
1446036731495771733,239,1446036731494035005,robocape,63.9376614267,7.03559933084,64.0018216578,0.0,10.0,0.0,0.0,0.0,10.0,0.0,0.0,0.0,10.0,0.280963495003,4.21618347976,0.366184649886,1.0,0.0,0.0,0.0,1.0,0.0,0.0,0.0,1.0,7.75267822266,-0.78556640625,0.623902587891,0.1,0.0,0.0,0.0,0.1,0.0,0.0,0.0,0.1
1446036731529848108,240,1446036731527245998,robocape,65.6152134944,7.4274043404,68.49378916,0.0,10.0,0.0,0.0,0.0,10.0,0.0,0.0,0.0,10.0,0.933704278182,3.68488284229,1.29669313476,1.0,0.0,0.0,0.0,1.0,0.0,0.0,0.0,1.0,4.50862426758,16.6358056641,0.86220703125,0.1,0.0,0.0,0.0,0.1,0.0,0.0,0.0,0.1
1446036731566402983,241,1446036731564002037,robocape,66.1120768152,7.60064291027,73.0307276069,0.0,10.0,0.0,0.0,0.0,10.0,0.0,0.0,0.0,10.0,-0.124502780961,3.6511938545,1.44223488833,1.0,0.0,0.0,0.0,1.0,0.0,0.0,0.0,1.0,3.7206628418,10.2686462402,1.83218994141,0.1,0.0,0.0,0.0,0.1,0.0,0.0,0.0,0.1
1446036731595896275,242,1446036731594104051,robocape,66.6908603805,7.90269369046,77.5294649272,0.0,10.0,0.0,0.0,0.0,10.0,0.0,0.0,0.0,10.0,-0.0672448175245,3.6851491584,1.2713931044,1.0,0.0,0.0,0.0,1.0,0.0,0.0,0.0,1.0,2.835703125,11.4434033203,1.52442993164,0.1,0.0,0.0,0.0,0.1,0.0,0.0,0.0,0.1
1446036731629065233,243,1446036731627302885,robocape,68.1045405234,7.71527664275,81.9165735376,0.0,10.0,0.0,0.0,0.0,10.0,0.0,0.0,0.0,10.0,0.6711165947,3.42375989741,1.63411564487,1.0,0.0,0.0,0.0,1.0,0.0,0.0,0.0,1.0,5.58518554688,10.7057373047,1.74237670898,0.1,0.0,0.0,0.0,0.1,0.0,0.0,0.0,0.1
1446036731667511442,244,1446036731665733098,robocape,69.0362013427,8.21927856866,86.4008298881,0.0,10.0,0.0,0.0,0.0,10.0,0.0,0.0,0.0,10.0,0.225303428221,3.79340665671,0.929842694601,1.0,0.0,0.0,0.0,1.0,0.0,0.0,0.0,1.0,5.47142211914,7.71914794922,2.58422607422,0.1,0.0,0.0,0.0,0.1,0.0,0.0,0.0,0.1
1446036731695765817,245,1446036731693945884,robocape,70.1252491415,8.19549059926,90.8934244075,0.0,10.0,0.0,0.0,0.0,10.0,0.0,0.0,0.0,10.0,0.34234935813,3.62296434694,1.37512322886,1.0,0.0,0.0,0.0,1.0,0.0,0.0,0.0,1.0,2.93749145508,9.86029541016,0.847836914063,0.1,0.0,0.0,0.0,0.1,0.0,0.0,0.0,0.1
1446036731728917275,246,1446036731727154970,robocape,71.1222231413,8.16509169353,94.9962861165,0.0,10.0,0.0,0.0,0.0,10.0,0.0,0.0,0.0,10.0,0.316783011665,3.32801925622,1.20388197077,1.0,0.0,0.0,0.0,1.0,0.0,0.0,0.0,1.0,0.995130615234,10.9009313965,0.979562988281,0.1,0.0,0.0,0.0,0.1,0.0,0.0,0.0,0.1
1446036731765106150,247,1446036731762918949,robocape,71.9188676537,8.16821463578,98.3879373409,0.0,10.0,0.0,0.0,0.0,10.0,0.0,0.0,0.0,10.0,0.238752391726,2.77541333003,0.924116898257,1.0,0.0,0.0,0.0,1.0,0.0,0.0,0.0,1.0,0.972377929688,9.08311157227,3.4835559082,0.1,0.0,0.0,0.0,0.1,0.0,0.0,0.0,0.1
1446036731795922275,248,1446036731794064998,robocape,72.5655213208,8.08260114216,100.777893985,0.0,10.0,0.0,0.0,0.0,10.0,0.0,0.0,0.0,10.0,0.244478188069,1.93598495443,0.713194539923,1.0,0.0,0.0,0.0,1.0,0.0,0.0,0.0,1.0,-1.44180175781,10.7248974609,4.01165771484,0.1,0.0,0.0,0.0,0.1,0.0,0.0,0.0,0.1
1446036731830915900,249,1446036731829044103,robocape,72.8936273256,8.0125282896,101.986876753,0.0,10.0,0.0,0.0,0.0,10.0,0.0,0.0,0.0,10.0,0.12623383567,0.974317484805,0.378834665064,1.0,0.0,0.0,0.0,1.0,0.0,0.0,0.0,1.0,-2.18306030273,9.63875610352,4.01644775391,0.1,0.0,0.0,0.0,0.1,0.0,0.0,0.0,0.1
1446036731866013525,250,1446036731864202022,robocape,72.8925720753,8.01623216554,102.157674401,0.0,10.0,0.0,0.0,0.0,10.0,0.0,0.0,0.0,10.0,-0.0234358175927,0.141946486101,0.0396811002422,1.0,0.0,0.0,0.0,1.0,0.0,0.0,0.0,1.0,-0.888552246094,9.48068481445,3.73862548828,0.1,0.0,0.0,0.0,0.1,0.0,0.0,0.0,0.1
1446036731896215192,251,1446036731894347906,robocape,72.9066537836,7.99159175541,102.190333704,0.0,10.0,0.0,0.0,0.0,10.0,0.0,0.0,0.0,10.0,0.00798948327024,0.0194410759576,0.0326237233535,1.0,0.0,0.0,0.0,1.0,0.0,0.0,0.0,1.0,-0.267044677734,9.99681152344,3.41649536133,0.1,0.0,0.0,0.0,0.1,0.0,0.0,0.0,0.1
1446036731929267233,252,1446036731927357912,robocape,72.9144121558,7.99384425645,102.204360377,0.0,10.0,0.0,0.0,0.0,10.0,0.0,0.0,0.0,10.0,0.00492684801665,0.0122505410144,0.00133158054504,1.0,0.0,0.0,0.0,1.0,0.0,0.0,0.0,1.0,-0.0610729980469,9.95130615234,3.38057006836,0.1,0.0,0.0,0.0,0.1,0.0,0.0,0.0,0.1
1446036731965078067,253,1446036731963290929,robocape,72.9321253082,7.98092175648,102.218640168,0.0,10.0,0.0,0.0,0.0,10.0,0.0,0.0,0.0,10.0,0.0135821215594,0.00785632521573,0.016378440704,1.0,0.0,0.0,0.0,1.0,0.0,0.0,0.0,1.0,-0.170046386719,9.87346801758,3.42128540039,0.1,0.0,0.0,0.0,0.1,0.0,0.0,0.0,0.1
1446036731995837608,254,1446036731994106054,robocape,72.9409491157,7.98265947319,102.22962602,0.0,10.0,0.0,0.0,0.0,10.0,0.0,0.0,0.0,10.0,0.00625842856169,0.00958737992429,0.00106526443603,1.0,0.0,0.0,0.0,1.0,0.0,0.0,0.0,1.0,-0.0215551757813,9.80401245117,3.46679077148,0.1,0.0,0.0,0.0,0.1,0.0,0.0,0.0,0.1
1446036732029070358,255,1446036732027334928,robocape,72.9552358391,7.97122573267,102.244478944,0.0,10.0,0.0,0.0,0.0,10.0,0.0,0.0,0.0,10.0,0.0105194863058,0.00878843159726,0.0150468601589,1.0,0.0,0.0,0.0,1.0,0.0,0.0,0.0,1.0,0.0251477050781,9.80401245117,3.46200073242,0.1,0.0,0.0,0.0,0.1,0.0,0.0,0.0,0.1
1446036732063184275,256,1446036732061288118,robocape,72.9638235922,7.96995158925,102.258990296,0.0,10.0,0.0,0.0,0.0,10.0,0.0,0.0,0.0,10.0,0.00559263828917,0.0115847507418,0.00492684801665,1.0,0.0,0.0,0.0,1.0,0.0,0.0,0.0,1.0,-0.0562829589844,9.80281494141,3.48116088867,0.1,0.0,0.0,0.0,0.1,0.0,0.0,0.0,0.1
1446036732096270734,257,1446036732094405889,robocape,72.9769577152,7.96455800191,102.275333139,0.0,10.0,0.0,0.0,0.0,10.0,0.0,0.0,0.0,10.0,0.00932106381528,0.0118510668509,0.00945422186978,1.0,0.0,0.0,0.0,1.0,0.0,0.0,0.0,1.0,-0.0167651367188,9.84712280273,3.45840820313,0.1,0.0,0.0,0.0,0.1,0.0,0.0,0.0,0.1
1446036732129235442,258,1446036732127429962,robocape,72.9894967853,7.95866987315,102.28975575,0.0,10.0,0.0,0.0,0.0,10.0,0.0,0.0,0.0,10.0,0.00905474770627,0.0101200121423,0.00945422186978,1.0,0.0,0.0,0.0,1.0,0.0,0.0,0.0,1.0,-0.104183349609,9.84353027344,3.48954345703,0.1,0.0,0.0,0.0,0.1,0.0,0.0,0.0,0.1
1446036732163274067,259,1446036732161384105,robocape,73.0000708653,7.95430678679,102.30329478,0.0,10.0,0.0,0.0,0.0,10.0,0.0,0.0,0.0,10.0,0.00745685105222,0.00985369603329,0.00772316716123,1.0,0.0,0.0,0.0,1.0,0.0,0.0,0.0,1.0,-0.0490979003906,9.85790039062,3.46200073242,0.1,0.0,0.0,0.0,0.1,0.0,0.0,0.0,0.1
1446036732196476859,260,1446036732194561958,robocape,73.0136227109,7.94670515626,102.317369686,0.0,10.0,0.0,0.0,0.0,10.0,0.0,0.0,0.0,10.0,0.0099868540878,0.00932106381528,0.0110521185238,1.0,0.0,0.0,0.0,1.0,0.0,0.0,0.0,1.0,-0.0778381347656,9.82077758789,3.448828125,0.1,0.0,0.0,0.0,0.1,0.0,0.0,0.0,0.1
1446036732229058317,261,1446036732227303028,robocape,73.023997372,7.94387169637,102.331636109,0.0,10.0,0.0,0.0,0.0,10.0,0.0,0.0,0.0,10.0,0.00719053494321,0.0109189604693,0.00639158661619,1.0,0.0,0.0,0.0,1.0,0.0,0.0,0.0,1.0,-0.0275427246094,9.82676513672,3.45840820313,0.1,0.0,0.0,0.0,0.1,0.0,0.0,0.0,0.1
1446036732262544192,262,1446036732260689973,robocape,73.0373575181,7.93632807625,102.346489836,0.0,10.0,0.0,0.0,0.0,10.0,0.0,0.0,0.0,10.0,0.00972053797879,0.0099868540878,0.0111852765783,1.0,0.0,0.0,0.0,1.0,0.0,0.0,0.0,1.0,-0.0395178222656,9.8447277832,3.46200073242,0.1,0.0,0.0,0.0,0.1,0.0,0.0,0.0,0.1
1446036732297621442,263,1446036732295614004,robocape,73.0478640792,7.93277525589,102.36165988,0.0,10.0,0.0,0.0,0.0,10.0,0.0,0.0,0.0,10.0,0.00719053494321,0.0114515926873,0.00732369299772,1.0,0.0,0.0,0.0,1.0,0.0,0.0,0.0,1.0,-0.0622705078125,9.83275268555,3.47397583008,0.1,0.0,0.0,0.0,0.1,0.0,0.0,0.0,0.1
1446036732329038484,264,1446036732327265977,robocape,73.0599959227,7.92751201185,102.376482923,0.0,10.0,0.0,0.0,0.0,10.0,0.0,0.0,0.0,10.0,0.00865527354276,0.0106526443603,0.00892158965177,1.0,0.0,0.0,0.0,1.0,0.0,0.0,0.0,1.0,-0.0275427246094,9.83275268555,3.44643310547,0.1,0.0,0.0,0.0,0.1,0.0,0.0,0.0,0.1
1446036732362920859,265,1446036732360996007,robocape,73.0718651432,7.92246558868,102.390579066,0.0,10.0,0.0,0.0,0.0,10.0,0.0,0.0,0.0,10.0,0.00852211548825,0.0101200121423,0.00852211548825,1.0,0.0,0.0,0.0,1.0,0.0,0.0,0.0,1.0,-0.0622705078125,9.83514770508,3.45361816406,0.1,0.0,0.0,0.0,0.1,0.0,0.0,0.0,0.1
1446036732397578150,266,1446036732395812988,robocape,73.082821134,7.91823255735,102.404699562,0.0,10.0,0.0,0.0,0.0,10.0,0.0,0.0,0.0,10.0,0.00772316716123,0.0103863282513,0.00772316716123,1.0,0.0,0.0,0.0,1.0,0.0,0.0,0.0,1.0,-0.0526904296875,9.82916015625,3.45361816406,0.1,0.0,0.0,0.0,0.1,0.0,0.0,0.0,0.1
1446036732428945442,267,1446036732427194118,robocape,73.0953571292,7.91192287995,102.420217303,0.0,10.0,0.0,0.0,0.0,10.0,0.0,0.0,0.0,10.0,0.00892158965177,0.0109189604693,0.0101200121423,1.0,0.0,0.0,0.0,1.0,0.0,0.0,0.0,1.0,-0.0490979003906,9.8135925293,3.46918579102,0.1,0.0,0.0,0.0,0.1,0.0,0.0,0.0,0.1
1446036732462539775,268,1446036732460696935,robocape,73.1063197456,7.90823140159,102.435426724,0.0,10.0,0.0,0.0,0.0,10.0,0.0,0.0,0.0,10.0,0.00759000910673,0.0114515926873,0.00745685105222,1.0,0.0,0.0,0.0,1.0,0.0,0.0,0.0,1.0,-0.0467028808594,9.81718505859,3.448828125,0.1,0.0,0.0,0.0,0.1,0.0,0.0,0.0,0.1
1446036732500112484,269,1446036732497771024,robocape,73.1186288897,7.90233421478,102.450466309,0.0,10.0,0.0,0.0,0.0,10.0,0.0,0.0,0.0,10.0,0.00878843159726,0.0106526443603,0.00958737992429,1.0,0.0,0.0,0.0,1.0,0.0,0.0,0.0,1.0,-0.0371228027344,9.8483203125,3.45122314453,0.1,0.0,0.0,0.0,0.1,0.0,0.0,0.0,0.1
1446036732529181942,270,1446036732527478933,robocape,73.1301924274,7.89741145782,102.465633597,0.0,10.0,0.0,0.0,0.0,10.0,0.0,0.0,0.0,10.0,0.00812264132474,0.0110521185238,0.00865527354276,1.0,0.0,0.0,0.0,1.0,0.0,0.0,0.0,1.0,-0.05748046875,9.8135925293,3.44403808594,0.1,0.0,0.0,0.0,0.1,0.0,0.0,0.0,0.1
1446036732562638025,271,1446036732560853004,robocape,73.1416026203,7.89263159986,102.479779192,0.0,10.0,0.0,0.0,0.0,10.0,0.0,0.0,0.0,10.0,0.00812264132474,0.0102531701968,0.00825579937925,1.0,0.0,0.0,0.0,1.0,0.0,0.0,0.0,1.0,-0.0323327636719,9.83275268555,3.44403808594,0.1,0.0,0.0,0.0,0.1,0.0,0.0,0.0,0.1
1446036732600977609,272,1446036732598774909,robocape,73.1535439326,7.88689681735,102.494428926,0.0,10.0,0.0,0.0,0.0,10.0,0.0,0.0,0.0,10.0,0.00852211548825,0.0103863282513,0.00932106381528,1.0,0.0,0.0,0.0,1.0,0.0,0.0,0.0,1.0,-0.0467028808594,9.83155517578,3.49433349609,0.1,0.0,0.0,0.0,0.1,0.0,0.0,0.0,0.1
1446036732629088234,273,1446036732627330064,robocape,73.164480559,7.88262041883,102.509516119,0.0,10.0,0.0,0.0,0.0,10.0,0.0,0.0,0.0,10.0,0.00759000910673,0.0111852765783,0.00798948327024,1.0,0.0,0.0,0.0,1.0,0.0,0.0,0.0,1.0,-0.0443078613281,9.83754272461,3.48235839844,0.1,0.0,0.0,0.0,0.1,0.0,0.0,0.0,0.1
1446036732662386900,274,1446036732660583019,robocape,73.1763745913,7.87680445502,102.523867293,0.0,10.0,0.0,0.0,0.0,10.0,0.0,0.0,0.0,10.0,0.00852211548825,0.0101200121423,0.00932106381528,1.0,0.0,0.0,0.0,1.0,0.0,0.0,0.0,1.0,-0.0431103515625,9.82197509766,3.4871484375,0.1,0.0,0.0,0.0,0.1,0.0,0.0,0.0,0.1
1446036732700413984,275,1446036732697926044,robocape,73.1877019227,7.87281831986,102.538522658,0.0,10.0,0.0,0.0,0.0,10.0,0.0,0.0,0.0,10.0,0.00798948327024,0.0109189604693,0.00759000910673,1.0,0.0,0.0,0.0,1.0,0.0,0.0,0.0,1.0,-0.0419128417969,9.82556762695,3.46918579102,0.1,0.0,0.0,0.0,0.1,0.0,0.0,0.0,0.1
1446036732729083775,276,1446036732727130889,robocape,73.2001078878,7.8670849042,102.554289072,0.0,10.0,0.0,0.0,0.0,10.0,0.0,0.0,0.0,10.0,0.00878843159726,0.0113184346328,0.00958737992429,1.0,0.0,0.0,0.0,1.0,0.0,0.0,0.0,1.0,-0.0359252929688,9.83275268555,3.44403808594,0.1,0.0,0.0,0.0,0.1,0.0,0.0,0.0,0.1
1446036732762377067,277,1446036732760617971,robocape,73.2117547397,7.86231257883,102.569061759,0.0,10.0,0.0,0.0,0.0,10.0,0.0,0.0,0.0,10.0,0.00825579937925,0.0107858024148,0.00838895743375,1.0,0.0,0.0,0.0,1.0,0.0,0.0,0.0,1.0,-0.047900390625,9.82916015625,3.47876586914,0.1,0.0,0.0,0.0,0.1,0.0,0.0,0.0,0.1
1446036732800096859,278,1446036732798115968,robocape,73.2233605309,7.85828004351,102.583565803,0.0,10.0,0.0,0.0,0.0,10.0,0.0,0.0,0.0,10.0,0.00825579937925,0.0107858024148,0.00759000910673,1.0,0.0,0.0,0.0,1.0,0.0,0.0,0.0,1.0,-0.0395178222656,9.83634521484,3.47637084961,0.1,0.0,0.0,0.0,0.1,0.0,0.0,0.0,0.1
1446036732829126901,279,1446036732827251911,robocape,73.2348014986,7.85355085856,102.59799583,0.0,10.0,0.0,0.0,0.0,10.0,0.0,0.0,0.0,10.0,0.00812264132474,0.0105194863058,0.00825579937925,1.0,0.0,0.0,0.0,1.0,0.0,0.0,0.0,1.0,-0.0467028808594,9.83395019531,3.46798828125,0.1,0.0,0.0,0.0,0.1,0.0,0.0,0.0,0.1
1446036732863800317,280,1446036732862016916,robocape,73.246007745,7.8488067642,102.612912201,0.0,10.0,0.0,0.0,0.0,10.0,0.0,0.0,0.0,10.0,0.00785632521573,0.0109189604693,0.00838895743375,1.0,0.0,0.0,0.0,1.0,0.0,0.0,0.0,1.0,-0.0490979003906,9.83275268555,3.47038330078,0.1,0.0,0.0,0.0,0.1,0.0,0.0,0.0,0.1
1446036732899443026,281,1446036732897620916,robocape,73.2580515205,7.843253783,102.627310804,0.0,10.0,0.0,0.0,0.0,10.0,0.0,0.0,0.0,10.0,0.00865527354276,0.0102531701968,0.00905474770627,1.0,0.0,0.0,0.0,1.0,0.0,0.0,0.0,1.0,-0.0419128417969,9.83634521484,3.46679077148,0.1,0.0,0.0,0.0,0.1,0.0,0.0,0.0,0.1
1446036732929183401,282,1446036732927254915,robocape,73.2693326982,7.83836735188,102.642756473,0.0,10.0,0.0,0.0,0.0,10.0,0.0,0.0,0.0,10.0,0.00785632521573,0.0113184346328,0.00865527354276,1.0,0.0,0.0,0.0,1.0,0.0,0.0,0.0,1.0,-0.0263452148438,9.82556762695,3.47397583008,0.1,0.0,0.0,0.0,0.1,0.0,0.0,0.0,0.1
1446036732962315567,283,1446036732960561037,robocape,73.280760409,7.83401069196,102.65817093,0.0,10.0,0.0,0.0,0.0,10.0,0.0,0.0,0.0,10.0,0.00798948327024,0.0114515926873,0.00812264132474,1.0,0.0,0.0,0.0,1.0,0.0,0.0,0.0,1.0,-0.0335302734375,9.83514770508,3.47158081055,0.1,0.0,0.0,0.0,0.1,0.0,0.0,0.0,0.1
1446036732999213984,284,1446036732997438907,robocape,73.2921450896,7.82863449059,102.673303671,0.0,10.0,0.0,0.0,0.0,10.0,0.0,0.0,0.0,10.0,0.00798948327024,0.0109189604693,0.00905474770627,1.0,0.0,0.0,0.0,1.0,0.0,0.0,0.0,1.0,-0.0455053710938,9.81598754883,3.45721069336,0.1,0.0,0.0,0.0,0.1,0.0,0.0,0.0,0.1
1446036733029569901,285,1446036733027436971,robocape,73.3018040726,7.82547428413,102.688124561,0.0,10.0,0.0,0.0,0.0,10.0,0.0,0.0,0.0,10.0,0.00652474467069,0.0113184346328,0.0067910607797,1.0,0.0,0.0,0.0,1.0,0.0,0.0,0.0,1.0,-0.0838256835938,9.82676513672,3.46559326172,0.1,0.0,0.0,0.0,0.1,0.0,0.0,0.0,0.1
1446036733062647609,286,1446036733060656070,robocape,73.314856819,7.81777342081,102.704244035,0.0,10.0,0.0,0.0,0.0,10.0,0.0,0.0,0.0,10.0,0.00932106381528,0.0110521185238,0.0115847507418,1.0,0.0,0.0,0.0,1.0,0.0,0.0,0.0,1.0,-0.0155676269531,9.87466552734,3.42008789063,0.1,0.0,0.0,0.0,0.1,0.0,0.0,0.0,0.1
1446036733099185151,287,1446036733097409963,robocape,73.3251061967,7.80903938674,102.718957136,0.0,10.0,0.0,0.0,0.0,10.0,0.0,0.0,0.0,10.0,0.00705737688871,0.00958737992429,0.0122505410144,1.0,0.0,0.0,0.0,1.0,0.0,0.0,0.0,1.0,-0.117355957031,9.84951782227,3.48595092773,0.1,0.0,0.0,0.0,0.1,0.0,0.0,0.0,0.1
1446036733129113984,288,1446036733127213001,robocape,73.3368124319,7.80518834617,102.73321299,0.0,10.0,0.0,0.0,0.0,10.0,0.0,0.0,0.0,10.0,0.00838895743375,0.0106526443603,0.00732369299772,1.0,0.0,0.0,0.0,1.0,0.0,0.0,0.0,1.0,-0.0239501953125,9.86987548828,3.44164306641,0.1,0.0,0.0,0.0,0.1,0.0,0.0,0.0,0.1
1446036733162587651,289,1446036733160800933,robocape,73.3483385584,7.79870357526,102.749371401,0.0,10.0,0.0,0.0,0.0,10.0,0.0,0.0,0.0,10.0,0.00798948327024,0.0114515926873,0.0103863282513,1.0,0.0,0.0,0.0,1.0,0.0,0.0,0.0,1.0,-0.0778381347656,9.86388793945,3.4452355957,0.1,0.0,0.0,0.0,0.1,0.0,0.0,0.0,0.1
1446036733197393817,290,1446036733194960117,robocape,73.3597326879,7.79334475119,102.76464273,0.0,10.0,0.0,0.0,0.0,10.0,0.0,0.0,0.0,10.0,0.00798948327024,0.0110521185238,0.00905474770627,1.0,0.0,0.0,0.0,1.0,0.0,0.0,0.0,1.0,-0.0419128417969,9.84592529297,3.47637084961,0.1,0.0,0.0,0.0,0.1,0.0,0.0,0.0,0.1
1446036733228877526,291,1446036733227133035,robocape,73.372799245,7.78851605356,102.779883637,0.0,10.0,0.0,0.0,0.0,10.0,0.0,0.0,0.0,10.0,0.00945422186978,0.0111852765783,0.00852211548825,1.0,0.0,0.0,0.0,1.0,0.0,0.0,0.0,1.0,-0.0598754882813,9.84712280273,3.47876586914,0.1,0.0,0.0,0.0,0.1,0.0,0.0,0.0,0.1
1446036733262512484,292,1446036733260737895,robocape,73.385590389,7.78374688496,102.794295755,0.0,10.0,0.0,0.0,0.0,10.0,0.0,0.0,0.0,10.0,0.00932106381528,0.0105194863058,0.00825579937925,1.0,0.0,0.0,0.0,1.0,0.0,0.0,0.0,1.0,-0.0251477050781,9.84712280273,3.4835559082,0.1,0.0,0.0,0.0,0.1,0.0,0.0,0.0,0.1
1446036733296825401,293,1446036733294830083,robocape,73.3984185066,7.77822941612,102.808970902,0.0,10.0,0.0,0.0,0.0,10.0,0.0,0.0,0.0,10.0,0.00932106381528,0.0105194863058,0.00905474770627,1.0,0.0,0.0,0.0,1.0,0.0,0.0,0.0,1.0,-0.0323327636719,9.83754272461,3.4524206543,0.1,0.0,0.0,0.0,0.1,0.0,0.0,0.0,0.1
1446036733330667734,294,1446036733328541040,robocape,73.413551633,7.78624673608,102.82479695,0.0,10.0,0.0,0.0,0.0,10.0,0.0,0.0,0.0,10.0,0.0111852765783,0.0154463343225,-0.00399474163512,1.0,0.0,0.0,0.0,1.0,0.0,0.0,0.0,1.0,-0.377215576172,9.96088623047,3.6057019043,0.1,0.0,0.0,0.0,0.1,0.0,0.0,0.0,0.1
1446036733362273817,295,1446036733360507011,robocape,73.4272871992,7.76331693212,102.834210075,0.0,10.0,0.0,0.0,0.0,10.0,0.0,0.0,0.0,10.0,0.0107858024148,0.00106526443603,0.0249005561922,1.0,0.0,0.0,0.0,1.0,0.0,0.0,0.0,1.0,-0.186811523438,9.98124389648,3.61168945313,0.1,0.0,0.0,0.0,0.1,0.0,0.0,0.0,0.1
1446036733395990734,296,1446036733394243955,robocape,73.4348731087,7.75688552346,102.833911976,0.0,10.0,0.0,0.0,0.0,10.0,0.0,0.0,0.0,10.0,0.0066579027252,-0.00213052887206,0.00625842856169,1.0,0.0,0.0,0.0,1.0,0.0,0.0,0.0,1.0,-0.0419128417969,10.0303417969,3.46679077148,0.1,0.0,0.0,0.0,0.1,0.0,0.0,0.0,0.1
1446036733430756026,297,1446036733428672075,robocape,73.4509422237,7.73136152286,102.838430955,0.0,10.0,0.0,0.0,0.0,10.0,0.0,0.0,0.0,10.0,0.0134489635049,-0.00372842552611,0.0262321367373,1.0,0.0,0.0,0.0,1.0,0.0,0.0,0.0,1.0,0.165256347656,9.73096435547,3.43685302734,0.1,0.0,0.0,0.0,0.1,0.0,0.0,0.0,0.1
1446036733462456984,298,1446036733460592985,robocape,73.4579029969,7.73376644488,102.846430341,0.0,10.0,0.0,0.0,0.0,10.0,0.0,0.0,0.0,10.0,0.00506000607115,0.00732369299772,-0.000399474163512,1.0,0.0,0.0,0.0,1.0,0.0,0.0,0.0,1.0,-0.0179626464844,9.74653198242,3.49553100586,0.1,0.0,0.0,0.0,0.1,0.0,0.0,0.0,0.1
1446036733495916026,299,1446036733494148969,robocape,73.4668911883,7.73092611294,102.859981619,0.0,10.0,0.0,0.0,0.0,10.0,0.0,0.0,0.0,10.0,0.00612527050718,0.0103863282513,0.00612527050718,1.0,0.0,0.0,0.0,1.0,0.0,0.0,0.0,1.0,0.0514929199219,9.80281494141,3.45122314453,0.1,0.0,0.0,0.0,0.1,0.0,0.0,0.0,0.1
1446036733530967109,300,1446036733528825998,robocape,73.4801439253,7.72520477633,102.876638627,0.0,10.0,0.0,0.0,0.0,10.0,0.0,0.0,0.0,10.0,0.00945422186978,0.0121173829599,0.00972053797879,1.0,0.0,0.0,0.0,1.0,0.0,0.0,0.0,1.0,-0.0299377441406,9.81,3.45361816406,0.1,0.0,0.0,0.0,0.1,0.0,0.0,0.0,0.1
1446036733562277359,301,1446036733560486078,robocape,73.4890148541,7.72027632363,102.88834857,0.0,10.0,0.0,0.0,0.0,10.0,0.0,0.0,0.0,10.0,0.00625842856169,0.00825579937925,0.00772316716123,1.0,0.0,0.0,0.0,1.0,0.0,0.0,0.0,1.0,-0.0443078613281,9.86149291992,3.45601318359,0.1,0.0,0.0,0.0,0.1,0.0,0.0,0.0,0.1
1446036733595695984,302,1446036733593919038,robocape,73.5028352609,7.71163976606,102.904739425,0.0,10.0,0.0,0.0,0.0,10.0,0.0,0.0,0.0,10.0,0.0099868540878,0.0110521185238,0.0125168571234,1.0,0.0,0.0,0.0,1.0,0.0,0.0,0.0,1.0,-0.0634680175781,9.80161743164,3.51948120117,0.1,0.0,0.0,0.0,0.1,0.0,0.0,0.0,0.1
1446036733635398651,303,1446036733631586074,robocape,73.5090739951,7.70892270957,102.919366096,0.0,10.0,0.0,0.0,0.0,10.0,0.0,0.0,0.0,10.0,0.00359526747161,0.0113184346328,0.00625842856169,1.0,0.0,0.0,0.0,1.0,0.0,0.0,0.0,1.0,-0.0239501953125,9.75611206055,3.45721069336,0.1,0.0,0.0,0.0,0.1,0.0,0.0,0.0,0.1
1446036733662549234,304,1446036733660788059,robocape,73.5194159213,7.70075438979,102.934942823,0.0,10.0,0.0,0.0,0.0,10.0,0.0,0.0,0.0,10.0,0.00705737688871,0.0105194863058,0.0118510668509,1.0,0.0,0.0,0.0,1.0,0.0,0.0,0.0,1.0,-0.144898681641,9.78964233398,3.44763061523,0.1,0.0,0.0,0.0,0.1,0.0,0.0,0.0,0.1
1446036733696030068,305,1446036733694114923,robocape,73.5289780497,7.69934260828,102.9483038,0.0,10.0,0.0,0.0,0.0,10.0,0.0,0.0,0.0,10.0,0.0066579027252,0.0106526443603,0.00466053190764,1.0,0.0,0.0,0.0,1.0,0.0,0.0,0.0,1.0,-0.0107775878906,9.8135925293,3.48595092773,0.1,0.0,0.0,0.0,0.1,0.0,0.0,0.0,0.1
1446036733734253443,306,1446036733731765985,robocape,73.5427258872,7.69518353757,102.964235807,0.0,10.0,0.0,0.0,0.0,10.0,0.0,0.0,0.0,10.0,0.0099868540878,0.0119842249054,0.00798948327024,1.0,0.0,0.0,0.0,1.0,0.0,0.0,0.0,1.0,-0.0514929199219,9.78844482422,3.50990112305,0.1,0.0,0.0,0.0,0.1,0.0,0.0,0.0,0.1
1446036733762152943,307,1446036733760390043,robocape,73.5544499446,7.69204581297,102.978842462,0.0,10.0,0.0,0.0,0.0,10.0,0.0,0.0,0.0,10.0,0.00838895743375,0.0111852765783,0.0066579027252,1.0,0.0,0.0,0.0,1.0,0.0,0.0,0.0,1.0,-0.01916015625,9.80041992188,3.47038330078,0.1,0.0,0.0,0.0,0.1,0.0,0.0,0.0,0.1
1446036733795704443,308,1446036733793806076,robocape,73.5665271317,7.68655293341,102.99378998,0.0,10.0,0.0,0.0,0.0,10.0,0.0,0.0,0.0,10.0,0.00865527354276,0.0107858024148,0.00905474770627,1.0,0.0,0.0,0.0,1.0,0.0,0.0,0.0,1.0,-0.0227526855469,9.82437011719,3.44763061523,0.1,0.0,0.0,0.0,0.1,0.0,0.0,0.0,0.1
1446036733833022984,309,1446036733830593109,robocape,73.5769629248,7.68166538658,103.009005262,0.0,10.0,0.0,0.0,0.0,10.0,0.0,0.0,0.0,10.0,0.00719053494321,0.0111852765783,0.00852211548825,1.0,0.0,0.0,0.0,1.0,0.0,0.0,0.0,1.0,-0.0682580566406,9.8135925293,3.46798828125,0.1,0.0,0.0,0.0,0.1,0.0,0.0,0.0,0.1
1446036733862611901,310,1446036733860836982,robocape,73.5880544541,7.67564555107,103.023488891,0.0,10.0,0.0,0.0,0.0,10.0,0.0,0.0,0.0,10.0,0.00785632521573,0.0102531701968,0.00945422186978,1.0,0.0,0.0,0.0,1.0,0.0,0.0,0.0,1.0,-0.0419128417969,9.82916015625,3.46319824219,0.1,0.0,0.0,0.0,0.1,0.0,0.0,0.0,0.1
1446036733895842943,311,1446036733894119024,robocape,73.5990340314,7.66969586175,103.038266721,0.0,10.0,0.0,0.0,0.0,10.0,0.0,0.0,0.0,10.0,0.00772316716123,0.0105194863058,0.00945422186978,1.0,0.0,0.0,0.0,1.0,0.0,0.0,0.0,1.0,-0.0514929199219,9.8135925293,3.47996337891,0.1,0.0,0.0,0.0,0.1,0.0,0.0,0.0,0.1
1446036733933344568,312,1446036733931166887,robocape,73.6102844005,7.665312166,103.052816521,0.0,10.0,0.0,0.0,0.0,10.0,0.0,0.0,0.0,10.0,0.00798948327024,0.0107858024148,0.00785632521573,1.0,0.0,0.0,0.0,1.0,0.0,0.0,0.0,1.0,-0.0359252929688,9.83155517578,3.47277832031,0.1,0.0,0.0,0.0,0.1,0.0,0.0,0.0,0.1
1446036733962161734,313,1446036733960309982,robocape,73.6222460516,7.65934130206,103.068078381,0.0,10.0,0.0,0.0,0.0,10.0,0.0,0.0,0.0,10.0,0.00852211548825,0.0109189604693,0.00958737992429,1.0,0.0,0.0,0.0,1.0,0.0,0.0,0.0,1.0,-0.0395178222656,9.83275268555,3.47397583008,0.1,0.0,0.0,0.0,0.1,0.0,0.0,0.0,0.1
1446036733996040734,314,1446036733994369983,robocape,73.6328650188,7.65437947937,103.082503617,0.0,10.0,0.0,0.0,0.0,10.0,0.0,0.0,0.0,10.0,0.00745685105222,0.0105194863058,0.00838895743375,1.0,0.0,0.0,0.0,1.0,0.0,0.0,0.0,1.0,-0.0203576660156,9.82796264648,3.45361816406,0.1,0.0,0.0,0.0,0.1,0.0,0.0,0.0,0.1
1446036734032843526,315,1446036734030920982,robocape,73.6441700864,7.64860797111,103.096404949,0.0,10.0,0.0,0.0,0.0,10.0,0.0,0.0,0.0,10.0,0.00812264132474,0.00985369603329,0.00905474770627,1.0,0.0,0.0,0.0,1.0,0.0,0.0,0.0,1.0,-0.0347277832031,9.83275268555,3.44763061523,0.1,0.0,0.0,0.0,0.1,0.0,0.0,0.0,0.1
1446036734062156984,316,1446036734060271978,robocape,73.6559297908,7.64350033987,103.111358065,0.0,10.0,0.0,0.0,0.0,10.0,0.0,0.0,0.0,10.0,0.00838895743375,0.0109189604693,0.00865527354276,1.0,0.0,0.0,0.0,1.0,0.0,0.0,0.0,1.0,-0.0359252929688,9.83035766602,3.47876586914,0.1,0.0,0.0,0.0,0.1,0.0,0.0,0.0,0.1
1446036734095666818,317,1446036734093833923,robocape,73.6680203421,7.63830123651,103.12650102,0.0,10.0,0.0,0.0,0.0,10.0,0.0,0.0,0.0,10.0,0.00865527354276,0.0110521185238,0.00878843159726,1.0,0.0,0.0,0.0,1.0,0.0,0.0,0.0,1.0,-0.0347277832031,9.83275268555,3.47637084961,0.1,0.0,0.0,0.0,0.1,0.0,0.0,0.0,0.1
1446036734131695318,318,1446036734129846096,robocape,73.6801099974,7.63215202763,103.141649874,0.0,10.0,0.0,0.0,0.0,10.0,0.0,0.0,0.0,10.0,0.00865527354276,0.0107858024148,0.00972053797879,1.0,0.0,0.0,0.0,1.0,0.0,0.0,0.0,1.0,-0.0323327636719,9.83275268555,3.46679077148,0.1,0.0,0.0,0.0,0.1,0.0,0.0,0.0,0.1
1446036734162638984,319,1446036734160718917,robocape,73.6915951041,7.62723233177,103.156851106,0.0,10.0,0.0,0.0,0.0,10.0,0.0,0.0,0.0,10.0,0.00812264132474,0.0111852765783,0.00852211548825,1.0,0.0,0.0,0.0,1.0,0.0,0.0,0.0,1.0,-0.0467028808594,9.83395019531,3.45721069336,0.1,0.0,0.0,0.0,0.1,0.0,0.0,0.0,0.1
1446036734195888360,320,1446036734193938016,robocape,73.703656162,7.62157559652,103.171823363,0.0,10.0,0.0,0.0,0.0,10.0,0.0,0.0,0.0,10.0,0.00865527354276,0.0107858024148,0.00918790576077,1.0,0.0,0.0,0.0,1.0,0.0,0.0,0.0,1.0,-0.047900390625,9.82556762695,3.46679077148,0.1,0.0,0.0,0.0,0.1,0.0,0.0,0.0,0.1
1446036734231852401,321,1446036734230091094,robocape,73.7152293503,7.61695096941,103.186596018,0.0,10.0,0.0,0.0,0.0,10.0,0.0,0.0,0.0,10.0,0.00825579937925,0.0109189604693,0.00812264132474,1.0,0.0,0.0,0.0,1.0,0.0,0.0,0.0,1.0,-0.0526904296875,9.82077758789,3.47637084961,0.1,0.0,0.0,0.0,0.1,0.0,0.0,0.0,0.1
1446036734262483193,322,1446036734260596990,robocape,73.7274420996,7.61169873606,103.201583396,0.0,10.0,0.0,0.0,0.0,10.0,0.0,0.0,0.0,10.0,0.00878843159726,0.0109189604693,0.00878843159726,1.0,0.0,0.0,0.0,1.0,0.0,0.0,0.0,1.0,-0.0431103515625,9.82556762695,3.45960571289,0.1,0.0,0.0,0.0,0.1,0.0,0.0,0.0,0.1
1446036734295860735,323,1446036734294045925,robocape,73.7390672743,7.60594349483,103.216741971,0.0,10.0,0.0,0.0,0.0,10.0,0.0,0.0,0.0,10.0,0.00825579937925,0.0109189604693,0.00932106381528,1.0,0.0,0.0,0.0,1.0,0.0,0.0,0.0,1.0,-0.0490979003906,9.82556762695,3.46200073242,0.1,0.0,0.0,0.0,0.1,0.0,0.0,0.0,0.1
1446036734330517360,324,1446036734328733921,robocape,73.7510691287,7.60086162408,103.231343975,0.0,10.0,0.0,0.0,0.0,10.0,0.0,0.0,0.0,10.0,0.00865527354276,0.0106526443603,0.00852211548825,1.0,0.0,0.0,0.0,1.0,0.0,0.0,0.0,1.0,-0.047900390625,9.82676513672,3.45601318359,0.1,0.0,0.0,0.0,0.1,0.0,0.0,0.0,0.1
1446036734362280443,325,1446036734360521078,robocape,73.76294733,7.59515168702,103.246160098,0.0,10.0,0.0,0.0,0.0,10.0,0.0,0.0,0.0,10.0,0.00852211548825,0.0106526443603,0.00918790576077,1.0,0.0,0.0,0.0,1.0,0.0,0.0,0.0,1.0,-0.0443078613281,9.81598754883,3.46679077148,0.1,0.0,0.0,0.0,0.1,0.0,0.0,0.0,0.1
1446036734395758693,326,1446036734393997907,robocape,73.7749789027,7.58984971301,103.260993317,0.0,10.0,0.0,0.0,0.0,10.0,0.0,0.0,0.0,10.0,0.00865527354276,0.0107858024148,0.00878843159726,1.0,0.0,0.0,0.0,1.0,0.0,0.0,0.0,1.0,-0.0395178222656,9.82317260742,3.47397583008,0.1,0.0,0.0,0.0,0.1,0.0,0.0,0.0,0.1
1446036734430316026,327,1446036734428539037,robocape,73.7871462805,7.5843830106,103.275720009,0.0,10.0,0.0,0.0,0.0,10.0,0.0,0.0,0.0,10.0,0.00878843159726,0.0106526443603,0.00892158965177,1.0,0.0,0.0,0.0,1.0,0.0,0.0,0.0,1.0,-0.0407153320313,9.83155517578,3.4524206543,0.1,0.0,0.0,0.0,0.1,0.0,0.0,0.0,0.1
1446036734462256235,328,1446036734460536956,robocape,73.7986331194,7.5790583849,103.291037249,0.0,10.0,0.0,0.0,0.0,10.0,0.0,0.0,0.0,10.0,0.00812264132474,0.0111852765783,0.00892158965177,1.0,0.0,0.0,0.0,1.0,0.0,0.0,0.0,1.0,-0.0395178222656,9.83035766602,3.45960571289,0.1,0.0,0.0,0.0,0.1,0.0,0.0,0.0,0.1
1446036734495659151,329,1446036734493839025,robocape,73.809845607,7.57446480967,103.306582141,0.0,10.0,0.0,0.0,0.0,10.0,0.0,0.0,0.0,10.0,0.00785632521573,0.0115847507418,0.00825579937925,1.0,0.0,0.0,0.0,1.0,0.0,0.0,0.0,1.0,-0.047900390625,9.83155517578,3.448828125,0.1,0.0,0.0,0.0,0.1,0.0,0.0,0.0,0.1
1446036734530305151,330,1446036734528517007,robocape,73.8209457202,7.56886348195,103.32134725,0.0,10.0,0.0,0.0,0.0,10.0,0.0,0.0,0.0,10.0,0.00785632521573,0.0106526443603,0.00905474770627,1.0,0.0,0.0,0.0,1.0,0.0,0.0,0.0,1.0,-0.0395178222656,9.83514770508,3.4907409668,0.1,0.0,0.0,0.0,0.1,0.0,0.0,0.0,0.1
1446036734562138318,331,1446036734560385942,robocape,73.8321186657,7.56406595471,103.336636398,0.0,10.0,0.0,0.0,0.0,10.0,0.0,0.0,0.0,10.0,0.00785632521573,0.0113184346328,0.00838895743375,1.0,0.0,0.0,0.0,1.0,0.0,0.0,0.0,1.0,-0.047900390625,9.83395019531,3.4452355957,0.1,0.0,0.0,0.0,0.1,0.0,0.0,0.0,0.1
1446036734596128235,332,1446036734594249963,robocape,73.8439931133,7.55861965548,103.351503585,0.0,10.0,0.0,0.0,0.0,10.0,0.0,0.0,0.0,10.0,0.00852211548825,0.0107858024148,0.00892158965177,1.0,0.0,0.0,0.0,1.0,0.0,0.0,0.0,1.0,-0.0526904296875,9.83155517578,3.4524206543,0.1,0.0,0.0,0.0,0.1,0.0,0.0,0.0,0.1
1446036734629477193,333,1446036734627710103,robocape,73.8560994291,7.55290324148,103.366941989,0.0,10.0,0.0,0.0,0.0,10.0,0.0,0.0,0.0,10.0,0.00865527354276,0.0111852765783,0.00932106381528,1.0,0.0,0.0,0.0,1.0,0.0,0.0,0.0,1.0,-0.0395178222656,9.83395019531,3.46319824219,0.1,0.0,0.0,0.0,0.1,0.0,0.0,0.0,0.1
1446036734662395193,334,1446036734660583019,robocape,73.8679458732,7.54795092674,103.381634629,0.0,10.0,0.0,0.0,0.0,10.0,0.0,0.0,0.0,10.0,0.00852211548825,0.0107858024148,0.00838895743375,1.0,0.0,0.0,0.0,1.0,0.0,0.0,0.0,1.0,-0.0431103515625,9.82437011719,3.46679077148,0.1,0.0,0.0,0.0,0.1,0.0,0.0,0.0,0.1
1446036734695882735,335,1446036734693985939,robocape,73.8800748557,7.54295920641,103.396177755,0.0,10.0,0.0,0.0,0.0,10.0,0.0,0.0,0.0,10.0,0.00878843159726,0.0106526443603,0.00838895743375,1.0,0.0,0.0,0.0,1.0,0.0,0.0,0.0,1.0,-0.0419128417969,9.82556762695,3.47397583008,0.1,0.0,0.0,0.0,0.1,0.0,0.0,0.0,0.1
1446036734730438235,336,1446036734728743076,robocape,73.8920137132,7.53776669826,103.410466042,0.0,10.0,0.0,0.0,0.0,10.0,0.0,0.0,0.0,10.0,0.00865527354276,0.0103863282513,0.00852211548825,1.0,0.0,0.0,0.0,1.0,0.0,0.0,0.0,1.0,-0.0467028808594,9.82916015625,3.46918579102,0.1,0.0,0.0,0.0,0.1,0.0,0.0,0.0,0.1
1446036734762251651,337,1446036734760409116,robocape,73.9044952154,7.53312749828,103.425365012,0.0,10.0,0.0,0.0,0.0,10.0,0.0,0.0,0.0,10.0,0.00905474770627,0.0110521185238,0.00812264132474,1.0,0.0,0.0,0.0,1.0,0.0,0.0,0.0,1.0,-0.047900390625,9.82556762695,3.48475341797,0.1,0.0,0.0,0.0,0.1,0.0,0.0,0.0,0.1
1446036734795555526,338,1446036734793778896,robocape,73.9187978561,7.5254780741,103.441287543,0.0,10.0,0.0,0.0,0.0,10.0,0.0,0.0,0.0,10.0,0.0105194863058,0.0110521185238,0.0113184346328,1.0,0.0,0.0,0.0,1.0,0.0,0.0,0.0,1.0,-0.0502954101563,9.85670288086,3.44044555664,0.1,0.0,0.0,0.0,0.1,0.0,0.0,0.0,0.1
1446036734832593526,339,1446036734830332994,robocape,73.9302071098,7.5208316936,103.456183465,0.0,10.0,0.0,0.0,0.0,10.0,0.0,0.0,0.0,10.0,0.00812264132474,0.0110521185238,0.00812264132474,1.0,0.0,0.0,0.0,1.0,0.0,0.0,0.0,1.0,-0.0658630371094,9.83514770508,3.46798828125,0.1,0.0,0.0,0.0,0.1,0.0,0.0,0.0,0.1
1446036734862951276,340,1446036734861083984,robocape,73.9417975121,7.51460608341,103.471293614,0.0,10.0,0.0,0.0,0.0,10.0,0.0,0.0,0.0,10.0,0.00825579937925,0.0107858024148,0.00972053797879,1.0,0.0,0.0,0.0,1.0,0.0,0.0,0.0,1.0,-0.0239501953125,9.85071533203,3.48595092773,0.1,0.0,0.0,0.0,0.1,0.0,0.0,0.0,0.1
1446036734896346527,341,1446036734894242048,robocape,73.9512016861,7.50938004717,103.486061198,0.0,10.0,0.0,0.0,0.0,10.0,0.0,0.0,0.0,10.0,0.00639158661619,0.0107858024148,0.00865527354276,1.0,0.0,0.0,0.0,1.0,0.0,0.0,0.0,1.0,-0.0467028808594,9.83993774414,3.44643310547,0.1,0.0,0.0,0.0,0.1,0.0,0.0,0.0,0.1
1446036734931776985,342,1446036734929414987,robocape,73.9606219262,7.50472491156,103.50095341,0.0,10.0,0.0,0.0,0.0,10.0,0.0,0.0,0.0,10.0,0.00639158661619,0.0110521185238,0.00812264132474,1.0,0.0,0.0,0.0,1.0,0.0,0.0,0.0,1.0,-0.0311352539063,9.8483203125,3.45122314453,0.1,0.0,0.0,0.0,0.1,0.0,0.0,0.0,0.1
1446036734962210860,343,1446036734960489034,robocape,73.9721441489,7.49933182613,103.515612866,0.0,10.0,0.0,0.0,0.0,10.0,0.0,0.0,0.0,10.0,0.00825579937925,0.0106526443603,0.00878843159726,1.0,0.0,0.0,0.0,1.0,0.0,0.0,0.0,1.0,-0.0455053710938,9.83395019531,3.44763061523,0.1,0.0,0.0,0.0,0.1,0.0,0.0,0.0,0.1
1446036734996076735,344,1446036734994291067,robocape,73.9833920627,7.49467072862,103.530502545,0.0,10.0,0.0,0.0,0.0,10.0,0.0,0.0,0.0,10.0,0.00798948327024,0.0110521185238,0.00812264132474,1.0,0.0,0.0,0.0,1.0,0.0,0.0,0.0,1.0,-0.0443078613281,9.82916015625,3.48116088867,0.1,0.0,0.0,0.0,0.1,0.0,0.0,0.0,0.1
1446036735032981818,345,1446036735030472993,robocape,73.9955569398,7.48851861839,103.545414032,0.0,10.0,0.0,0.0,0.0,10.0,0.0,0.0,0.0,10.0,0.00878843159726,0.0106526443603,0.00958737992429,1.0,0.0,0.0,0.0,1.0,0.0,0.0,0.0,1.0,-0.0443078613281,9.83155517578,3.47158081055,0.1,0.0,0.0,0.0,0.1,0.0,0.0,0.0,0.1
1446036735062075443,346,1446036735060339927,robocape,74.0077286201,7.48264982003,103.560386911,0.0,10.0,0.0,0.0,0.0,10.0,0.0,0.0,0.0,10.0,0.00878843159726,0.0107858024148,0.00932106381528,1.0,0.0,0.0,0.0,1.0,0.0,0.0,0.0,1.0,-0.0431103515625,9.81958007812,3.46918579102,0.1,0.0,0.0,0.0,0.1,0.0,0.0,0.0,0.1
1446036735095840735,347,1446036735093914031,robocape,74.0205620793,7.47754871534,103.575738432,0.0,10.0,0.0,0.0,0.0,10.0,0.0,0.0,0.0,10.0,0.00932106381528,0.0113184346328,0.00865527354276,1.0,0.0,0.0,0.0,1.0,0.0,0.0,0.0,1.0,-0.0347277832031,9.83754272461,3.45481567383,0.1,0.0,0.0,0.0,0.1,0.0,0.0,0.0,0.1
1446036735133433443,348,1446036735131490945,robocape,74.0333788214,7.4713320802,103.590983146,0.0,10.0,0.0,0.0,0.0,10.0,0.0,0.0,0.0,10.0,0.00932106381528,0.0109189604693,0.00972053797879,1.0,0.0,0.0,0.0,1.0,0.0,0.0,0.0,1.0,-0.0455053710938,9.82556762695,3.47756835938,0.1,0.0,0.0,0.0,0.1,0.0,0.0,0.0,0.1
1446036735162251527,349,1446036735160500049,robocape,74.0473118947,7.46547030202,103.60658563,0.0,10.0,0.0,0.0,0.0,10.0,0.0,0.0,0.0,10.0,0.0102531701968,0.0113184346328,0.00945422186978,1.0,0.0,0.0,0.0,1.0,0.0,0.0,0.0,1.0,-0.0467028808594,9.84113525391,3.46918579102,0.1,0.0,0.0,0.0,0.1,0.0,0.0,0.0,0.1
1446036735195806985,350,1446036735194034099,robocape,74.059766078,7.46037602929,103.621445392,0.0,10.0,0.0,0.0,0.0,10.0,0.0,0.0,0.0,10.0,0.00905474770627,0.0109189604693,0.00852211548825,1.0,0.0,0.0,0.0,1.0,0.0,0.0,0.0,1.0,-0.0311352539063,9.8519128418,3.44763061523,0.1,0.0,0.0,0.0,0.1,0.0,0.0,0.0,0.1
1446036735231883860,351,1446036735229947090,robocape,74.0707163997,7.45572706133,103.636473153,0.0,10.0,0.0,0.0,0.0,10.0,0.0,0.0,0.0,10.0,0.00772316716123,0.0111852765783,0.00812264132474,1.0,0.0,0.0,0.0,1.0,0.0,0.0,0.0,1.0,-0.0455053710938,9.84233276367,3.45361816406,0.1,0.0,0.0,0.0,0.1,0.0,0.0,0.0,0.1
1446036735262161568,352,1446036735260463953,robocape,74.0807143006,7.45182893806,103.651246051,0.0,10.0,0.0,0.0,0.0,10.0,0.0,0.0,0.0,10.0,0.00692421883421,0.0111852765783,0.00732369299772,1.0,0.0,0.0,0.0,1.0,0.0,0.0,0.0,1.0,-0.0431103515625,9.82556762695,3.46918579102,0.1,0.0,0.0,0.0,0.1,0.0,0.0,0.0,0.1
1446036735295569527,353,1446036735293781995,robocape,74.0921809816,7.44467804302,103.669995061,0.0,10.0,0.0,0.0,0.0,10.0,0.0,0.0,0.0,10.0,0.00772316716123,0.0135821215594,0.0114515926873,1.0,0.0,0.0,0.0,1.0,0.0,0.0,0.0,1.0,0.628692626953,9.6950390625,3.27997924805,0.1,0.0,0.0,0.0,0.1,0.0,0.0,0.0,0.1
1446036735331171360,354,1446036735329313993,robocape,74.1801059123,7.54380602872,103.710426087,0.0,10.0,0.0,0.0,0.0,10.0,0.0,0.0,0.0,10.0,0.0717721913776,0.0612527050718,-0.0877511579181,1.0,0.0,0.0,0.0,1.0,0.0,0.0,0.0,1.0,-0.0814306640625,9.74653198242,3.71826782227,0.1,0.0,0.0,0.0,0.1,0.0,0.0,0.0,0.1
1446036735362217902,355,1446036735360392093,robocape,74.1466459394,7.49811841094,103.716611417,0.0,10.0,0.0,0.0,0.0,10.0,0.0,0.0,0.0,10.0,-0.0299605622634,-0.00759000910673,0.0463390029674,1.0,0.0,0.0,0.0,1.0,0.0,0.0,0.0,1.0,-0.710123291016,10.3608544922,3.08358764648,0.1,0.0,0.0,0.0,0.1,0.0,0.0,0.0,0.1
1446036735396122277,356,1446036735394242048,robocape,74.103916045,7.40578266329,103.767933859,0.0,10.0,0.0,0.0,0.0,10.0,0.0,0.0,0.0,10.0,-0.0435426838228,0.016911072922,0.102664860023,1.0,0.0,0.0,0.0,1.0,0.0,0.0,0.0,1.0,0.1916015625,9.98842895508,3.53624633789,0.1,0.0,0.0,0.0,0.1,0.0,0.0,0.0,0.1
1446036735431828318,357,1446036735430053949,robocape,73.999570992,7.26211139308,103.819254778,0.0,10.0,0.0,0.0,0.0,10.0,0.0,0.0,0.0,10.0,-0.0972053797879,0.00253000303558,0.152599130462,1.0,0.0,0.0,0.0,1.0,0.0,0.0,0.0,1.0,-0.313747558594,10.3225341797,3.47996337891,0.1,0.0,0.0,0.0,0.1,0.0,0.0,0.0,0.1
1446036735462089652,358,1446036735460285902,robocape,73.742357604,7.1898738204,103.880617505,0.0,10.0,0.0,0.0,0.0,10.0,0.0,0.0,0.0,10.0,-0.231695014837,0.0306263525359,0.085087996828,1.0,0.0,0.0,0.0,1.0,0.0,0.0,0.0,1.0,0.639470214844,10.8757836914,3.16382080078,0.1,0.0,0.0,0.0,0.1,0.0,0.0,0.0,0.1
1446036735496265360,359,1446036735494339942,robocape,73.3898147939,7.11667705015,104.035424506,0.0,10.0,0.0,0.0,0.0,10.0,0.0,0.0,0.0,10.0,-0.325704601317,0.107458549985,0.108923288584,1.0,0.0,0.0,0.0,1.0,0.0,0.0,0.0,1.0,-0.24908203125,10.2878063965,3.84041381836,0.1,0.0,0.0,0.0,0.1,0.0,0.0,0.0,0.1
1446036735529882443,360,1446036735528099060,robocape,72.8123644228,6.97157949044,104.27989343,0.0,10.0,0.0,0.0,0.0,10.0,0.0,0.0,0.0,10.0,-0.531966427743,0.159789665405,0.201601294519,1.0,0.0,0.0,0.0,1.0,0.0,0.0,0.0,1.0,-0.483793945313,11.7332006836,4.01644775391,0.1,0.0,0.0,0.0,0.1,0.0,0.0,0.0,0.1
1446036735562078943,361,1446036735560363054,robocape,71.8634871685,6.82512559967,104.625700115,0.0,10.0,0.0,0.0,0.0,10.0,0.0,0.0,0.0,10.0,-0.866858934821,0.240483446434,0.231162382619,1.0,0.0,0.0,0.0,1.0,0.0,0.0,0.0,1.0,-0.580792236328,11.7152380371,4.36013305664,0.1,0.0,0.0,0.0,0.1,0.0,0.0,0.0,0.1
1446036735595629985,362,1446036735593879938,robocape,70.651630567,6.63053168088,105.049619527,0.0,10.0,0.0,0.0,0.0,10.0,0.0,0.0,0.0,10.0,-1.10388027184,0.284958236638,0.302535099833,1.0,0.0,0.0,0.0,1.0,0.0,0.0,0.0,1.0,-0.532891845703,10.8230932617,4.60322753906,0.1,0.0,0.0,0.0,0.1,0.0,0.0,0.0,0.1
1446036735629832610,363,1446036735628066062,robocape,69.1678263701,6.33415009079,105.407591207,0.0,10.0,0.0,0.0,0.0,10.0,0.0,0.0,0.0,10.0,-1.33251265142,0.189883385723,0.38376151308,1.0,0.0,0.0,0.0,1.0,0.0,0.0,0.0,1.0,0.530496826172,10.1273400879,4.48587158203,0.1,0.0,0.0,0.0,0.1,0.0,0.0,0.0,0.1
1446036735663559527,364,1446036735661673069,robocape,67.508320996,5.96603408424,105.911310043,0.0,10.0,0.0,0.0,0.0,10.0,0.0,0.0,0.0,10.0,-1.49829442928,0.271642431188,0.49934270439,1.0,0.0,0.0,0.0,1.0,0.0,0.0,0.0,1.0,0.240699462891,10.2782263184,4.61280761719,0.1,0.0,0.0,0.0,0.1,0.0,0.0,0.0,0.1
1446036735696249444,365,1446036735694245100,robocape,65.8226391884,5.52990622678,106.470310422,0.0,10.0,0.0,0.0,0.0,10.0,0.0,0.0,0.0,10.0,-1.52279551131,0.276302963096,0.584297543163,1.0,0.0,0.0,0.0,1.0,0.0,0.0,0.0,1.0,0.451461181641,8.77415405273,5.02714599609,0.1,0.0,0.0,0.0,0.1,0.0,0.0,0.0,0.1
1446036735729161527,366,1446036735727389097,robocape,64.2562855916,4.89991456966,107.444371694,0.0,10.0,0.0,0.0,0.0,10.0,0.0,0.0,0.0,10.0,-1.44822700079,0.50999534875,0.909735828371,1.0,0.0,0.0,0.0,1.0,0.0,0.0,0.0,1.0,1.65974853516,8.30233520508,6.29890136719,0.1,0.0,0.0,0.0,0.1,0.0,0.0,0.0,0.1
1446036735763996652,367,1446036735761642932,robocape,62.6237339285,4.11261020338,108.627727033,0.0,10.0,0.0,0.0,0.0,10.0,0.0,0.0,0.0,10.0,-1.50947970586,0.585362807599,1.13117767301,1.0,0.0,0.0,0.0,1.0,0.0,0.0,0.0,1.0,0.726888427734,8.61608276367,6.66054931641,0.1,0.0,0.0,0.0,0.1,0.0,0.0,0.0,0.1
1446036735795812735,368,1446036735794051885,robocape,60.9156851941,3.22410430988,110.03547509,0.0,10.0,0.0,0.0,0.0,10.0,0.0,0.0,0.0,10.0,-1.57206399147,0.686829245131,1.3126721013,1.0,0.0,0.0,0.0,1.0,0.0,0.0,0.0,1.0,1.32684082031,9.46631469727,7.21260131836,0.1,0.0,0.0,0.0,0.1,0.0,0.0,0.0,0.1
1446036735829175027,369,1446036735827243089,robocape,58.8016215155,2.14308176354,111.847433447,0.0,10.0,0.0,0.0,0.0,10.0,0.0,0.0,0.0,10.0,-1.92107125233,0.868190515366,1.65115987585,1.0,0.0,0.0,0.0,1.0,0.0,0.0,0.0,1.0,0.502954101562,6.86652099609,7.56347167969,0.1,0.0,0.0,0.0,0.1,0.0,0.0,0.0,0.1
1446036735863144902,370,1446036735861403942,robocape,56.7000547539,0.802135564165,113.994265957,0.0,10.0,0.0,0.0,0.0,10.0,0.0,0.0,0.0,10.0,-1.8831212068,0.943025341997,2.01641241935,1.0,0.0,0.0,0.0,1.0,0.0,0.0,0.0,1.0,0.347277832031,5.94204345703,7.94308227539,0.1,0.0,0.0,0.0,0.1,0.0,0.0,0.0,0.1
1446036735895952569,371,1446036735894114971,robocape,54.7979978827,-0.902896260302,116.269293009,0.0,10.0,0.0,0.0,0.0,10.0,0.0,0.0,0.0,10.0,-1.65848356885,0.804674123367,2.34704386869,1.0,0.0,0.0,0.0,1.0,0.0,0.0,0.0,1.0,0.895737304688,4.35175048828,8.71906860352,0.1,0.0,0.0,0.0,0.1,0.0,0.0,0.0,0.1
1446036735929052944,372,1446036735927318096,robocape,53.0595227721,-2.78184476567,118.697866472,0.0,10.0,0.0,0.0,0.0,10.0,0.0,0.0,0.0,10.0,-1.45035752966,0.776311457758,2.53333198694,1.0,0.0,0.0,0.0,1.0,0.0,0.0,0.0,1.0,2.17827026367,5.29059814453,9.83874023438,0.1,0.0,0.0,0.0,0.1,0.0,0.0,0.0,0.1
1446036735963459819,373,1446036735961673021,robocape,51.2297821704,-4.7692902517,121.311870447,0.0,10.0,0.0,0.0,0.0,10.0,0.0,0.0,0.0,10.0,-1.45142279409,0.795619375661,2.68752901405,1.0,0.0,0.0,0.0,1.0,0.0,0.0,0.0,1.0,2.53153564453,5.72529418945,10.6542443848,0.1,0.0,0.0,0.0,0.1,0.0,0.0,0.0,0.1
1446036735995737944,374,1446036735993839979,robocape,49.2674367011,-6.82219492727,124.074245834,0.0,10.0,0.0,0.0,0.0,10.0,0.0,0.0,0.0,10.0,-1.48018493387,0.79588569177,2.79698493486,1.0,0.0,0.0,0.0,1.0,0.0,0.0,0.0,1.0,2.69918701172,4.74573120117,10.8482409668,0.1,0.0,0.0,0.0,0.1,0.0,0.0,0.0,0.1
1446036736028894319,375,1446036736027153015,robocape,47.3383719267,-8.66409805681,126.879575333,0.0,10.0,0.0,0.0,0.0,10.0,0.0,0.0,0.0,10.0,-1.37259322583,0.857404712951,2.68952638487,1.0,0.0,0.0,0.0,1.0,0.0,0.0,0.0,1.0,3.04167480469,2.08007446289,11.0015222168,0.1,0.0,0.0,0.0,0.1,0.0,0.0,0.0,0.1
1446036736065821235,376,1446036736063776016,robocape,45.5044626697,-9.82716292084,129.643205396,0.0,10.0,0.0,0.0,0.0,10.0,0.0,0.0,0.0,10.0,-1.23850306494,1.11240238733,2.29098432774,1.0,0.0,0.0,0.0,1.0,0.0,0.0,0.0,1.0,2.96144165039,2.12318481445,10.4351000977,0.1,0.0,0.0,0.0,0.1,0.0,0.0,0.0,0.1
1446036736096042069,377,1446036736094124078,robocape,43.5942780092,-10.3024642451,132.351032839,0.0,10.0,0.0,0.0,0.0,10.0,0.0,0.0,0.0,10.0,-1.2831110132,1.37831902217,1.9158780882,1.0,0.0,0.0,0.0,1.0,0.0,0.0,0.0,1.0,2.03935913086,1.67651367188,10.3488793945,0.1,0.0,0.0,0.0,0.1,0.0,0.0,0.0,0.1
1446036736128899277,378,1446036736127209901,robocape,42.0185743993,-10.7467290441,135.049329466,0.0,10.0,0.0,0.0,0.0,10.0,0.0,0.0,0.0,10.0,-0.976314855623,1.33038212255,1.93172389669,1.0,0.0,0.0,0.0,1.0,0.0,0.0,0.0,1.0,1.31007568359,0.0323327636719,10.3644470215,0.1,0.0,0.0,0.0,0.1,0.0,0.0,0.0,0.1
1446036736165884652,379,1446036736164002895,robocape,41.1634586091,-11.5357139197,138.053622289,0.0,10.0,0.0,0.0,0.0,10.0,0.0,0.0,0.0,10.0,-0.278167175859,1.26833046915,2.32427384137,1.0,0.0,0.0,0.0,1.0,0.0,0.0,0.0,1.0,1.00710571289,0.706530761719,10.2794238281,0.1,0.0,0.0,0.0,0.1,0.0,0.0,0.0,0.1
1446036736195758235,380,1446036736193932056,robocape,40.350200481,-12.787438415,141.461967344,0.0,10.0,0.0,0.0,0.0,10.0,0.0,0.0,0.0,10.0,-0.133957002831,1.19802301637,2.82108654272,1.0,0.0,0.0,0.0,1.0,0.0,0.0,0.0,1.0,0.372425537109,1.23223754883,9.98124389648,0.1,0.0,0.0,0.0,0.1,0.0,0.0,0.0,0.1
1446036736228836985,381,1446036736227072000,robocape,39.6256665006,-14.5298188618,145.113983013,0.0,10.0,0.0,0.0,0.0,10.0,0.0,0.0,0.0,10.0,0.0539290120741,1.01652858808,3.21110648436,1.0,0.0,0.0,0.0,1.0,0.0,0.0,0.0,1.0,-0.294587402344,0.244291992188,9.37051391602,0.1,0.0,0.0,0.0,0.1,0.0,0.0,0.0,0.1
1446036736265315152,382,1446036736263535022,robocape,38.9325735346,-16.6319520406,148.911140211,0.0,10.0,0.0,0.0,0.0,10.0,0.0,0.0,0.0,10.0,0.199470765647,0.852611022989,3.4574488852,1.0,0.0,0.0,0.0,1.0,0.0,0.0,0.0,1.0,-0.346080322266,1.38671630859,9.49744995117,0.1,0.0,0.0,0.0,0.1,0.0,0.0,0.0,0.1
1446036736295540194,383,1446036736293787956,robocape,38.1523057276,-18.8917848514,152.706743915,0.0,10.0,0.0,0.0,0.0,10.0,0.0,0.0,0.0,10.0,0.223971847676,0.717189281558,3.50445367844,1.0,0.0,0.0,0.0,1.0,0.0,0.0,0.0,1.0,-0.605939941406,1.7663269043,9.4998449707,0.1,0.0,0.0,0.0,0.1,0.0,0.0,0.0,0.1
1446036736330974236,384,1446036736329191923,robocape,37.5095340924,-21.0559574295,156.277654568,0.0,10.0,0.0,0.0,0.0,10.0,0.0,0.0,0.0,10.0,0.384693619462,0.607067570484,3.28966973652,1.0,0.0,0.0,0.0,1.0,0.0,0.0,0.0,1.0,-0.538879394531,2.24173828125,9.37410644531,0.1,0.0,0.0,0.0,0.1,0.0,0.0,0.0,0.1
1446036736365978486,385,1446036736364048957,robocape,36.555229817,-22.9726506819,159.805720494,0.0,10.0,0.0,0.0,0.0,10.0,0.0,0.0,0.0,10.0,0.185888644088,0.670583962482,3.13507323524,1.0,0.0,0.0,0.0,1.0,0.0,0.0,0.0,1.0,-0.47900390625,4.32899780273,9.35255126953,0.1,0.0,0.0,0.0,0.1,0.0,0.0,0.0,0.1
1446036736396921986,386,1446036736395159959,robocape,35.0902710195,-24.6290845046,163.028731199,0.0,10.0,0.0,0.0,0.0,10.0,0.0,0.0,0.0,10.0,-0.281362969167,0.595749135851,2.81456179805,1.0,0.0,0.0,0.0,1.0,0.0,0.0,0.0,1.0,-0.59396484375,1.64178588867,8.99090332031,0.1,0.0,0.0,0.0,0.1,0.0,0.0,0.0,0.1
1446036736429118277,387,1446036736427313089,robocape,33.7880483826,-25.7136570519,165.63159003,0.0,10.0,0.0,0.0,0.0,10.0,0.0,0.0,0.0,10.0,-0.290550874928,0.56498962526,2.16914470787,1.0,0.0,0.0,0.0,1.0,0.0,0.0,0.0,1.0,-0.265847167969,1.45377685547,9.03760620117,0.1,0.0,0.0,0.0,0.1,0.0,0.0,0.0,0.1
1446036736465656486,388,1446036736463886022,robocape,32.6374206112,-26.0209509443,167.651464393,0.0,10.0,0.0,0.0,0.0,10.0,0.0,0.0,0.0,10.0,-0.331829871824,0.712395591596,1.48138335636,1.0,0.0,0.0,0.0,1.0,0.0,0.0,0.0,1.0,-0.652642822266,0.577199707031,8.96096557617,0.1,0.0,0.0,0.0,0.1,0.0,0.0,0.0,0.1
1446036736495841611,389,1446036736494048118,robocape,31.5052685632,-25.9911066413,169.476308035,0.0,10.0,0.0,0.0,0.0,10.0,0.0,0.0,0.0,10.0,-0.377769400628,0.798815168969,1.23544042969,1.0,0.0,0.0,0.0,1.0,0.0,0.0,0.0,1.0,-1.12086914062,0.21076171875,8.89749755859,0.1,0.0,0.0,0.0,0.1,0.0,0.0,0.0,0.1
1446036736529038361,390,1446036736527100086,robocape,30.5086483013,-25.7161622316,171.025152162,0.0,10.0,0.0,0.0,0.0,10.0,0.0,0.0,0.0,10.0,-0.35446674109,0.808935181112,0.97178748177,1.0,0.0,0.0,0.0,1.0,0.0,0.0,0.0,1.0,-1.42503662109,-1.11967163086,8.51549194336,0.1,0.0,0.0,0.0,0.1,0.0,0.0,0.0,0.1
