%time,field.header.seq,field.header.stamp,field.header.frame_id,field.orientation.x,field.orientation.y,field.orientation.z,field.orientation.w,field.orientation_covariance0,field.orientation_covariance1,field.orientation_covariance2,field.orientation_covariance3,field.orientation_covariance4,field.orientation_covariance5,field.orientation_covariance6,field.orientation_covariance7,field.orientation_covariance8,field.angular_velocity.x,field.angular_velocity.y,field.angular_velocity.z,field.angular_velocity_covariance0,field.angular_velocity_covariance1,field.angular_velocity_covariance2,field.angular_velocity_covariance3,field.angular_velocity_covariance4,field.angular_velocity_covariance5,field.angular_velocity_covariance6,field.angular_velocity_covariance7,field.angular_velocity_covariance8,field.linear_acceleration.x,field.linear_acceleration.y,field.linear_acceleration.z,field.linear_acceleration_covariance0,field.linear_acceleration_covariance1,field.linear_acceleration_covariance2,field.linear_acceleration_covariance3,field.linear_acceleration_covariance4,field.linear_acceleration_covariance5,field.linear_acceleration_covariance6,field.linear_acceleration_covariance7,field.linear_acceleration_covariance8
1446037376446264129,1,1446037376443187952,robocape,1.04317084843,7.46575983896,-23.9107489749,0.0,10.0,0.0,0.0,0.0,10.0,0.0,0.0,0.0,10.0,-0.104795388895,0.00812264132474,0.00173105470855,1.0,0.0,0.0,0.0,1.0,0.0,0.0,0.0,1.0,0.656235351563,-0.389190673828,9.86269042969,0.1,0.0,0.0,0.0,0.1,0.0,0.0,0.0,0.1
1446037376478056004,2,1446037376474879980,robocape,0.823555658483,7.47659150692,-23.6823943549,0.0,10.0,0.0,0.0,0.0,10.0,0.0,0.0,0.0,10.0,-0.128364364542,0.0142479118319,0.0964064314609,1.0,0.0,0.0,0.0,1.0,0.0,0.0,0.0,1.0,-0.227526855469,-1.30528564453,10.132130127,0.1,0.0,0.0,0.0,0.1,0.0,0.0,0.0,0.1
1446037376511433712,3,1446037376508455038,robocape,0.87008523323,7.49545209168,-23.456002929,0.0,10.0,0.0,0.0,0.0,10.0,0.0,0.0,0.0,10.0,0.0111852765783,0.0185089695761,0.0949416928613,1.0,0.0,0.0,0.0,1.0,0.0,0.0,0.0,1.0,0.24908203125,-1.34600097656,10.0770446777,0.1,0.0,0.0,0.0,0.1,0.0,0.0,0.0,0.1
1446037376545063670,4,1446037376542081117,robocape,1.15287311341,7.47860009833,-23.3102635653,0.0,10.0,0.0,0.0,0.0,10.0,0.0,0.0,0.0,10.0,0.140881221665,0.0,0.051532167093,1.0,0.0,0.0,0.0,1.0,0.0,0.0,0.0,1.0,0.362845458984,-0.972377929688,9.99681152344,0.1,0.0,0.0,0.0,0.1,0.0,0.0,0.0,0.1
1446037376578069045,5,1446037376574867963,robocape,1.65842983785,7.52658763649,-23.304759302,0.0,10.0,0.0,0.0,0.0,10.0,0.0,0.0,0.0,10.0,0.268180321771,0.0339553038985,-0.0262321367373,1.0,0.0,0.0,0.0,1.0,0.0,0.0,0.0,1.0,0.0538879394531,-0.9580078125,9.97884887695,0.1,0.0,0.0,0.0,0.1,0.0,0.0,0.0,0.1
1446037376611239045,6,1446037376608268976,robocape,2.41317533488,7.58036395872,-23.5861664755,0.0,10.0,0.0,0.0,0.0,10.0,0.0,0.0,0.0,10.0,0.420646294178,0.0339553038985,-0.183491799106,1.0,0.0,0.0,0.0,1.0,0.0,0.0,0.0,1.0,0.1916015625,0.0646655273438,9.99321899414,0.1,0.0,0.0,0.0,0.1,0.0,0.0,0.0,0.1
1446037376644901795,7,1446037376641726970,robocape,2.63051731863,7.60296271646,-23.6325055292,0.0,10.0,0.0,0.0,0.0,10.0,0.0,0.0,0.0,10.0,0.122239094035,0.0195742340121,-0.0544616442921,1.0,0.0,0.0,0.0,1.0,0.0,0.0,0.0,1.0,-0.0694555664063,1.95553344727,10.0686621094,0.1,0.0,0.0,0.0,0.1,0.0,0.0,0.0,0.1
1446037376678149129,8,1446037376674978971,robocape,2.35429919202,7.60409336347,-23.4074075469,0.0,10.0,0.0,0.0,0.0,10.0,0.0,0.0,0.0,10.0,-0.156727030151,0.0119842249054,0.0953411670248,1.0,0.0,0.0,0.0,1.0,0.0,0.0,0.0,1.0,-0.516126708984,0.511336669922,10.0830322266,0.1,0.0,0.0,0.0,0.1,0.0,0.0,0.0,0.1
1446037376711377087,9,1446037376708380937,robocape,2.08800855237,7.61177394074,-23.3227423372,0.0,10.0,0.0,0.0,0.0,10.0,0.0,0.0,0.0,10.0,-0.141547011938,0.0130494893414,0.0193079179031,1.0,0.0,0.0,0.0,1.0,0.0,0.0,0.0,1.0,0.118553466797,0.136516113281,10.019564209,0.1,0.0,0.0,0.0,0.1,0.0,0.0,0.0,0.1
1446037376744541004,10,1446037376741297960,robocape,1.82845405121,7.61114404651,-23.458895885,0.0,10.0,0.0,0.0,0.0,10.0,0.0,0.0,0.0,10.0,-0.122239094035,0.00612527050718,-0.100134856987,1.0,0.0,0.0,0.0,1.0,0.0,0.0,0.0,1.0,0.573607177734,0.895737304688,9.86388793945,0.1,0.0,0.0,0.0,0.1,0.0,0.0,0.0,0.1
1446037376777821754,11,1446037376774771928,robocape,1.14301560614,7.5694715382,-23.3051786344,0.0,10.0,0.0,0.0,0.0,10.0,0.0,0.0,0.0,10.0,-0.367116756267,-0.0133158054504,0.0591221761998,1.0,0.0,0.0,0.0,1.0,0.0,0.0,0.0,1.0,-0.330512695313,-0.244291992188,10.1381176758,0.1,0.0,0.0,0.0,0.1,0.0,0.0,0.0,0.1
1446037376811407796,12,1446037376808383941,robocape,0.77025989377,7.55010196793,-23.2951205548,0.0,10.0,0.0,0.0,0.0,10.0,0.0,0.0,0.0,10.0,-0.19334549514,-0.00213052887206,-0.0202400242846,1.0,0.0,0.0,0.0,1.0,0.0,0.0,0.0,1.0,0.213156738281,-1.40587646484,10.0950073242,0.1,0.0,0.0,0.0,0.1,0.0,0.0,0.0,0.1
1446037376844398296,13,1446037376841378927,robocape,0.620028319546,7.56613572024,-23.3331559305,0.0,10.0,0.0,0.0,0.0,10.0,0.0,0.0,0.0,10.0,-0.0735032460862,0.0167779148675,-0.0474042674034,1.0,0.0,0.0,0.0,1.0,0.0,0.0,0.0,1.0,0.548459472656,-1.07057373047,10.0004040527,0.1,0.0,0.0,0.0,0.1,0.0,0.0,0.0,0.1
1446037376877941587,14,1446037376874790906,robocape,0.55662228906,7.57614107141,-23.1894908262,0.0,10.0,0.0,0.0,0.0,10.0,0.0,0.0,0.0,10.0,-0.0410126807872,0.0134489635049,0.050999534875,1.0,0.0,0.0,0.0,1.0,0.0,0.0,0.0,1.0,-0.165256347656,-1.2645703125,10.0782421875,0.1,0.0,0.0,0.0,0.1,0.0,0.0,0.0,0.1
1446037376911290212,15,1446037376908226966,robocape,0.683548507711,7.60078864791,-22.9405329656,0.0,10.0,0.0,0.0,0.0,10.0,0.0,0.0,0.0,10.0,0.051265850984,0.0211721306661,0.107724866094,1.0,0.0,0.0,0.0,1.0,0.0,0.0,0.0,1.0,0.362845458984,-1.59987304688,9.93933105469,0.1,0.0,0.0,0.0,0.1,0.0,0.0,0.0,0.1
1446037376944701004,16,1446037376941452980,robocape,1.08859000303,7.65896139126,-22.7318407882,0.0,10.0,0.0,0.0,0.0,10.0,0.0,0.0,0.0,10.0,0.200136555919,0.0395479421877,0.085087996828,1.0,0.0,0.0,0.0,1.0,0.0,0.0,0.0,1.0,0.233514404297,-1.04183349609,10.0171691895,0.1,0.0,0.0,0.0,0.1,0.0,0.0,0.0,0.1
1446037376978001879,17,1446037376974726915,robocape,1.62872058723,7.72047381066,-22.5417768408,0.0,10.0,0.0,0.0,0.0,10.0,0.0,0.0,0.0,10.0,0.272707695624,0.0422111032778,0.0744353524677,1.0,0.0,0.0,0.0,1.0,0.0,0.0,0.0,1.0,0.0203576660156,-0.579594726562,10.003996582,0.1,0.0,0.0,0.0,0.1,0.0,0.0,0.0,0.1
1446037377011624962,18,1446037377008212089,robocape,2.19183345071,7.77343552582,-22.4105898394,0.0,10.0,0.0,0.0,0.0,10.0,0.0,0.0,0.0,10.0,0.289618768546,0.0380832035881,0.0423442613323,1.0,0.0,0.0,0.0,1.0,0.0,0.0,0.0,1.0,0.128133544922,0.0874182128906,10.0363293457,0.1,0.0,0.0,0.0,0.1,0.0,0.0,0.0,0.1
1446037377048083004,19,1446037377045030117,robocape,2.58499107155,7.80793964916,-22.2350428069,0.0,10.0,0.0,0.0,0.0,10.0,0.0,0.0,0.0,10.0,0.197606552884,0.0294279300454,0.0669785014155,1.0,0.0,0.0,0.0,1.0,0.0,0.0,0.0,1.0,0.076640625,0.597557373047,10.0662670898,0.1,0.0,0.0,0.0,0.1,0.0,0.0,0.0,0.1
1446037377079940337,20,1446037377076700925,robocape,2.81570186139,7.83470369032,-22.160642711,0.0,10.0,0.0,0.0,0.0,10.0,0.0,0.0,0.0,10.0,0.120241723217,0.0238352917562,0.0131826473959,1.0,0.0,0.0,0.0,1.0,0.0,0.0,0.0,1.0,-0.156873779297,0.641865234375,10.0914147949,0.1,0.0,0.0,0.0,0.1,0.0,0.0,0.0,0.1
1446037377114229212,21,1446037377111197948,robocape,2.86917868034,7.85246185337,-22.1860352289,0.0,10.0,0.0,0.0,0.0,10.0,0.0,0.0,0.0,10.0,0.03488741028,0.0170442309765,-0.0396811002422,1.0,0.0,0.0,0.0,1.0,0.0,0.0,0.0,1.0,-0.0335302734375,0.330512695313,9.99202148437,0.1,0.0,0.0,0.0,0.1,0.0,0.0,0.0,0.1
1446037377147678462,22,1446037377144640922,robocape,2.76525507192,7.86655321956,-22.3392359073,0.0,10.0,0.0,0.0,0.0,10.0,0.0,0.0,0.0,10.0,-0.0380832035881,0.0125168571234,-0.107991182203,1.0,0.0,0.0,0.0,1.0,0.0,0.0,0.0,1.0,0.106578369141,1.31247070313,10.1129699707,0.1,0.0,0.0,0.0,0.1,0.0,0.0,0.0,0.1
1446037377179490712,23,1446037377176263093,robocape,2.15233450329,7.85197871137,-22.1265991189,0.0,10.0,0.0,0.0,0.0,10.0,0.0,0.0,0.0,10.0,-0.333161452369,0.00306263525359,0.0921453737167,1.0,0.0,0.0,0.0,1.0,0.0,0.0,0.0,1.0,-0.330512695313,0.738863525391,10.0614770508,0.1,0.0,0.0,0.0,0.1,0.0,0.0,0.0,0.1
1446037377213469921,24,1446037377210450887,robocape,1.57670370445,7.83171409756,-21.9828841611,0.0,10.0,0.0,0.0,0.0,10.0,0.0,0.0,0.0,10.0,-0.308926686449,-0.00159789665405,0.0549942765101,1.0,0.0,0.0,0.0,1.0,0.0,0.0,0.0,1.0,-0.0179626464844,-0.735270996094,10.1201550293,0.1,0.0,0.0,0.0,0.1,0.0,0.0,0.0,0.1
1446037377246501796,25,1446037377243262052,robocape,1.25461347364,7.81965878381,-21.9675357344,0.0,10.0,0.0,0.0,0.0,10.0,0.0,0.0,0.0,10.0,-0.166847042293,0.00173105470855,-0.0151800182135,1.0,0.0,0.0,0.0,1.0,0.0,0.0,0.0,1.0,0.532891845703,-1.80823974609,9.85909790039,0.1,0.0,0.0,0.0,0.1,0.0,0.0,0.0,0.1
1446037377278843212,26,1446037377275749921,robocape,1.49457512599,7.84559548863,-22.3831958914,0.0,10.0,0.0,0.0,0.0,10.0,0.0,0.0,0.0,10.0,0.159922823459,0.0198405501211,-0.250070826358,1.0,0.0,0.0,0.0,1.0,0.0,0.0,0.0,1.0,0.235909423828,-1.00950073242,9.98124389648,0.1,0.0,0.0,0.0,0.1,0.0,0.0,0.0,0.1
1446037377312263962,27,1446037377309195041,robocape,1.47009004138,7.85644436892,-22.4833696336,0.0,10.0,0.0,0.0,0.0,10.0,0.0,0.0,0.0,10.0,-0.00199737081756,0.0134489635049,-0.0796285165934,1.0,0.0,0.0,0.0,1.0,0.0,0.0,0.0,1.0,-0.135318603516,0.312550048828,10.0890197754,0.1,0.0,0.0,0.0,0.1,0.0,0.0,0.0,0.1
1446037377344916671,28,1446037377341890096,robocape,1.40728362171,7.86396212918,-22.4568903278,0.0,10.0,0.0,0.0,0.0,10.0,0.0,0.0,0.0,10.0,-0.0315584589174,0.0125168571234,-0.0111852765783,1.0,0.0,0.0,0.0,1.0,0.0,0.0,0.0,1.0,0.0299377441406,-0.295784912109,10.0734521484,0.1,0.0,0.0,0.0,0.1,0.0,0.0,0.0,0.1
1446037377379782796,29,1446037377376744985,robocape,1.32766270885,7.87458245444,-22.3853962083,0.0,10.0,0.0,0.0,0.0,10.0,0.0,0.0,0.0,10.0,-0.0438089999318,0.0143810698864,0.0131826473959,1.0,0.0,0.0,0.0,1.0,0.0,0.0,0.0,1.0,0.269439697266,-0.592767333984,9.83395019531,0.1,0.0,0.0,0.0,0.1,0.0,0.0,0.0,0.1
1446037377411759296,30,1446037377408664941,robocape,1.25573296928,7.88104720129,-22.2395666437,0.0,10.0,0.0,0.0,0.0,10.0,0.0,0.0,0.0,10.0,-0.0454068965859,0.0125168571234,0.0535295379106,1.0,0.0,0.0,0.0,1.0,0.0,0.0,0.0,1.0,-0.0215551757813,-0.319735107422,10.0746496582,0.1,0.0,0.0,0.0,0.1,0.0,0.0,0.0,0.1
1446037377444505421,31,1446037377441495895,robocape,1.29869622324,7.89493459958,-22.0916435021,0.0,10.0,0.0,0.0,0.0,10.0,0.0,0.0,0.0,10.0,0.0146473859954,0.0165115987585,0.0544616442921,1.0,0.0,0.0,0.0,1.0,0.0,0.0,0.0,1.0,0.144898681641,-1.2645703125,9.96807128906,0.1,0.0,0.0,0.0,0.1,0.0,0.0,0.0,0.1
1446037377477909879,32,1446037377474829912,robocape,1.50530280061,7.93202575478,-22.0357367826,0.0,10.0,0.0,0.0,0.0,10.0,0.0,0.0,0.0,10.0,0.107458549985,0.0284958236638,0.00412789968962,1.0,0.0,0.0,0.0,1.0,0.0,0.0,0.0,1.0,0.126936035156,0.105380859375,10.0782421875,0.1,0.0,0.0,0.0,0.1,0.0,0.0,0.0,0.1
1446037377511519213,33,1446037377508198022,robocape,1.65811748489,7.95627148252,-21.864247145,0.0,10.0,0.0,0.0,0.0,10.0,0.0,0.0,0.0,10.0,0.0707069269416,0.0226368692657,0.066845343361,1.0,0.0,0.0,0.0,1.0,0.0,0.0,0.0,1.0,0.101788330078,-1.15439941406,9.97645385742,0.1,0.0,0.0,0.0,0.1,0.0,0.0,0.0,0.1
1446037377544744713,34,1446037377541625022,robocape,1.99210799718,7.99401631834,-21.8083208956,0.0,10.0,0.0,0.0,0.0,10.0,0.0,0.0,0.0,10.0,0.174703367509,0.0291616139364,0.00386158358061,1.0,0.0,0.0,0.0,1.0,0.0,0.0,0.0,1.0,0.104183349609,0.609532470703,10.0722546387,0.1,0.0,0.0,0.0,0.1,0.0,0.0,0.0,0.1
1446037377578021546,35,1446037377574898958,robocape,1.96583117332,8.01394924735,-21.5640343537,0.0,10.0,0.0,0.0,0.0,10.0,0.0,0.0,0.0,10.0,-0.0284958236638,0.0215716048296,0.106792759712,1.0,0.0,0.0,0.0,1.0,0.0,0.0,0.0,1.0,0.009580078125,-0.0826281738281,10.0447119141,0.1,0.0,0.0,0.0,0.1,0.0,0.0,0.0,0.1
1446037377611482588,36,1446037377608406066,robocape,2.06116775009,8.03568234529,-21.442275391,0.0,10.0,0.0,0.0,0.0,10.0,0.0,0.0,0.0,10.0,0.0446079482588,0.0213052887206,0.0407463646782,1.0,0.0,0.0,0.0,1.0,0.0,0.0,0.0,1.0,0.0263452148438,-0.792751464844,9.99321899414,0.1,0.0,0.0,0.0,0.1,0.0,0.0,0.0,0.1
1446037377644968379,37,1446037377641913890,robocape,2.39854343078,8.0698055049,-21.6629918978,0.0,10.0,0.0,0.0,0.0,10.0,0.0,0.0,0.0,10.0,0.198139185102,0.0237021337017,-0.144609647191,1.0,0.0,0.0,0.0,1.0,0.0,0.0,0.0,1.0,0.257464599609,0.227526855469,10.0147741699,0.1,0.0,0.0,0.0,0.1,0.0,0.0,0.0,0.1
1446037377678313296,38,1446037377674932003,robocape,2.44816886506,8.09002696525,-21.7965234408,0.0,10.0,0.0,0.0,0.0,10.0,0.0,0.0,0.0,10.0,0.0407463646782,0.0170442309765,-0.0969390636789,1.0,0.0,0.0,0.0,1.0,0.0,0.0,0.0,1.0,-0.0838256835938,0.917292480469,10.0997973633,0.1,0.0,0.0,0.0,0.1,0.0,0.0,0.0,0.1
1446037377711420129,39,1446037377708414077,robocape,2.22192186666,8.09192810595,-21.7833494416,0.0,10.0,0.0,0.0,0.0,10.0,0.0,0.0,0.0,10.0,-0.115448033255,0.00932106381528,-0.016644756813,1.0,0.0,0.0,0.0,1.0,0.0,0.0,0.0,1.0,-0.267044677734,0.264649658203,10.075847168,0.1,0.0,0.0,0.0,0.1,0.0,0.0,0.0,0.1
1446037377744811046,40,1446037377741803884,robocape,1.91099910632,8.08682005177,-21.7888912377,0.0,10.0,0.0,0.0,0.0,10.0,0.0,0.0,0.0,10.0,-0.158724400969,0.00532632218016,-0.0262321367373,1.0,0.0,0.0,0.0,1.0,0.0,0.0,0.0,1.0,0.201181640625,-0.0299377441406,10.0219592285,0.1,0.0,0.0,0.0,0.1,0.0,0.0,0.0,0.1
1446037377778092754,41,1446037377775110960,robocape,1.53546853554,8.07926805661,-21.7565090305,0.0,10.0,0.0,0.0,0.0,10.0,0.0,0.0,0.0,10.0,-0.195875498175,0.00439421579863,-0.00559263828917,1.0,0.0,0.0,0.0,1.0,0.0,0.0,0.0,1.0,0.21076171875,-0.401165771484,9.97884887695,0.1,0.0,0.0,0.0,0.1,0.0,0.0,0.0,0.1
1446037377811465796,42,1446037377808430910,robocape,1.2844149316,8.07291446127,-21.715499721,0.0,10.0,0.0,0.0,0.0,10.0,0.0,0.0,0.0,10.0,-0.13156015785,0.00519316412565,-0.00133158054504,1.0,0.0,0.0,0.0,1.0,0.0,0.0,0.0,1.0,0.0155676269531,-0.901724853516,10.0818347168,0.1,0.0,0.0,0.0,0.1,0.0,0.0,0.0,0.1
1446037377846085838,43,1446037377843069076,robocape,1.21003898799,8.08356688979,-21.6558660116,0.0,10.0,0.0,0.0,0.0,10.0,0.0,0.0,0.0,10.0,-0.0404800485692,0.0143810698864,0.00798948327024,1.0,0.0,0.0,0.0,1.0,0.0,0.0,0.0,1.0,0.286204833984,-1.16158447266,9.92256591797,0.1,0.0,0.0,0.0,0.1,0.0,0.0,0.0,0.1
1446037377882693046,44,1446037377878880977,robocape,1.33682413303,8.10828627948,-21.6024342366,0.0,10.0,0.0,0.0,0.0,10.0,0.0,0.0,0.0,10.0,0.0655137628159,0.0219710789932,0.00399474163512,1.0,0.0,0.0,0.0,1.0,0.0,0.0,0.0,1.0,0.09580078125,-1.0346484375,9.98723144531,0.1,0.0,0.0,0.0,0.1,0.0,0.0,0.0,0.1
1446037377915689296,45,1446037377912328004,robocape,1.61283230854,8.14446831817,-21.5518123119,0.0,10.0,0.0,0.0,0.0,10.0,0.0,0.0,0.0,10.0,0.144210173028,0.0282295075548,0.00186421276306,1.0,0.0,0.0,0.0,1.0,0.0,0.0,0.0,1.0,0.173638916016,-0.595162353516,10.0207617188,0.1,0.0,0.0,0.0,0.1,0.0,0.0,0.0,0.1
1446037377948581754,46,1446037377945139884,robocape,1.91032178602,8.18397264394,-21.5063650303,0.0,10.0,0.0,0.0,0.0,10.0,0.0,0.0,0.0,10.0,0.156194397933,0.0300937203179,-0.00119842249054,1.0,0.0,0.0,0.0,1.0,0.0,0.0,0.0,1.0,0.0993933105469,-0.180823974609,10.0566870117,0.1,0.0,0.0,0.0,0.1,0.0,0.0,0.0,0.1
1446037377981877379,47,1446037377978492021,robocape,2.11794810582,8.21445351522,-21.4541348485,0.0,10.0,0.0,0.0,0.0,10.0,0.0,0.0,0.0,10.0,0.10879013053,0.0254331884103,0.00279631914458,1.0,0.0,0.0,0.0,1.0,0.0,0.0,0.0,1.0,0.0395178222656,0.143701171875,10.0674645996,0.1,0.0,0.0,0.0,0.1,0.0,0.0,0.0,0.1
1446037378015341838,48,1446037378012141942,robocape,2.20039495845,8.23590216107,-21.3988273185,0.0,10.0,0.0,0.0,0.0,10.0,0.0,0.0,0.0,10.0,0.0430100516048,0.0206394984481,0.00506000607115,1.0,0.0,0.0,0.0,1.0,0.0,0.0,0.0,1.0,-0.0251477050781,0.280217285156,10.0638720703,0.1,0.0,0.0,0.0,0.1,0.0,0.0,0.0,0.1
1446037378047453796,49,1446037378044205904,robocape,2.14510090714,8.24693857488,-21.3398061499,0.0,10.0,0.0,0.0,0.0,10.0,0.0,0.0,0.0,10.0,-0.0295610880999,0.0150468601589,0.00785632521573,1.0,0.0,0.0,0.0,1.0,0.0,0.0,0.0,1.0,0.0299377441406,0.262254638672,10.0471069336,0.1,0.0,0.0,0.0,0.1,0.0,0.0,0.0,0.1
1446037378081498754,50,1446037378078105926,robocape,1.97437635819,8.24986548407,-21.2754020478,0.0,10.0,0.0,0.0,0.0,10.0,0.0,0.0,0.0,10.0,-0.0906806351172,0.0106526443603,0.0114515926873,1.0,0.0,0.0,0.0,1.0,0.0,0.0,0.0,1.0,0.0275427246094,0.0610729980469,10.0387243652,0.1,0.0,0.0,0.0,0.1,0.0,0.0,0.0,0.1
1446037378114420379,51,1446037378111325025,robocape,1.67342100094,8.22237530822,-21.0282557065,0.0,10.0,0.0,0.0,0.0,10.0,0.0,0.0,0.0,10.0,-0.173504945019,-0.00386158358061,0.110920659402,1.0,0.0,0.0,0.0,1.0,0.0,0.0,0.0,1.0,-0.0850231933594,0.270637207031,9.99082397461,0.1,0.0,0.0,0.0,0.1,0.0,0.0,0.0,0.1
1446037378148758796,52,1446037378145653963,robocape,1.48261947057,8.21675895358,-20.8574801019,0.0,10.0,0.0,0.0,0.0,10.0,0.0,0.0,0.0,10.0,-0.10998855302,0.0066579027252,0.0693753463966,1.0,0.0,0.0,0.0,1.0,0.0,0.0,0.0,1.0,0.28740234375,-1.58191040039,9.92376342773,0.1,0.0,0.0,0.0,0.1,0.0,0.0,0.0,0.1
1446037378181677921,53,1446037378177877902,robocape,1.57441746824,8.23804463628,-20.7988450072,0.0,10.0,0.0,0.0,0.0,10.0,0.0,0.0,0.0,10.0,0.0468716351854,0.0202400242846,0.00812264132474,1.0,0.0,0.0,0.0,1.0,0.0,0.0,0.0,1.0,0.264649658203,-0.870589599609,9.98124389648,0.1,0.0,0.0,0.0,0.1,0.0,0.0,0.0,0.1
1446037378214548796,54,1446037378211438894,robocape,1.71501001903,8.26629821095,-20.6325831095,0.0,10.0,0.0,0.0,0.0,10.0,0.0,0.0,0.0,10.0,0.0641821822709,0.0249005561922,0.0656469208705,1.0,0.0,0.0,0.0,1.0,0.0,0.0,0.0,1.0,0.0455053710938,-0.735270996094,10.0854272461,0.1,0.0,0.0,0.0,0.1,0.0,0.0,0.0,0.1
1446037378247273130,55,1446037378244239091,robocape,2.04484498766,8.30143231543,-20.4955682597,0.0,10.0,0.0,0.0,0.0,10.0,0.0,0.0,0.0,10.0,0.165914935912,0.0287621397729,0.049401638221,1.0,0.0,0.0,0.0,1.0,0.0,0.0,0.0,1.0,0.132923583984,-1.3376184082,9.97405883789,0.1,0.0,0.0,0.0,0.1,0.0,0.0,0.0,0.1
1446037378281432505,56,1446037378278165102,robocape,2.53342481177,8.40849816992,-20.4426226743,0.0,10.0,0.0,0.0,0.0,10.0,0.0,0.0,0.0,10.0,0.25632925492,0.0661795530885,0.00173105470855,1.0,0.0,0.0,0.0,1.0,0.0,0.0,0.0,1.0,0.136516113281,0.844244384766,10.0650695801,0.1,0.0,0.0,0.0,0.1,0.0,0.0,0.0,0.1
1446037378313553963,57,1446037378310472011,robocape,2.73050488478,8.43537563962,-20.4040600725,0.0,10.0,0.0,0.0,0.0,10.0,0.0,0.0,0.0,10.0,0.104795388895,0.0235689756472,-0.00306263525359,1.0,0.0,0.0,0.0,1.0,0.0,0.0,0.0,1.0,-0.0586779785156,-0.407153320313,9.9980090332,0.1,0.0,0.0,0.0,0.1,0.0,0.0,0.0,0.1
1446037378346148005,58,1446037378343146085,robocape,3.08475659412,8.4717480664,-20.5612639458,0.0,10.0,0.0,0.0,0.0,10.0,0.0,0.0,0.0,10.0,0.203465507282,0.0250337142467,-0.108923288584,1.0,0.0,0.0,0.0,1.0,0.0,0.0,0.0,1.0,-0.0323327636719,0.619112548828,10.0710571289,0.1,0.0,0.0,0.0,0.1,0.0,0.0,0.0,0.1
1446037378381308755,59,1446037378378042936,robocape,2.97906620159,8.48052505312,-20.5641017283,0.0,10.0,0.0,0.0,0.0,10.0,0.0,0.0,0.0,10.0,-0.0503337446025,0.0129163312869,-0.0239684498107,1.0,0.0,0.0,0.0,1.0,0.0,0.0,0.0,1.0,-0.0275427246094,0.929267578125,10.0471069336,0.1,0.0,0.0,0.0,0.1,0.0,0.0,0.0,0.1
1446037378413308546,60,1446037378410093069,robocape,2.65185746794,8.47355697105,-20.5143680123,0.0,10.0,0.0,0.0,0.0,10.0,0.0,0.0,0.0,10.0,-0.171108100038,0.00532632218016,0.00559263828917,1.0,0.0,0.0,0.0,1.0,0.0,0.0,0.0,1.0,-0.140108642578,0.267044677734,10.0135766602,0.1,0.0,0.0,0.0,0.1,0.0,0.0,0.0,0.1
1446037378445213088,61,1446037378442123889,robocape,2.20909181826,8.45707513852,-20.415288803,0.0,10.0,0.0,0.0,0.0,10.0,0.0,0.0,0.0,10.0,-0.236089230636,0.000798948327024,0.032756881408,1.0,0.0,0.0,0.0,1.0,0.0,0.0,0.0,1.0,0.0502954101563,-0.0934057617188,10.0542919922,0.1,0.0,0.0,0.0,0.1,0.0,0.0,0.0,0.1
1446037378478644838,62,1446037378475569963,robocape,1.71871212883,8.43987631211,-20.2103824325,0.0,10.0,0.0,0.0,0.0,10.0,0.0,0.0,0.0,10.0,-0.26991137648,0.00119842249054,0.0896153706812,1.0,0.0,0.0,0.0,1.0,0.0,0.0,0.0,1.0,0.199984130859,-0.749641113281,10.0734521484,0.1,0.0,0.0,0.0,0.1,0.0,0.0,0.0,0.1
1446037378517880296,63,1446037378508825063,robocape,1.5103395659,8.4406899192,-20.0445746167,0.0,10.0,0.0,0.0,0.0,10.0,0.0,0.0,0.0,10.0,-0.119176458781,0.0101200121423,0.067644291688,1.0,0.0,0.0,0.0,1.0,0.0,0.0,0.0,1.0,0.228724365234,-1.81662231445,9.99202148437,0.1,0.0,0.0,0.0,0.1,0.0,0.0,0.0,0.1
1446037378544804088,64,1446037378541699886,robocape,1.64320076008,8.46618796691,-19.912958718,0.0,10.0,0.0,0.0,0.0,10.0,0.0,0.0,0.0,10.0,0.0624511275624,0.0231695014837,0.0482032157304,1.0,0.0,0.0,0.0,1.0,0.0,0.0,0.0,1.0,0.251477050781,-1.36635864258,9.97765136719,0.1,0.0,0.0,0.0,0.1,0.0,0.0,0.0,0.1
1446037378578200505,65,1446037378575145959,robocape,2.09066511498,8.51574925993,-19.8754780753,0.0,10.0,0.0,0.0,0.0,10.0,0.0,0.0,0.0,10.0,0.235290282309,0.0355532005526,-0.0034621094171,1.0,0.0,0.0,0.0,1.0,0.0,0.0,0.0,1.0,0.173638916016,-1.34959350586,9.96926879883,0.1,0.0,0.0,0.0,0.1,0.0,0.0,0.0,0.1
1446037378611743921,66,1446037378608444929,robocape,2.70790276767,8.57994177241,-19.9626537904,0.0,10.0,0.0,0.0,0.0,10.0,0.0,0.0,0.0,10.0,0.335158823186,0.0418116291142,-0.0715058752686,1.0,0.0,0.0,0.0,1.0,0.0,0.0,0.0,1.0,0.189206542969,0.566422119141,10.0985998535,0.1,0.0,0.0,0.0,0.1,0.0,0.0,0.0,0.1
1446037378644622255,67,1446037378641519069,robocape,2.71593399046,8.59845804011,-19.5141417759,0.0,10.0,0.0,0.0,0.0,10.0,0.0,0.0,0.0,10.0,-0.0279631914458,0.0263652947918,0.217580261059,1.0,0.0,0.0,0.0,1.0,0.0,0.0,0.0,1.0,-0.123343505859,0.354462890625,10.0698596191,0.1,0.0,0.0,0.0,0.1,0.0,0.0,0.0,0.1
1446037378677991213,68,1446037378674725055,robocape,2.68509010257,8.61783832955,-19.0103676188,0.0,10.0,0.0,0.0,0.0,10.0,0.0,0.0,0.0,10.0,-0.0529969056926,0.0276968753368,0.247540823323,1.0,0.0,0.0,0.0,1.0,0.0,0.0,0.0,1.0,-0.105380859375,-0.399968261719,10.0231567383,0.1,0.0,0.0,0.0,0.1,0.0,0.0,0.0,0.1
1446037378711976380,69,1446037378708688974,robocape,2.71675767156,8.6219198302,-18.4928464257,0.0,10.0,0.0,0.0,0.0,10.0,0.0,0.0,0.0,10.0,-0.0214384467751,0.0199737081756,0.255530306593,1.0,0.0,0.0,0.0,1.0,0.0,0.0,0.0,1.0,0.341290283203,-0.480201416016,9.95010864258,0.1,0.0,0.0,0.0,0.1,0.0,0.0,0.0,0.1
1446037378744388130,70,1446037378741342067,robocape,2.82933503975,8.62922145049,-17.9400190182,0.0,10.0,0.0,0.0,0.0,10.0,0.0,0.0,0.0,10.0,0.0181094954125,0.0227700273202,0.274305592278,1.0,0.0,0.0,0.0,1.0,0.0,0.0,0.0,1.0,0.192799072266,-1.04662353516,9.99561401367,0.1,0.0,0.0,0.0,0.1,0.0,0.0,0.0,0.1
1446037378778047213,71,1446037378775057077,robocape,3.32503360158,8.65849965508,-17.6635490524,0.0,10.0,0.0,0.0,0.0,10.0,0.0,0.0,0.0,10.0,0.241948185034,0.0303600364269,0.125967519561,1.0,0.0,0.0,0.0,1.0,0.0,0.0,0.0,1.0,0.0550854492188,-1.4980847168,10.0219592285,0.1,0.0,0.0,0.0,0.1,0.0,0.0,0.0,0.1
1446037378812314046,72,1446037378808696985,robocape,4.1235698384,8.68959934999,-17.5262249674,0.0,10.0,0.0,0.0,0.0,10.0,0.0,0.0,0.0,10.0,0.413056285071,0.0295610880999,0.0508663768205,1.0,0.0,0.0,0.0,1.0,0.0,0.0,0.0,1.0,0.21076171875,-0.156873779297,10.055489502,0.1,0.0,0.0,0.0,0.1,0.0,0.0,0.0,0.1
1446037378844898255,73,1446037378841881990,robocape,4.97688355071,8.71032342064,-17.5973415959,0.0,10.0,0.0,0.0,0.0,10.0,0.0,0.0,0.0,10.0,0.46032739442,0.017976337358,-0.0600542825813,1.0,0.0,0.0,0.0,1.0,0.0,0.0,0.0,1.0,-0.0227526855469,0.295784912109,10.0471069336,0.1,0.0,0.0,0.0,0.1,0.0,0.0,0.0,0.1
1446037378878656338,74,1446037378875575065,robocape,5.72924120702,8.71942880136,-17.5713922904,0.0,10.0,0.0,0.0,0.0,10.0,0.0,0.0,0.0,10.0,0.400273111839,0.0154463343225,-0.00852211548825,1.0,0.0,0.0,0.0,1.0,0.0,0.0,0.0,1.0,-0.00119750976563,0.374820556641,10.0159716797,0.1,0.0,0.0,0.0,0.1,0.0,0.0,0.0,0.1
1446037378911946005,75,1446037378908303976,robocape,6.42092938672,8.73367135877,-17.5948027173,0.0,10.0,0.0,0.0,0.0,10.0,0.0,0.0,0.0,10.0,0.373641500938,0.015845808486,-0.0352868844435,1.0,0.0,0.0,0.0,1.0,0.0,0.0,0.0,1.0,0.0790356445313,0.570014648438,9.98483642578,0.1,0.0,0.0,0.0,0.1,0.0,0.0,0.0,0.1
1446037378944795380,76,1446037378941715002,robocape,7.0340889828,8.75141642426,-17.6085232262,0.0,10.0,0.0,0.0,0.0,10.0,0.0,0.0,0.0,10.0,0.332495662096,0.017976337358,-0.0306263525359,1.0,0.0,0.0,0.0,1.0,0.0,0.0,0.0,1.0,0.0658630371094,0.592767333984,10.0842297363,0.1,0.0,0.0,0.0,0.1,0.0,0.0,0.0,0.1
1446037378978169672,77,1446037378975006103,robocape,7.53849969815,8.75944887355,-17.6038502369,0.0,10.0,0.0,0.0,0.0,10.0,0.0,0.0,0.0,10.0,0.274438750333,0.0137152796139,-0.0201068662301,1.0,0.0,0.0,0.0,1.0,0.0,0.0,0.0,1.0,-0.275427246094,0.78556640625,10.0997973633,0.1,0.0,0.0,0.0,0.1,0.0,0.0,0.0,0.1
1446037379011665297,78,1446037379008383035,robocape,7.87617939249,8.76810841684,-17.558523305,0.0,10.0,0.0,0.0,0.0,10.0,0.0,0.0,0.0,10.0,0.183624957161,0.0162452826495,0.00199737081756,1.0,0.0,0.0,0.0,1.0,0.0,0.0,0.0,1.0,-0.00239501953125,1.32564331055,10.1093774414,0.1,0.0,0.0,0.0,0.1,0.0,0.0,0.0,0.1
1446037379044715047,79,1446037379041640043,robocape,7.99293094487,8.78473541381,-17.6047415244,0.0,10.0,0.0,0.0,0.0,10.0,0.0,0.0,0.0,10.0,0.0753674588492,0.0138484376684,-0.0455400546404,1.0,0.0,0.0,0.0,1.0,0.0,0.0,0.0,1.0,0.0981958007813,1.97708862305,9.93573852539,0.1,0.0,0.0,0.0,0.1,0.0,0.0,0.0,0.1
1446037379078219005,80,1446037379075016021,robocape,7.75143890301,8.80695099027,-17.5749859503,0.0,10.0,0.0,0.0,0.0,10.0,0.0,0.0,0.0,10.0,-0.120241723217,0.0207726565026,-0.00359526747161,1.0,0.0,0.0,0.0,1.0,0.0,0.0,0.0,1.0,0.154478759766,1.62502075195,10.0267492676,0.1,0.0,0.0,0.0,0.1,0.0,0.0,0.0,0.1
1446037379111328463,81,1446037379108228921,robocape,7.32963171176,8.82418979126,-17.5568423989,0.0,10.0,0.0,0.0,0.0,10.0,0.0,0.0,0.0,10.0,-0.21465078386,0.016911072922,-0.00798948327024,1.0,0.0,0.0,0.0,1.0,0.0,0.0,0.0,1.0,-0.0922082519531,0.621507568359,10.0590820312,0.1,0.0,0.0,0.0,0.1,0.0,0.0,0.0,0.1
1446037379144816255,82,1446037379141736984,robocape,6.88006147364,8.83688067665,-17.5198889307,0.0,10.0,0.0,0.0,0.0,10.0,0.0,0.0,0.0,10.0,-0.231295540673,0.015579492377,0.00253000303558,1.0,0.0,0.0,0.0,1.0,0.0,0.0,0.0,1.0,0.1149609375,0.639470214844,10.0842297363,0.1,0.0,0.0,0.0,0.1,0.0,0.0,0.0,0.1
1446037379178211922,83,1446037379174952030,robocape,6.38218611979,8.84566859345,-17.4491084568,0.0,10.0,0.0,0.0,0.0,10.0,0.0,0.0,0.0,10.0,-0.260057680446,0.0151800182135,0.0210389726116,1.0,0.0,0.0,0.0,1.0,0.0,0.0,0.0,1.0,0.0299377441406,0.4215234375,10.0782421875,0.1,0.0,0.0,0.0,0.1,0.0,0.0,0.0,0.1
1446037379211446630,84,1446037379208444118,robocape,5.87053491635,8.85589833424,-17.369687047,0.0,10.0,0.0,0.0,0.0,10.0,0.0,0.0,0.0,10.0,-0.26844663788,0.016112124595,0.0256995045193,1.0,0.0,0.0,0.0,1.0,0.0,0.0,0.0,1.0,0.00359252929688,0.422720947266,10.0471069336,0.1,0.0,0.0,0.0,0.1,0.0,0.0,0.0,0.1
1446037379244362588,85,1446037379241323947,robocape,5.5227409971,8.88721131761,-17.5335831189,0.0,10.0,0.0,0.0,0.0,10.0,0.0,0.0,0.0,10.0,-0.161653878168,0.0162452826495,-0.104928546949,1.0,0.0,0.0,0.0,1.0,0.0,0.0,0.0,1.0,0.0658630371094,0.267044677734,10.0698596191,0.1,0.0,0.0,0.0,0.1,0.0,0.0,0.0,0.1
1446037379277924172,86,1446037379274801969,robocape,4.97007654967,8.88911605566,-17.5071119352,0.0,10.0,0.0,0.0,0.0,10.0,0.0,0.0,0.0,10.0,-0.286156659129,0.00905474770627,-0.00173105470855,1.0,0.0,0.0,0.0,1.0,0.0,0.0,0.0,1.0,-0.0335302734375,0.251477050781,10.080637207,0.1,0.0,0.0,0.0,0.1,0.0,0.0,0.0,0.1
1446037379314494297,87,1446037379310724973,robocape,4.70444356533,8.92225539472,-17.7448694795,0.0,10.0,0.0,0.0,0.0,10.0,0.0,0.0,0.0,10.0,-0.112918030219,0.016112124595,-0.144609647191,1.0,0.0,0.0,0.0,1.0,0.0,0.0,0.0,1.0,0.13412109375,-1.22385498047,10.0051940918,0.1,0.0,0.0,0.0,0.1,0.0,0.0,0.0,0.1
1446037379346611755,88,1446037379343523979,robocape,4.68667278616,8.95229954507,-17.9712927625,0.0,10.0,0.0,0.0,0.0,10.0,0.0,0.0,0.0,10.0,0.016378440704,0.015845808486,-0.139949115284,1.0,0.0,0.0,0.0,1.0,0.0,0.0,0.0,1.0,0.265847167969,0.526904296875,10.0842297363,0.1,0.0,0.0,0.0,0.1,0.0,0.0,0.0,0.1
1446037379381630088,89,1446037379378608942,robocape,4.4135710352,8.94335876756,-17.7949123552,0.0,10.0,0.0,0.0,0.0,10.0,0.0,0.0,0.0,10.0,-0.152599130462,0.00932106381528,0.0762995652308,1.0,0.0,0.0,0.0,1.0,0.0,0.0,0.0,1.0,-0.326920166016,-0.615520019531,10.0075891113,0.1,0.0,0.0,0.0,0.1,0.0,0.0,0.0,0.1
1446037379414249713,90,1446037379410855054,robocape,4.65042357972,8.98455936675,-18.0132256321,0.0,10.0,0.0,0.0,0.0,10.0,0.0,0.0,0.0,10.0,0.149403337153,0.0229031853747,-0.137285954194,1.0,0.0,0.0,0.0,1.0,0.0,0.0,0.0,1.0,0.482596435547,-0.372425537109,9.94412109375,0.1,0.0,0.0,0.0,0.1,0.0,0.0,0.0,0.1
1446037379447524213,91,1446037379444427967,robocape,4.99852628301,9.02496316542,-18.3946720758,0.0,10.0,0.0,0.0,0.0,10.0,0.0,0.0,0.0,10.0,0.222640267131,0.016112124595,-0.224903954057,1.0,0.0,0.0,0.0,1.0,0.0,0.0,0.0,1.0,-0.0586779785156,0.895737304688,10.0375268555,0.1,0.0,0.0,0.0,0.1,0.0,0.0,0.0,0.1
1446037379480159672,92,1446037379476978063,robocape,5.00192554585,9.04001294155,-18.5777339318,0.0,10.0,0.0,0.0,0.0,10.0,0.0,0.0,0.0,10.0,0.0245010820287,0.00932106381528,-0.117578562127,1.0,0.0,0.0,0.0,1.0,0.0,0.0,0.0,1.0,-0.226329345703,1.39390136719,10.0447119141,0.1,0.0,0.0,0.0,0.1,0.0,0.0,0.0,0.1
1446037379513441630,93,1446037379510195970,robocape,4.68043320829,9.03918966164,-18.6203209728,0.0,10.0,0.0,0.0,0.0,10.0,0.0,0.0,0.0,10.0,-0.158724400969,0.00585895439817,-0.0408795227327,1.0,0.0,0.0,0.0,1.0,0.0,0.0,0.0,1.0,0.0898132324219,0.701740722656,10.0902172852,0.1,0.0,0.0,0.0,0.1,0.0,0.0,0.0,0.1
1446037379545996255,94,1446037379542959928,robocape,4.2010982104,9.0226053896,-18.4971051671,0.0,10.0,0.0,0.0,0.0,10.0,0.0,0.0,0.0,10.0,-0.256462412975,0.00306263525359,0.0486026898939,1.0,0.0,0.0,0.0,1.0,0.0,0.0,0.0,1.0,-0.0910107421875,0.431103515625,10.1297351074,0.1,0.0,0.0,0.0,0.1,0.0,0.0,0.0,0.1
1446037379578732755,95,1446037379575576066,robocape,3.6405203341,8.99621059109,-18.2926817064,0.0,10.0,0.0,0.0,0.0,10.0,0.0,0.0,0.0,10.0,-0.306529841468,-0.000399474163512,0.0925448478803,1.0,0.0,0.0,0.0,1.0,0.0,0.0,0.0,1.0,0.0323327636719,-1.28373046875,10.0902172852,0.1,0.0,0.0,0.0,0.1,0.0,0.0,0.0,0.1
1446037379612558422,96,1446037379609237909,robocape,3.64086519516,9.01709178769,-18.3039524878,0.0,10.0,0.0,0.0,0.0,10.0,0.0,0.0,0.0,10.0,0.00639158661619,0.0193079179031,-0.0259658206283,1.0,0.0,0.0,0.0,1.0,0.0,0.0,0.0,1.0,0.495769042969,-0.999920654297,10.0483044434,0.1,0.0,0.0,0.0,0.1,0.0,0.0,0.0,0.1
1446037379645655880,97,1446037379642379999,robocape,3.93266925704,9.05407840582,-18.418296292,0.0,10.0,0.0,0.0,0.0,10.0,0.0,0.0,0.0,10.0,0.168578097002,0.0254331884103,-0.0825579937925,1.0,0.0,0.0,0.0,1.0,0.0,0.0,0.0,1.0,0.05748046875,-0.7280859375,10.0614770508,0.1,0.0,0.0,0.0,0.1,0.0,0.0,0.0,0.1
1446037379678357880,98,1446037379675265073,robocape,4.26097717385,9.09142220654,-18.4934092158,0.0,10.0,0.0,0.0,0.0,10.0,0.0,0.0,0.0,10.0,0.184823379651,0.0266316109008,-0.0623179695079,1.0,0.0,0.0,0.0,1.0,0.0,0.0,0.0,1.0,0.126936035156,0.232316894531,10.060279541,0.1,0.0,0.0,0.0,0.1,0.0,0.0,0.0,0.1
1446037379711510130,99,1446037379708532094,robocape,4.43010051516,9.1191473031,-18.4460997283,0.0,10.0,0.0,0.0,0.0,10.0,0.0,0.0,0.0,10.0,0.0908137931717,0.0251668723012,0.0034621094171,1.0,0.0,0.0,0.0,1.0,0.0,0.0,0.0,1.0,-0.0407153320313,0.950822753906,10.1021923828,0.1,0.0,0.0,0.0,0.1,0.0,0.0,0.0,0.1
1446037379745170089,100,1446037379742136955,robocape,4.33667407944,9.12447524955,-18.1891842583,0.0,10.0,0.0,0.0,0.0,10.0,0.0,0.0,0.0,10.0,-0.0655137628159,0.0198405501211,0.116912771854,1.0,0.0,0.0,0.0,1.0,0.0,0.0,0.0,1.0,-0.086220703125,-0.577199707031,10.0255517578,0.1,0.0,0.0,0.0,0.1,0.0,0.0,0.0,0.1
1446037379778123380,101,1446037379775019884,robocape,4.562786153,9.14902977478,-18.1871329101,0.0,10.0,0.0,0.0,0.0,10.0,0.0,0.0,0.0,10.0,0.12476909707,0.0221042370477,-0.0202400242846,1.0,0.0,0.0,0.0,1.0,0.0,0.0,0.0,1.0,0.314945068359,0.198786621094,10.0387243652,0.1,0.0,0.0,0.0,0.1,0.0,0.0,0.0,0.1
1446037379812999214,102,1446037379809705018,robocape,4.84340425577,9.17419488827,-18.315577964,0.0,10.0,0.0,0.0,0.0,10.0,0.0,0.0,0.0,10.0,0.165249145639,0.0178431793035,-0.0898816867902,1.0,0.0,0.0,0.0,1.0,0.0,0.0,0.0,1.0,-0.132923583984,0.185614013672,10.0710571289,0.1,0.0,0.0,0.0,0.1,0.0,0.0,0.0,0.1
1446037379846657214,103,1446037379843337059,robocape,4.8697745032,9.1924721186,-18.3686780624,0.0,10.0,0.0,0.0,0.0,10.0,0.0,0.0,0.0,10.0,0.0251668723012,0.016378440704,-0.0487358479485,1.0,0.0,0.0,0.0,1.0,0.0,0.0,0.0,1.0,-0.0335302734375,1.28971801758,10.075847168,0.1,0.0,0.0,0.0,0.1,0.0,0.0,0.0,0.1
1446037379880046130,104,1446037379876667976,robocape,4.40676583991,9.17879629525,-18.0910992922,0.0,10.0,0.0,0.0,0.0,10.0,0.0,0.0,0.0,10.0,-0.261522419046,0.0103863282513,0.130494893414,1.0,0.0,0.0,0.0,1.0,0.0,0.0,0.0,1.0,-0.0598754882813,0.558039550781,10.1033898926,0.1,0.0,0.0,0.0,0.1,0.0,0.0,0.0,0.1
1446037379913447505,105,1446037379910094976,robocape,4.1592002466,9.18070504543,-17.9889770523,0.0,10.0,0.0,0.0,0.0,10.0,0.0,0.0,0.0,10.0,-0.133158054504,0.0125168571234,0.0360858327706,1.0,0.0,0.0,0.0,1.0,0.0,0.0,0.0,1.0,0.100590820313,-0.901724853516,10.0159716797,0.1,0.0,0.0,0.0,0.1,0.0,0.0,0.0,0.1
1446037379948491214,106,1446037379944236993,robocape,3.91437776845,9.18271792886,-17.8336146495,0.0,10.0,0.0,0.0,0.0,10.0,0.0,0.0,0.0,10.0,-0.136620163921,0.0139815957229,0.0644484983799,1.0,0.0,0.0,0.0,1.0,0.0,0.0,0.0,1.0,0.117355957031,-0.100590820313,10.0590820312,0.1,0.0,0.0,0.0,0.1,0.0,0.0,0.0,0.1
1446037379979511922,107,1446037379975684881,robocape,3.99003424552,9.20958924699,-17.9003669351,0.0,10.0,0.0,0.0,0.0,10.0,0.0,0.0,0.0,10.0,0.0511326929295,0.0210389726116,-0.0553937506736,1.0,0.0,0.0,0.0,1.0,0.0,0.0,0.0,1.0,0.136516113281,-1.06578369141,9.94891113281,0.1,0.0,0.0,0.0,0.1,0.0,0.0,0.0,0.1
1446037380016156880,108,1446037380011771917,robocape,4.28298615483,9.24783194568,-18.0508222382,0.0,10.0,0.0,0.0,0.0,10.0,0.0,0.0,0.0,10.0,0.172972312801,0.0247673981377,-0.101333279478,1.0,0.0,0.0,0.0,1.0,0.0,0.0,0.0,1.0,0.245489501953,-0.0131726074219,10.0375268555,0.1,0.0,0.0,0.0,0.1,0.0,0.0,0.0,0.1
1446037380049384005,109,1446037380045350074,robocape,4.26392274515,9.25978432372,-17.9018152882,0.0,10.0,0.0,0.0,0.0,10.0,0.0,0.0,0.0,10.0,-0.0173105470855,0.0198405501211,0.0595216503633,1.0,0.0,0.0,0.0,1.0,0.0,0.0,0.0,1.0,-0.185614013672,0.469423828125,10.0674645996,0.1,0.0,0.0,0.0,0.1,0.0,0.0,0.0,0.1
1446037380082718839,110,1446037380079163074,robocape,4.36726151218,9.2792162567,-17.8457890882,0.0,10.0,0.0,0.0,0.0,10.0,0.0,0.0,0.0,10.0,0.0552605926191,0.0210389726116,0.00958737992429,1.0,0.0,0.0,0.0,1.0,0.0,0.0,0.0,1.0,0.356857910156,-0.160466308594,10.0171691895,0.1,0.0,0.0,0.0,0.1,0.0,0.0,0.0,0.1
1446037380116775714,111,1446037380112888097,robocape,4.27951985882,9.27357057264,-17.6148045419,0.0,10.0,0.0,0.0,0.0,10.0,0.0,0.0,0.0,10.0,-0.0607200728538,0.0131826473959,0.104262756677,1.0,0.0,0.0,0.0,1.0,0.0,0.0,0.0,1.0,-0.0790356445313,0.587977294922,10.075847168,0.1,0.0,0.0,0.0,0.1,0.0,0.0,0.0,0.1
1446037380149256130,112,1446037380145062923,robocape,4.31659756299,9.29048284589,-17.5454527804,0.0,10.0,0.0,0.0,0.0,10.0,0.0,0.0,0.0,10.0,0.0191747598486,0.0199737081756,0.01744370514,1.0,0.0,0.0,0.0,1.0,0.0,0.0,0.0,1.0,-0.0874182128906,0.252674560547,10.0770446777,0.1,0.0,0.0,0.0,0.1,0.0,0.0,0.0,0.1
1446037380182999672,113,1446037380178456068,robocape,4.27137713469,9.30519737018,-17.4969718717,0.0,10.0,0.0,0.0,0.0,10.0,0.0,0.0,0.0,10.0,-0.0222373951022,0.017976337358,0.00692421883421,1.0,0.0,0.0,0.0,1.0,0.0,0.0,0.0,1.0,0.201181640625,-0.553249511719,9.95370117188,0.1,0.0,0.0,0.0,0.1,0.0,0.0,0.0,0.1
1446037380216672797,114,1446037380212953090,robocape,4.56554636514,9.34196644905,-17.7325407266,0.0,10.0,0.0,0.0,0.0,10.0,0.0,0.0,0.0,10.0,0.181627586343,0.0207726565026,-0.145808069682,1.0,0.0,0.0,0.0,1.0,0.0,0.0,0.0,1.0,0.13412109375,-0.140108642578,9.99082397461,0.1,0.0,0.0,0.0,0.1,0.0,0.0,0.0,0.1
1446037380248469255,115,1446037380244807958,robocape,4.67949803649,9.36542104353,-17.9420061213,0.0,10.0,0.0,0.0,0.0,10.0,0.0,0.0,0.0,10.0,0.0849548387735,0.0139815957229,-0.131160683686,1.0,0.0,0.0,0.0,1.0,0.0,0.0,0.0,1.0,-0.140108642578,1.39869140625,10.0315393066,0.1,0.0,0.0,0.0,0.1,0.0,0.0,0.0,0.1
1446037380282770380,116,1446037380279498100,robocape,4.3667545601,9.35600976544,-17.8235373605,0.0,10.0,0.0,0.0,0.0,10.0,0.0,0.0,0.0,10.0,-0.168844413111,0.00732369299772,0.0456732126949,1.0,0.0,0.0,0.0,1.0,0.0,0.0,0.0,1.0,-0.028740234375,0.869392089844,10.1201550293,0.1,0.0,0.0,0.0,0.1,0.0,0.0,0.0,0.1
1446037380315694797,117,1446037380312294960,robocape,3.81021212352,9.32390533268,-17.5011848426,0.0,10.0,0.0,0.0,0.0,10.0,0.0,0.0,0.0,10.0,-0.31545143112,0.00066579027252,0.15579492377,1.0,0.0,0.0,0.0,1.0,0.0,0.0,0.0,1.0,-0.0946032714844,-0.0215551757813,10.1548828125,0.1,0.0,0.0,0.0,0.1,0.0,0.0,0.0,0.1
1446037380349041631,118,1446037380345674037,robocape,3.42366750153,9.31538267966,-17.3705888567,0.0,10.0,0.0,0.0,0.0,10.0,0.0,0.0,0.0,10.0,-0.209457619735,0.00705737688871,0.0528637476381,1.0,0.0,0.0,0.0,1.0,0.0,0.0,0.0,1.0,0.366437988281,-1.89086791992,9.85670288086,0.1,0.0,0.0,0.0,0.1,0.0,0.0,0.0,0.1
1446037380381838006,119,1446037380378720045,robocape,3.6876037373,9.35828379939,-17.5327458815,0.0,10.0,0.0,0.0,0.0,10.0,0.0,0.0,0.0,10.0,0.158058610696,0.0276968753368,-0.106260127494,1.0,0.0,0.0,0.0,1.0,0.0,0.0,0.0,1.0,0.356857910156,-0.781973876953,10.0375268555,0.1,0.0,0.0,0.0,0.1,0.0,0.0,0.0,0.1
1446037380413861714,120,1446037380410594940,robocape,4.04825202673,9.40214363482,-17.7150683482,0.0,10.0,0.0,0.0,0.0,10.0,0.0,0.0,0.0,10.0,0.211188674443,0.0274305592278,-0.117844878236,1.0,0.0,0.0,0.0,1.0,0.0,0.0,0.0,1.0,-0.0682580566406,-0.00598754882813,10.0938098145,0.1,0.0,0.0,0.0,0.1,0.0,0.0,0.0,0.1
1446037380447528256,121,1446037380444344043,robocape,4.17361129711,9.42216648407,-17.6936446125,0.0,10.0,0.0,0.0,0.0,10.0,0.0,0.0,0.0,10.0,0.0696416625056,0.0203731823391,-0.00852211548825,1.0,0.0,0.0,0.0,1.0,0.0,0.0,0.0,1.0,-0.00239501953125,0.458646240234,10.0650695801,0.1,0.0,0.0,0.0,0.1,0.0,0.0,0.0,0.1
1446037380481373422,122,1446037380478254079,robocape,4.21366531122,9.43707651604,-17.6455928481,0.0,10.0,0.0,0.0,0.0,10.0,0.0,0.0,0.0,10.0,0.0225037112112,0.0183758115215,0.00612527050718,1.0,0.0,0.0,0.0,1.0,0.0,0.0,0.0,1.0,0.0323327636719,0.380808105469,10.0686621094,0.1,0.0,0.0,0.0,0.1,0.0,0.0,0.0,0.1
1446037380514137172,123,1446037380511130094,robocape,4.11937188974,9.43818898721,-17.4667517864,0.0,10.0,0.0,0.0,0.0,10.0,0.0,0.0,0.0,10.0,-0.0599211245268,0.0149137021044,0.0765658813398,1.0,0.0,0.0,0.0,1.0,0.0,0.0,0.0,1.0,-0.0155676269531,0.793948974609,10.0626745605,0.1,0.0,0.0,0.0,0.1,0.0,0.0,0.0,0.1
1446037380546607172,124,1446037380543462038,robocape,3.88582847895,9.43617515547,-17.3080617564,0.0,10.0,0.0,0.0,0.0,10.0,0.0,0.0,0.0,10.0,-0.131426999795,0.0121173829599,0.066845343361,1.0,0.0,0.0,0.0,1.0,0.0,0.0,0.0,1.0,0.0622705078125,-0.93884765625,9.98244140625,0.1,0.0,0.0,0.0,0.1,0.0,0.0,0.0,0.1
1446037380581247256,125,1446037380578052043,robocape,3.8593571287,9.45151488893,-17.225207484,0.0,10.0,0.0,0.0,0.0,10.0,0.0,0.0,0.0,10.0,-0.0159789665405,0.0193079179031,0.0254331884103,1.0,0.0,0.0,0.0,1.0,0.0,0.0,0.0,1.0,0.2682421875,0.185614013672,10.1069824219,0.1,0.0,0.0,0.0,0.1,0.0,0.0,0.0,0.1
1446037380613852047,126,1446037380610846042,robocape,3.80000441791,9.45747071917,-17.0019815969,0.0,10.0,0.0,0.0,0.0,10.0,0.0,0.0,0.0,10.0,-0.0459395288039,0.018242653467,0.100268015041,1.0,0.0,0.0,0.0,1.0,0.0,0.0,0.0,1.0,-0.047900390625,-0.647852783203,10.0674645996,0.1,0.0,0.0,0.0,0.1,0.0,0.0,0.0,0.1
1446037380647332047,127,1446037380644290924,robocape,3.87980108392,9.47033942096,-16.7898302477,0.0,10.0,0.0,0.0,0.0,10.0,0.0,0.0,0.0,10.0,0.0280963495003,0.0218379209386,0.0938764284253,1.0,0.0,0.0,0.0,1.0,0.0,0.0,0.0,1.0,0.256267089844,-0.564027099609,9.9980090332,0.1,0.0,0.0,0.0,0.1,0.0,0.0,0.0,0.1
1446037380680401381,128,1446037380677295923,robocape,4.16078952166,9.49816876145,-16.6773053448,0.0,10.0,0.0,0.0,0.0,10.0,0.0,0.0,0.0,10.0,0.142878592483,0.0274305592278,0.0400805744057,1.0,0.0,0.0,0.0,1.0,0.0,0.0,0.0,1.0,0.0790356445313,-0.447868652344,10.0087866211,0.1,0.0,0.0,0.0,0.1,0.0,0.0,0.0,0.1
1446037380713175089,129,1446037380709949970,robocape,4.54936662952,9.53532023056,-16.7098921328,0.0,10.0,0.0,0.0,0.0,10.0,0.0,0.0,0.0,10.0,0.212919729152,0.0280963495003,-0.0374174133156,1.0,0.0,0.0,0.0,1.0,0.0,0.0,0.0,1.0,0.112565917969,-0.28740234375,10.0027990723,0.1,0.0,0.0,0.0,0.1,0.0,0.0,0.0,0.1
1446037380745903047,130,1446037380742680072,robocape,5.09539712908,9.57639616435,-16.9934567288,0.0,10.0,0.0,0.0,0.0,10.0,0.0,0.0,0.0,10.0,0.319313014701,0.0210389726116,-0.171108100038,1.0,0.0,0.0,0.0,1.0,0.0,0.0,0.0,1.0,-0.0526904296875,0.562829589844,10.1213525391,0.1,0.0,0.0,0.0,0.1,0.0,0.0,0.0,0.1
1446037380779286464,131,1446037380776058912,robocape,5.48930800719,9.60325653939,-17.2368116952,0.0,10.0,0.0,0.0,0.0,10.0,0.0,0.0,0.0,10.0,0.236488704799,0.0138484376684,-0.149403337153,1.0,0.0,0.0,0.0,1.0,0.0,0.0,0.0,1.0,-0.198786621094,1.839375,9.93573852539,0.1,0.0,0.0,0.0,0.1,0.0,0.0,0.0,0.1
1446037380812185381,132,1446037380808937072,robocape,5.03417648774,9.59479011056,-17.1606250956,0.0,10.0,0.0,0.0,0.0,10.0,0.0,0.0,0.0,10.0,-0.239551340053,0.00652474467069,0.0247673981377,1.0,0.0,0.0,0.0,1.0,0.0,0.0,0.0,1.0,-0.0419128417969,1.99864379883,10.0566870117,0.1,0.0,0.0,0.0,0.1,0.0,0.0,0.0,0.1
1446037380844945339,133,1446037380841912984,robocape,4.37731245651,9.56683963036,-17.0041157833,0.0,10.0,0.0,0.0,0.0,10.0,0.0,0.0,0.0,10.0,-0.353401476654,-0.00159789665405,0.0691090302876,1.0,0.0,0.0,0.0,1.0,0.0,0.0,0.0,1.0,-0.128133544922,-0.556842041016,10.0267492676,0.1,0.0,0.0,0.0,0.1,0.0,0.0,0.0,0.1
1446037380878613797,134,1446037380875101089,robocape,3.98446665703,9.55345762328,-17.0303024339,0.0,10.0,0.0,0.0,0.0,10.0,0.0,0.0,0.0,10.0,-0.198405501211,0.000266316109008,-0.0291616139364,1.0,0.0,0.0,0.0,1.0,0.0,0.0,0.0,1.0,0.279019775391,-0.629890136719,10.0315393066,0.1,0.0,0.0,0.0,0.1,0.0,0.0,0.0,0.1
1446037380911501381,135,1446037380908258914,robocape,3.67957208671,9.55052360214,-17.0318924586,0.0,10.0,0.0,0.0,0.0,10.0,0.0,0.0,0.0,10.0,-0.154729659334,0.0067910607797,-0.0170442309765,1.0,0.0,0.0,0.0,1.0,0.0,0.0,0.0,1.0,0.0526904296875,-0.223934326172,10.1117724609,0.1,0.0,0.0,0.0,0.1,0.0,0.0,0.0,0.1
1446037380944921547,136,1446037380941781044,robocape,3.30094547017,9.52467979066,-16.6988973608,0.0,10.0,0.0,0.0,0.0,10.0,0.0,0.0,0.0,10.0,-0.223971847676,0.00306263525359,0.160854929841,1.0,0.0,0.0,0.0,1.0,0.0,0.0,0.0,1.0,0.028740234375,-0.808319091797,10.1045874023,0.1,0.0,0.0,0.0,0.1,0.0,0.0,0.0,0.1
1446037380978543964,137,1446037380975039005,robocape,3.1298021226,9.53598174511,-16.3350534069,0.0,10.0,0.0,0.0,0.0,10.0,0.0,0.0,0.0,10.0,-0.117978036291,0.0229031853747,0.175369157782,1.0,0.0,0.0,0.0,1.0,0.0,0.0,0.0,1.0,0.376018066406,-1.20948486328,9.94651611328,0.1,0.0,0.0,0.0,0.1,0.0,0.0,0.0,0.1
1446037381011237464,138,1446037381008132934,robocape,3.32507766808,9.56065112738,-15.9761318705,0.0,10.0,0.0,0.0,0.0,10.0,0.0,0.0,0.0,10.0,0.0747016685767,0.0304931944814,0.171507574201,1.0,0.0,0.0,0.0,1.0,0.0,0.0,0.0,1.0,0.13412109375,-1.39629638672,10.0387243652,0.1,0.0,0.0,0.0,0.1,0.0,0.0,0.0,0.1
1446037381044773048,139,1446037381041451930,robocape,3.81956429914,9.59596605025,-15.5835756121,0.0,10.0,0.0,0.0,0.0,10.0,0.0,0.0,0.0,10.0,0.228898695692,0.0386158358061,0.18801917296,1.0,0.0,0.0,0.0,1.0,0.0,0.0,0.0,1.0,0.294587402344,-0.755628662109,9.90819580078,0.1,0.0,0.0,0.0,0.1,0.0,0.0,0.0,0.1
1446037381078177714,140,1446037381074736118,robocape,4.34819441166,9.61846665921,-15.0915002867,0.0,10.0,0.0,0.0,0.0,10.0,0.0,0.0,0.0,10.0,0.238086601453,0.0368847810976,0.240616604489,1.0,0.0,0.0,0.0,1.0,0.0,0.0,0.0,1.0,-0.0335302734375,-0.899329833984,10.0075891113,0.1,0.0,0.0,0.0,0.1,0.0,0.0,0.0,0.1
1446037381111330006,141,1446037381108223915,robocape,5.19338059312,9.64908761466,-14.7971273609,0.0,10.0,0.0,0.0,0.0,10.0,0.0,0.0,0.0,10.0,0.423043139159,0.0375505713701,0.135155425322,1.0,0.0,0.0,0.0,1.0,0.0,0.0,0.0,1.0,-0.0131726074219,-0.475411376953,10.0530944824,0.1,0.0,0.0,0.0,0.1,0.0,0.0,0.0,0.1
1446037381144557798,142,1446037381141473054,robocape,6.13113646939,9.64352164928,-14.6370973843,0.0,10.0,0.0,0.0,0.0,10.0,0.0,0.0,0.0,10.0,0.485094792558,0.0151800182135,0.065780078925,1.0,0.0,0.0,0.0,1.0,0.0,0.0,0.0,1.0,0.0107775878906,0.276624755859,10.0674645996,0.1,0.0,0.0,0.0,0.1,0.0,0.0,0.0,0.1
1446037381178686923,143,1446037381175357103,robocape,7.03131210036,9.66309014587,-14.6674563471,0.0,10.0,0.0,0.0,0.0,10.0,0.0,0.0,0.0,10.0,0.484429002285,0.0195742340121,-0.0359526747161,1.0,0.0,0.0,0.0,1.0,0.0,0.0,0.0,1.0,-0.0658630371094,1.05380859375,9.9980090332,0.1,0.0,0.0,0.0,0.1,0.0,0.0,0.0,0.1
1446037381211372214,144,1446037381208348035,robocape,7.66945434296,9.67111584476,-14.6344878947,0.0,10.0,0.0,0.0,0.0,10.0,0.0,0.0,0.0,10.0,0.341683567857,0.016644756813,-0.00159789665405,1.0,0.0,0.0,0.0,1.0,0.0,0.0,0.0,1.0,0.0598754882813,1.66693359375,10.0327368164,0.1,0.0,0.0,0.0,0.1,0.0,0.0,0.0,0.1
1446037381244808256,145,1446037381241806030,robocape,8.05358534395,9.68116107388,-14.5974226842,0.0,10.0,0.0,0.0,0.0,10.0,0.0,0.0,0.0,10.0,0.20812603919,0.01744370514,0.00133158054504,1.0,0.0,0.0,0.0,1.0,0.0,0.0,0.0,1.0,-0.0371228027344,2.15671508789,9.94292358398,0.1,0.0,0.0,0.0,0.1,0.0,0.0,0.0,0.1
1446037381278351756,146,1446037381275223016,robocape,8.0839997549,9.69103141709,-14.5733624914,0.0,10.0,0.0,0.0,0.0,10.0,0.0,0.0,0.0,10.0,0.0230363434292,0.0154463343225,-0.00359526747161,1.0,0.0,0.0,0.0,1.0,0.0,0.0,0.0,1.0,0.164058837891,2.01540893555,9.97046630859,0.1,0.0,0.0,0.0,0.1,0.0,0.0,0.0,0.1
1446037381311249089,147,1446037381308233022,robocape,7.78701896757,9.70884104663,-14.5474200006,0.0,10.0,0.0,0.0,0.0,10.0,0.0,0.0,0.0,10.0,-0.149935969371,0.0186421276306,-0.00133158054504,1.0,0.0,0.0,0.0,1.0,0.0,0.0,0.0,1.0,-0.01916015625,1.06458618164,10.0698596191,0.1,0.0,0.0,0.0,0.1,0.0,0.0,0.0,0.1
1446037381346536298,148,1446037381343377113,robocape,7.3834210882,9.73167107903,-14.5744211367,0.0,10.0,0.0,0.0,0.0,10.0,0.0,0.0,0.0,10.0,-0.201468136464,0.0175768631945,-0.0286289817184,1.0,0.0,0.0,0.0,1.0,0.0,0.0,0.0,1.0,0.0239501953125,0.950822753906,10.0734521484,0.1,0.0,0.0,0.0,0.1,0.0,0.0,0.0,0.1
1446037381380118673,149,1446037381376909971,robocape,6.83285424964,9.74270495431,-14.5327219321,0.0,10.0,0.0,0.0,0.0,10.0,0.0,0.0,0.0,10.0,-0.285757184966,0.0151800182135,0.00892158965177,1.0,0.0,0.0,0.0,1.0,0.0,0.0,0.0,1.0,0.0383203125,0.817899169922,10.0339343262,0.1,0.0,0.0,0.0,0.1,0.0,0.0,0.0,0.1
1446037381411570173,150,1446037381408297061,robocape,6.26619776167,9.7593747849,-14.5387411943,0.0,10.0,0.0,0.0,0.0,10.0,0.0,0.0,0.0,10.0,-0.290151400764,0.0154463343225,-0.0162452826495,1.0,0.0,0.0,0.0,1.0,0.0,0.0,0.0,1.0,0.0323327636719,0.245489501953,10.0614770508,0.1,0.0,0.0,0.0,0.1,0.0,0.0,0.0,0.1
1446037381444285798,151,1446037381441287040,robocape,5.8407937861,9.79961391442,-14.8681989251,0.0,10.0,0.0,0.0,0.0,10.0,0.0,0.0,0.0,10.0,-0.185888644088,0.0125168571234,-0.187619698796,1.0,0.0,0.0,0.0,1.0,0.0,0.0,0.0,1.0,0.0407153320313,0.544866943359,9.97166381836,0.1,0.0,0.0,0.0,0.1,0.0,0.0,0.0,0.1
1446037381478012964,152,1446037381474912881,robocape,5.37649723615,9.83191754321,-15.3591778469,0.0,10.0,0.0,0.0,0.0,10.0,0.0,0.0,0.0,10.0,-0.191481282377,0.00253000303558,-0.272175063406,1.0,0.0,0.0,0.0,1.0,0.0,0.0,0.0,1.0,-0.0850231933594,0.74724609375,10.0123791504,0.1,0.0,0.0,0.0,0.1,0.0,0.0,0.0,0.1
1446037381511121673,153,1446037381508069038,robocape,4.49152278622,9.81918395423,-15.4846220424,0.0,10.0,0.0,0.0,0.0,10.0,0.0,0.0,0.0,10.0,-0.447411063133,-0.00479368996214,-0.0769653555033,1.0,0.0,0.0,0.0,1.0,0.0,0.0,0.0,1.0,-0.166453857422,1.09332641602,10.1357226563,0.1,0.0,0.0,0.0,0.1,0.0,0.0,0.0,0.1
1446037381547784214,154,1446037381544045925,robocape,3.52934071637,9.74731418495,-15.2005036852,0.0,10.0,0.0,0.0,0.0,10.0,0.0,0.0,0.0,10.0,-0.526506947509,-0.0223705531567,0.140481747502,1.0,0.0,0.0,0.0,1.0,0.0,0.0,0.0,1.0,-0.208366699219,-1.82380737305,10.0818347168,0.1,0.0,0.0,0.0,0.1,0.0,0.0,0.0,0.1
1446037381577918756,155,1446037381574812889,robocape,3.11075075242,9.77220226417,-15.353836787,0.0,10.0,0.0,0.0,0.0,10.0,0.0,0.0,0.0,10.0,-0.201201820355,0.0175768631945,-0.0952080089703,1.0,0.0,0.0,0.0,1.0,0.0,0.0,0.0,1.0,0.849034423828,-2.31358886719,9.96208374023,0.1,0.0,0.0,0.0,0.1,0.0,0.0,0.0,0.1
1446037381611084131,156,1446037381607942104,robocape,2.96725582042,9.77860475839,-15.2364499261,0.0,10.0,0.0,0.0,0.0,10.0,0.0,0.0,0.0,10.0,-0.0818922035199,0.0146473859954,0.0468716351854,1.0,0.0,0.0,0.0,1.0,0.0,0.0,0.0,1.0,-0.125738525391,-0.93884765625,9.97046630859,0.1,0.0,0.0,0.0,0.1,0.0,0.0,0.0,0.1
1446037381644851631,157,1446037381641463994,robocape,3.42720890513,9.82311855268,-15.354724352,0.0,10.0,0.0,0.0,0.0,10.0,0.0,0.0,0.0,10.0,0.256728729084,0.0304931944814,-0.0798948327024,1.0,0.0,0.0,0.0,1.0,0.0,0.0,0.0,1.0,0.409548339844,-1.56873779297,9.94412109375,0.1,0.0,0.0,0.0,0.1,0.0,0.0,0.0,0.1
1446037381678145714,158,1446037381674808979,robocape,4.16925861058,9.89671738776,-15.6519426052,0.0,10.0,0.0,0.0,0.0,10.0,0.0,0.0,0.0,10.0,0.422510506941,0.0407463646782,-0.176700738327,1.0,0.0,0.0,0.0,1.0,0.0,0.0,0.0,1.0,0.227526855469,0.129331054688,10.0411193848,0.1,0.0,0.0,0.0,0.1,0.0,0.0,0.0,0.1
1446037381711488256,159,1446037381708107948,robocape,4.48323418045,9.92135332874,-15.5742229687,0.0,10.0,0.0,0.0,0.0,10.0,0.0,0.0,0.0,10.0,0.163251774822,0.0253000303558,0.0229031853747,1.0,0.0,0.0,0.0,1.0,0.0,0.0,0.0,1.0,-0.215551757813,1.01189575195,10.1201550293,0.1,0.0,0.0,0.0,0.1,0.0,0.0,0.0,0.1
1446037381744732881,160,1446037381741580009,robocape,4.4704068787,9.91944400536,-15.122513065,0.0,10.0,0.0,0.0,0.0,10.0,0.0,0.0,0.0,10.0,-0.0435426838228,0.0235689756472,0.221708160749,1.0,0.0,0.0,0.0,1.0,0.0,0.0,0.0,1.0,-0.294587402344,-0.280217285156,10.0794396973,0.1,0.0,0.0,0.0,0.1,0.0,0.0,0.0,0.1
1446037381778289590,161,1446037381775034904,robocape,4.81781273043,9.96227319007,-15.1886666893,0.0,10.0,0.0,0.0,0.0,10.0,0.0,0.0,0.0,10.0,0.194677075685,0.0299605622634,-0.0531300637471,1.0,0.0,0.0,0.0,1.0,0.0,0.0,0.0,1.0,0.522114257812,-0.353265380859,9.9596887207,0.1,0.0,0.0,0.0,0.1,0.0,0.0,0.0,0.1
1446037381811285798,162,1446037381808232069,robocape,4.87883727544,9.96736835922,-15.0381244088,0.0,10.0,0.0,0.0,0.0,10.0,0.0,0.0,0.0,10.0,0.0238352917562,0.0175768631945,0.0632500758894,1.0,0.0,0.0,0.0,1.0,0.0,0.0,0.0,1.0,0.0299377441406,1.50167724609,10.003996582,0.1,0.0,0.0,0.0,0.1,0.0,0.0,0.0,0.1
1446037381844583340,163,1446037381841540098,robocape,4.81784575512,9.97654328255,-14.8027712336,0.0,10.0,0.0,0.0,0.0,10.0,0.0,0.0,0.0,10.0,-0.0483363737849,0.0226368692657,0.108124340257,1.0,0.0,0.0,0.0,1.0,0.0,0.0,0.0,1.0,-0.307760009766,-0.0934057617188,10.0902172852,0.1,0.0,0.0,0.0,0.1,0.0,0.0,0.0,0.1
1446037381878093381,164,1446037381874919891,robocape,4.80919595755,9.98635709973,-14.658952689,0.0,10.0,0.0,0.0,0.0,10.0,0.0,0.0,0.0,10.0,-0.0122505410144,0.0195742340121,0.0601874406358,1.0,0.0,0.0,0.0,1.0,0.0,0.0,0.0,1.0,0.296982421875,-0.0634680175781,9.95250366211,0.1,0.0,0.0,0.0,0.1,0.0,0.0,0.0,0.1
1446037381911130923,165,1446037381908129930,robocape,5.05976521201,10.0223555642,-14.8388397711,0.0,10.0,0.0,0.0,0.0,10.0,0.0,0.0,0.0,10.0,0.154862817388,0.0215716048296,-0.111586449674,1.0,0.0,0.0,0.0,1.0,0.0,0.0,0.0,1.0,0.0778381347656,-0.419128417969,9.96926879883,0.1,0.0,0.0,0.0,0.1,0.0,0.0,0.0,0.1
1446037381944685881,166,1446037381941582918,robocape,5.41100012416,10.0722540823,-15.3849008499,0.0,10.0,0.0,0.0,0.0,10.0,0.0,0.0,0.0,10.0,0.243412923633,0.0135821215594,-0.305198260923,1.0,0.0,0.0,0.0,1.0,0.0,0.0,0.0,1.0,-0.15328125,1.17954711914,10.0459094238,0.1,0.0,0.0,0.0,0.1,0.0,0.0,0.0,0.1
1446037381979131881,167,1446037381975836038,robocape,5.13197798973,10.0566856042,-15.260195931,0.0,10.0,0.0,0.0,0.0,10.0,0.0,0.0,0.0,10.0,-0.152199656298,0.00545948023466,0.051798483202,1.0,0.0,0.0,0.0,1.0,0.0,0.0,0.0,1.0,-0.138911132813,1.99984130859,10.1069824219,0.1,0.0,0.0,0.0,0.1,0.0,0.0,0.0,0.1
1446037382012292465,168,1446037382009287118,robocape,4.40420656879,10.0123252932,-14.8824161187,0.0,10.0,0.0,0.0,0.0,10.0,0.0,0.0,0.0,10.0,-0.412523652853,-0.00199737081756,0.187886014905,1.0,0.0,0.0,0.0,1.0,0.0,0.0,0.0,1.0,-0.104183349609,-0.199984130859,10.0902172852,0.1,0.0,0.0,0.0,0.1,0.0,0.0,0.0,0.1
1446037382045709840,169,1446037382042572975,robocape,4.08273064712,10.0024540402,-14.7179004345,0.0,10.0,0.0,0.0,0.0,10.0,0.0,0.0,0.0,10.0,-0.179097583308,0.00852211548825,0.0731037719227,1.0,0.0,0.0,0.0,1.0,0.0,0.0,0.0,1.0,0.276624755859,-1.27175537109,9.94412109375,0.1,0.0,0.0,0.0,0.1,0.0,0.0,0.0,0.1
1446037382079212631,170,1446037382075998067,robocape,4.06416260451,10.0201874646,-14.666354998,0.0,10.0,0.0,0.0,0.0,10.0,0.0,0.0,0.0,10.0,-0.00945422186978,0.0199737081756,0.0118510668509,1.0,0.0,0.0,0.0,1.0,0.0,0.0,0.0,1.0,0.226329345703,-1.05141357422,9.99082397461,0.1,0.0,0.0,0.0,0.1,0.0,0.0,0.0,0.1
1446037382113194215,171,1446037382110074043,robocape,4.50052830854,10.073774314,-14.8857105321,0.0,10.0,0.0,0.0,0.0,10.0,0.0,0.0,0.0,10.0,0.255530306593,0.0310258266994,-0.133291212558,1.0,0.0,0.0,0.0,1.0,0.0,0.0,0.0,1.0,0.193996582031,-0.695753173828,10.0267492676,0.1,0.0,0.0,0.0,0.1,0.0,0.0,0.0,0.1
1446037382146483715,172,1446037382142900943,robocape,4.73651888923,10.099085012,-14.9000142971,0.0,10.0,0.0,0.0,0.0,10.0,0.0,0.0,0.0,10.0,0.131160683686,0.0225037112112,-0.0243679239742,1.0,0.0,0.0,0.0,1.0,0.0,0.0,0.0,1.0,0.118553466797,0.754431152344,10.5129382324,0.1,0.0,0.0,0.0,0.1,0.0,0.0,0.0,0.1
1446037382180093048,173,1446037382176433086,robocape,4.93892498434,10.1215731142,-14.9013103315,0.0,10.0,0.0,0.0,0.0,10.0,0.0,0.0,0.0,10.0,0.112518556056,0.0214384467751,-0.01744370514,1.0,0.0,0.0,0.0,1.0,0.0,0.0,0.0,1.0,-3.08837768555,0.067060546875,10.9141040039,0.1,0.0,0.0,0.0,0.1,0.0,0.0,0.0,0.1
1446037382216705756,174,1446037382213184118,robocape,5.52253721563,9.96989437853,-15.2895152485,0.0,10.0,0.0,0.0,0.0,10.0,0.0,0.0,0.0,10.0,0.349939367236,-0.085354312937,-0.212387096934,1.0,0.0,0.0,0.0,1.0,0.0,0.0,0.0,1.0,-10.0147741699,-0.996328125,10.3285217285,0.1,0.0,0.0,0.0,0.1,0.0,0.0,0.0,0.1
1446037382246088965,175,1446037382242085933,robocape,5.96311670338,9.79510269944,-15.7497062992,0.0,10.0,0.0,0.0,0.0,10.0,0.0,0.0,0.0,10.0,0.28176244333,-0.102931176132,-0.248472929704,1.0,0.0,0.0,0.0,1.0,0.0,0.0,0.0,1.0,-9.34536621094,0.731678466797,8.42208618164,0.1,0.0,0.0,0.0,0.1,0.0,0.0,0.0,0.1
1446037382281803840,176,1446037382278399944,robocape,5.45665741102,9.84907270805,-15.8959248708,0.0,10.0,0.0,0.0,0.0,10.0,0.0,0.0,0.0,10.0,-0.245543452505,0.0292947719909,-0.0937432703708,1.0,0.0,0.0,0.0,1.0,0.0,0.0,0.0,1.0,-7.47485595703,2.33634155273,11.894864502,0.1,0.0,0.0,0.0,0.1,0.0,0.0,0.0,0.1
1446037382314996298,177,1446037382311976909,robocape,4.39951763825,9.83084388091,-15.7845451158,0.0,10.0,0.0,0.0,0.0,10.0,0.0,0.0,0.0,10.0,-0.559929619189,0.00106526443603,0.0479368996214,1.0,0.0,0.0,0.0,1.0,0.0,0.0,0.0,1.0,-11.6026721191,0.0562829589844,10.8123156738,0.1,0.0,0.0,0.0,0.1,0.0,0.0,0.0,0.1
1446037382348169298,178,1446037382344721078,robocape,3.32396490746,10.3757301226,-16.0753041834,0.0,10.0,0.0,0.0,0.0,10.0,0.0,0.0,0.0,10.0,-0.531034321362,0.285757184966,-0.187752856851,1.0,0.0,0.0,0.0,1.0,0.0,0.0,0.0,1.0,-9.98363891602,-0.610729980469,12.7295288086,0.1,0.0,0.0,0.0,0.1,0.0,0.0,0.0,0.1
1446037382381617381,179,1446037382378179073,robocape,3.43718020228,10.447678829,-17.2098433664,0.0,10.0,0.0,0.0,0.0,10.0,0.0,0.0,0.0,10.0,0.175768631945,0.0209058145571,-0.616921266517,1.0,0.0,0.0,0.0,1.0,0.0,0.0,0.0,1.0,-7.40540039063,-2.11719726563,10.4554577637,0.1,0.0,0.0,0.0,0.1,0.0,0.0,0.0,0.1
1446037382414521882,180,1446037382411494970,robocape,4.38717677623,10.8160133819,-18.4094580215,0.0,10.0,0.0,0.0,0.0,10.0,0.0,0.0,0.0,10.0,0.627041278659,0.172972312801,-0.670850278591,1.0,0.0,0.0,0.0,1.0,0.0,0.0,0.0,1.0,-7.85326904297,0.192799072266,12.0601208496,0.1,0.0,0.0,0.0,0.1,0.0,0.0,0.0,0.1
1446037382448690840,181,1446037382445281028,robocape,5.53320450442,11.2130729603,-19.6486300774,0.0,10.0,0.0,0.0,0.0,10.0,0.0,0.0,0.0,10.0,0.742622469969,0.177766002763,-0.702408737508,1.0,0.0,0.0,0.0,1.0,0.0,0.0,0.0,1.0,-1.20349731445,-1.00950073242,12.1906494141,0.1,0.0,0.0,0.0,0.1,0.0,0.0,0.0,0.1
1446037382482046590,182,1446037382477957010,robocape,8.20443141719,11.1159864175,-21.0563925335,0.0,10.0,0.0,0.0,0.0,10.0,0.0,0.0,0.0,10.0,1.57299609786,-0.106925917767,-0.777376722194,1.0,0.0,0.0,0.0,1.0,0.0,0.0,0.0,1.0,-5.84983520508,-1.8357824707,10.0339343262,0.1,0.0,0.0,0.0,0.1,0.0,0.0,0.0,0.1
1446037382515552840,183,1446037382511956930,robocape,12.1240663976,11.1861616235,-22.3613767181,0.0,10.0,0.0,0.0,0.0,10.0,0.0,0.0,0.0,10.0,2.24304742812,-0.0444747902043,-0.759933017054,1.0,0.0,0.0,0.0,1.0,0.0,0.0,0.0,1.0,-10.0435144043,-1.19511474609,9.17771484375,0.1,0.0,0.0,0.0,0.1,0.0,0.0,0.0,0.1
1446037382548774673,184,1446037382545186996,robocape,17.0416860744,11.1397639772,-22.2816325046,0.0,10.0,0.0,0.0,0.0,10.0,0.0,0.0,0.0,10.0,2.64638317521,0.0223705531567,-0.0503337446025,1.0,0.0,0.0,0.0,1.0,0.0,0.0,0.0,1.0,-12.3463256836,0.234711914063,11.0278674316,0.1,0.0,0.0,0.0,0.1,0.0,0.0,0.0,0.1
1446037382582709465,185,1446037382579159975,robocape,22.7650473797,11.7027966845,-21.0009284731,0.0,10.0,0.0,0.0,0.0,10.0,0.0,0.0,0.0,10.0,2.99099622027,0.545548549303,0.401338376275,1.0,0.0,0.0,0.0,1.0,0.0,0.0,0.0,1.0,-1.98666870117,-0.123343505859,7.75986328125,0.1,0.0,0.0,0.0,0.1,0.0,0.0,0.0,0.1
1446037382613584007,186,1446037382610418081,robocape,29.2274851757,11.3801597938,-18.9176603953,0.0,10.0,0.0,0.0,0.0,10.0,0.0,0.0,0.0,10.0,3.35758034432,0.365918333777,0.905341612572,1.0,0.0,0.0,0.0,1.0,0.0,0.0,0.0,1.0,-6.18513793945,0.0586779785156,8.43525878906,0.1,0.0,0.0,0.0,0.1,0.0,0.0,0.0,0.1
1446037382649268298,187,1446037382645680904,robocape,34.5798065901,11.5273416867,-14.5895017718,0.0,10.0,0.0,0.0,0.0,10.0,0.0,0.0,0.0,10.0,2.53466356748,1.28470890985,1.75435736809,1.0,0.0,0.0,0.0,1.0,0.0,0.0,0.0,1.0,-3.72186035156,8.14665893555,13.7941149902,0.1,0.0,0.0,0.0,0.1,0.0,0.0,0.0,0.1
1446037382682170048,188,1446037382678713083,robocape,35.9830333985,10.9767130178,-8.81446233254,0.0,10.0,0.0,0.0,0.0,10.0,0.0,0.0,0.0,10.0,0.123836990689,1.4736601892,2.59671522088,1.0,0.0,0.0,0.0,1.0,0.0,0.0,0.0,1.0,-7.89278686523,12.1954394531,17.4249645996,0.1,0.0,0.0,0.0,0.1,0.0,0.0,0.0,0.1
1446037382714649090,189,1446037382711395025,robocape,32.3190095933,10.6688638143,-3.77840637219,0.0,10.0,0.0,0.0,0.0,10.0,0.0,0.0,0.0,10.0,-2.63000473451,1.25408255732,2.28925327303,1.0,0.0,0.0,0.0,1.0,0.0,0.0,0.0,1.0,-14.7581103516,10.0614770508,14.8718737793,0.1,0.0,0.0,0.0,0.1,0.0,0.0,0.0,0.1
1446037382748321590,190,1446037382745182991,robocape,25.1568494171,9.88718136799,-1.48937583885,0.0,10.0,0.0,0.0,0.0,10.0,0.0,0.0,0.0,10.0,-4.20153609376,0.11944277489,1.27405626549,1.0,0.0,0.0,0.0,1.0,0.0,0.0,0.0,1.0,-13.0947692871,2.95305908203,8.16701660156,0.1,0.0,0.0,0.0,0.1,0.0,0.0,0.0,0.1
1446037382780826965,191,1446037382777415037,robocape,17.403459658,8.9144788714,-0.53130015079,0.0,10.0,0.0,0.0,0.0,10.0,0.0,0.0,0.0,10.0,-4.27570513012,-0.360325695488,0.665257640302,1.0,0.0,0.0,0.0,1.0,0.0,0.0,0.0,1.0,-8.55500976562,-2.25131835938,4.71459594727,0.1,0.0,0.0,0.0,0.1,0.0,0.0,0.0,0.1
1446037382815923340,192,1446037382812788009,robocape,12.0815924611,9.44388828593,-1.03818326658,0.0,10.0,0.0,0.0,0.0,10.0,0.0,0.0,0.0,10.0,-2.77687806863,0.17856495109,-0.317981434155,1.0,0.0,0.0,0.0,1.0,0.0,0.0,0.0,1.0,-9.51301757812,-4.07871826172,8.6987109375,0.1,0.0,0.0,0.0,0.1,0.0,0.0,0.0,0.1
1446037382847831882,193,1446037382844759941,robocape,8.76574231468,10.1330649449,-2.22567948698,0.0,10.0,0.0,0.0,0.0,10.0,0.0,0.0,0.0,10.0,-1.63411564487,0.240616604489,-0.66698869501,1.0,0.0,0.0,0.0,1.0,0.0,0.0,0.0,1.0,-4.5601171875,-4.72178100586,13.6180810547,0.1,0.0,0.0,0.0,0.1,0.0,0.0,0.0,0.1
1446037382879864090,194,1446037382876616954,robocape,7.90902380944,10.35321071,-4.03134014225,0.0,10.0,0.0,0.0,0.0,10.0,0.0,0.0,0.0,10.0,-0.273240327842,-0.0123836990689,-0.941427445343,1.0,0.0,0.0,0.0,1.0,0.0,0.0,0.0,1.0,-7.95984741211,-2.99616943359,9.07472900391,0.1,0.0,0.0,0.0,0.1,0.0,0.0,0.0,0.1
1446037382913475382,195,1446037382910358905,robocape,8.64609651223,10.4961150912,-5.28513508684,0.0,10.0,0.0,0.0,0.0,10.0,0.0,0.0,0.0,10.0,0.517585357857,-0.00492684801665,-0.658067105359,1.0,0.0,0.0,0.0,1.0,0.0,0.0,0.0,1.0,-5.91090820313,-0.482596435547,11.511661377,0.1,0.0,0.0,0.0,0.1,0.0,0.0,0.0,0.1
1446037382947312757,196,1446037382944199085,robocape,9.3331037819,10.7292293328,-5.32176405295,0.0,10.0,0.0,0.0,0.0,10.0,0.0,0.0,0.0,10.0,0.375372555647,0.130361735359,-0.0452737385313,1.0,0.0,0.0,0.0,1.0,0.0,0.0,0.0,1.0,-6.17555786133,1.86931274414,10.3333117676,0.1,0.0,0.0,0.0,0.1,0.0,0.0,0.0,0.1
1446037382980925048,197,1446037382977494955,robocape,8.92152590136,11.2297152146,-4.46277901493,0.0,10.0,0.0,0.0,0.0,10.0,0.0,0.0,0.0,10.0,-0.294412458508,0.336756719841,0.390419415806,1.0,0.0,0.0,0.0,1.0,0.0,0.0,0.0,1.0,4.37689819336,2.59141113281,12.6540856934,0.1,0.0,0.0,0.0,0.1,0.0,0.0,0.0,0.1
1446037383012765673,198,1446037383009768962,robocape,8.1377812307,11.7653077573,-4.07501009577,0.0,10.0,0.0,0.0,0.0,10.0,0.0,0.0,0.0,10.0,-0.444481585934,0.31545143112,0.151400707971,1.0,0.0,0.0,0.0,1.0,0.0,0.0,0.0,1.0,1.94954589844,0.195194091797,10.5704187012,0.1,0.0,0.0,0.0,0.1,0.0,0.0,0.0,0.1
1446037383046497965,199,1446037383043369054,robocape,7.4002387692,11.3312029776,-4.22750639076,0.0,10.0,0.0,0.0,0.0,10.0,0.0,0.0,0.0,10.0,-0.366717282104,-0.23089606651,-0.0490021640575,1.0,0.0,0.0,0.0,1.0,0.0,0.0,0.0,1.0,0.562829589844,-0.827479248047,10.2710412598,0.1,0.0,0.0,0.0,0.1,0.0,0.0,0.0,0.1
1446037383078670382,200,1446037383075421094,robocape,7.89350648095,11.4549896408,-5.21160772279,0.0,10.0,0.0,0.0,0.0,10.0,0.0,0.0,0.0,10.0,0.370845181794,0.0110521185238,-0.51678640953,1.0,0.0,0.0,0.0,1.0,0.0,0.0,0.0,1.0,-1.5292199707,-2.71355712891,9.63276855469,0.1,0.0,0.0,0.0,0.1,0.0,0.0,0.0,0.1
1446037383111666965,201,1446037383108620882,robocape,10.2653285136,12.1149550147,-6.89625579727,0.0,10.0,0.0,0.0,0.0,10.0,0.0,0.0,0.0,10.0,1.44889279106,0.232493963164,-0.925981111021,1.0,0.0,0.0,0.0,1.0,0.0,0.0,0.0,1.0,-5.90252563477,-2.74828491211,10.8362658691,0.1,0.0,0.0,0.0,0.1,0.0,0.0,0.0,0.1
1446037383146241965,202,1446037383143080949,robocape,14.5269564752,11.6831928218,-8.64120217973,0.0,10.0,0.0,0.0,0.0,10.0,0.0,0.0,0.0,10.0,2.46994875299,-0.379500455336,-0.855274184079,1.0,0.0,0.0,0.0,1.0,0.0,0.0,0.0,1.0,-5.53728515625,-1.18313964844,8.78133911133,0.1,0.0,0.0,0.0,0.1,0.0,0.0,0.0,0.1
1446037383178482674,203,1446037383175301074,robocape,19.9852583919,11.8119055416,-9.78328797404,0.0,10.0,0.0,0.0,0.0,10.0,0.0,0.0,0.0,10.0,3.08700317757,-0.0579237537092,-0.635563394147,1.0,0.0,0.0,0.0,1.0,0.0,0.0,0.0,1.0,-4.4487487793,0.0969982910156,6.22705078125,0.1,0.0,0.0,0.0,0.1,0.0,0.0,0.0,0.1
1446037383211644257,204,1446037383208631992,robocape,25.6320604163,11.6095984367,-10.105227198,0.0,10.0,0.0,0.0,0.0,10.0,0.0,0.0,0.0,10.0,3.15664484007,-0.102265385859,-0.184690221597,1.0,0.0,0.0,0.0,1.0,0.0,0.0,0.0,1.0,-5.00798583984,3.38416259766,10.8590185547,0.1,0.0,0.0,0.0,0.1,0.0,0.0,0.0,0.1
1446037383245328840,205,1446037383242310047,robocape,29.8196144359,11.4665605053,-8.74928250513,0.0,10.0,0.0,0.0,0.0,10.0,0.0,0.0,0.0,10.0,2.21308686586,0.308793528395,0.590822287834,1.0,0.0,0.0,0.0,1.0,0.0,0.0,0.0,1.0,-2.89677612305,5.80552734375,8.2807800293,0.1,0.0,0.0,0.0,0.1,0.0,0.0,0.0,0.1
1446037383278404799,206,1446037383275036096,robocape,31.5170751794,11.5149131392,-6.27837520663,0.0,10.0,0.0,0.0,0.0,10.0,0.0,0.0,0.0,10.0,0.713727172141,0.695085044511,1.05301389502,1.0,0.0,0.0,0.0,1.0,0.0,0.0,0.0,1.0,2.49680786133,6.9359765625,14.6191992188,0.1,0.0,0.0,0.0,0.1,0.0,0.0,0.0,0.1
1446037383311153299,207,1446037383308166027,robocape,30.7548608502,10.9133163328,-3.90688387809,0.0,10.0,0.0,0.0,0.0,10.0,0.0,0.0,0.0,10.0,-0.661529214776,0.353401476654,1.21040671544,1.0,0.0,0.0,0.0,1.0,0.0,0.0,0.0,1.0,2.0309765625,5.31933837891,12.4756567383,0.1,0.0,0.0,0.0,0.1,0.0,0.0,0.0,0.1
1446037383345544299,208,1446037383341861963,robocape,28.5983807674,10.6718746254,-2.439219806,0.0,10.0,0.0,0.0,0.0,10.0,0.0,0.0,0.0,10.0,-1.32558843259,0.245543452505,0.728507716191,1.0,0.0,0.0,0.0,1.0,0.0,0.0,0.0,1.0,-2.9853918457,1.14721435547,10.2446960449,0.1,0.0,0.0,0.0,0.1,0.0,0.0,0.0,0.1
1446037383380691382,209,1446037383377132892,robocape,27.3483937312,10.5991046726,-2.34416403343,0.0,10.0,0.0,0.0,0.0,10.0,0.0,0.0,0.0,10.0,-0.667654485283,-0.0121173829599,0.0617853372898,1.0,0.0,0.0,0.0,1.0,0.0,0.0,0.0,1.0,-2.90635620117,-0.959205322266,10.2626586914,0.1,0.0,0.0,0.0,0.1,0.0,0.0,0.0,0.1
1446037383411074132,210,1446037383408088922,robocape,27.0236544162,10.5631987328,-2.32866795653,0.0,10.0,0.0,0.0,0.0,10.0,0.0,0.0,0.0,10.0,-0.145275437464,-0.00359526747161,0.0110521185238,1.0,0.0,0.0,0.0,1.0,0.0,0.0,0.0,1.0,-1.44539428711,0.316142578125,9.2351953125,0.1,0.0,0.0,0.0,0.1,0.0,0.0,0.0,0.1
1446037383445598257,211,1446037383441905021,robocape,27.428482332,10.5400980233,-2.14128054141,0.0,10.0,0.0,0.0,0.0,10.0,0.0,0.0,0.0,10.0,0.242347659197,0.050733218766,0.083223784065,1.0,0.0,0.0,0.0,1.0,0.0,0.0,0.0,1.0,-2.77582763672,0.290994873047,10.024354248,0.1,0.0,0.0,0.0,0.1,0.0,0.0,0.0,0.1
1446037383477779715,212,1446037383474737882,robocape,29.057333231,10.7227719015,-2.40535378284,0.0,10.0,0.0,0.0,0.0,10.0,0.0,0.0,0.0,10.0,0.976980645896,0.0532632218016,-0.181627586343,1.0,0.0,0.0,0.0,1.0,0.0,0.0,0.0,1.0,-2.33993408203,-1.68609375,9.05437133789,0.1,0.0,0.0,0.0,0.1,0.0,0.0,0.0,0.1
1446037383511214382,213,1446037383508143901,robocape,31.9920921117,10.8169716825,-2.88406039877,0.0,10.0,0.0,0.0,0.0,10.0,0.0,0.0,0.0,10.0,1.75116157478,-0.031957933081,-0.265916634844,1.0,0.0,0.0,0.0,1.0,0.0,0.0,0.0,1.0,5.38160888672,0.45984375,10.5117407227,0.1,0.0,0.0,0.0,0.1,0.0,0.0,0.0,0.1
1446037383544972257,214,1446037383541842937,robocape,35.062625708,10.6326968627,-2.00640712172,0.0,10.0,0.0,0.0,0.0,10.0,0.0,0.0,0.0,10.0,1.71534205812,0.224371321839,0.402137324602,1.0,0.0,0.0,0.0,1.0,0.0,0.0,0.0,1.0,18.0788049316,6.51325561523,11.4254406738,0.1,0.0,0.0,0.0,0.1,0.0,0.0,0.0,0.1
1446037383577786257,215,1446037383574745893,robocape,36.7819300329,10.8129884028,0.139484882444,0.0,10.0,0.0,0.0,0.0,10.0,0.0,0.0,0.0,10.0,0.835034159794,0.76778934227,0.824381515434,1.0,0.0,0.0,0.0,1.0,0.0,0.0,0.0,1.0,2.85965332031,2.60697875977,7.89278686523,0.1,0.0,0.0,0.0,0.1,0.0,0.0,0.0,0.1
1446037383611742674,216,1446037383608746051,robocape,37.6481084316,10.7004540626,1.2120143292,0.0,10.0,0.0,0.0,0.0,10.0,0.0,0.0,0.0,10.0,0.46032739442,0.319712488864,0.467651087418,1.0,0.0,0.0,0.0,1.0,0.0,0.0,0.0,1.0,-1.72321655273,1.40707397461,7.90835449219,0.1,0.0,0.0,0.0,0.1,0.0,0.0,0.0,0.1
1446037383644790132,217,1446037383641660928,robocape,39.0180207124,10.3899929702,1.27816189178,0.0,10.0,0.0,0.0,0.0,10.0,0.0,0.0,0.0,10.0,0.864062615676,-0.0648479725434,0.119176458781,1.0,0.0,0.0,0.0,1.0,0.0,0.0,0.0,1.0,0.925675048828,1.96870605469,9.95130615234,0.1,0.0,0.0,0.0,0.1,0.0,0.0,0.0,0.1
1446037383677983715,218,1446037383674933910,robocape,40.3894443631,10.3871495487,2.36904238938,0.0,10.0,0.0,0.0,0.0,10.0,0.0,0.0,0.0,10.0,0.781238305775,0.403868379311,0.42690472274,1.0,0.0,0.0,0.0,1.0,0.0,0.0,0.0,1.0,-1.63100830078,4.13859375,9.51661010742,0.1,0.0,0.0,0.0,0.1,0.0,0.0,0.0,0.1
1446037383712577632,219,1446037383709507942,robocape,39.991739354,10.317509978,5.3807416349,0.0,10.0,0.0,0.0,0.0,10.0,0.0,0.0,0.0,10.0,-0.447943695351,0.987500132201,1.20974092517,1.0,0.0,0.0,0.0,1.0,0.0,0.0,0.0,1.0,0.371228027344,8.85797973633,17.9961767578,0.1,0.0,0.0,0.0,0.1,0.0,0.0,0.0,0.1
1446037383745262215,220,1446037383742146015,robocape,37.3079987358,9.94791723602,8.4001678012,0.0,10.0,0.0,0.0,0.0,10.0,0.0,0.0,0.0,10.0,-1.77526318265,0.788029366554,1.32705317119,1.0,0.0,0.0,0.0,1.0,0.0,0.0,0.0,1.0,-4.63795532227,4.99002319336,10.6087390137,0.1,0.0,0.0,0.0,0.1,0.0,0.0,0.0,0.1
1446037383782052299,221,1446037383778341054,robocape,33.2660945818,9.29847269403,10.1174572565,0.0,10.0,0.0,0.0,0.0,10.0,0.0,0.0,0.0,10.0,-2.406432361,0.180029689689,0.892691597395,1.0,0.0,0.0,0.0,1.0,0.0,0.0,0.0,1.0,-4.49425415039,0.578397216797,10.9943371582,0.1,0.0,0.0,0.0,0.1,0.0,0.0,0.0,0.1
1446037383815045466,222,1446037383811621904,robocape,30.5308066729,9.37014222024,10.2829186066,0.0,10.0,0.0,0.0,0.0,10.0,0.0,0.0,0.0,10.0,-1.50681654477,0.0524642734746,0.0380832035881,1.0,0.0,0.0,0.0,1.0,0.0,0.0,0.0,1.0,-3.36021240234,-2.59141113281,8.68194580078,0.1,0.0,0.0,0.0,0.1,0.0,0.0,0.0,0.1
1446037383848208382,223,1446037383844755887,robocape,29.5923119693,9.10586382,9.77142080821,0.0,10.0,0.0,0.0,0.0,10.0,0.0,0.0,0.0,10.0,-0.445413692316,-0.25100293274,-0.158724400969,1.0,0.0,0.0,0.0,1.0,0.0,0.0,0.0,1.0,-4.89541992188,-1.09452392578,9.90220825195,0.1,0.0,0.0,0.0,0.1,0.0,0.0,0.0,0.1
1446037383881511674,224,1446037383878128051,robocape,30.0228878103,8.9577117485,9.51032755232,0.0,10.0,0.0,0.0,0.0,10.0,0.0,0.0,0.0,10.0,0.301070361233,-0.113716978546,-0.0655137628159,1.0,0.0,0.0,0.0,1.0,0.0,0.0,0.0,1.0,2.58063354492,-0.0886157226563,7.85805908203,0.1,0.0,0.0,0.0,0.1,0.0,0.0,0.0,0.1
1446037383914128091,225,1446037383910839080,robocape,30.731516762,9.37207001902,10.4988641839,0.0,10.0,0.0,0.0,0.0,10.0,0.0,0.0,0.0,10.0,0.369913075412,0.478570047887,0.351803579999,1.0,0.0,0.0,0.0,1.0,0.0,0.0,0.0,1.0,-2.91952880859,2.92431884766,13.3067285156,0.1,0.0,0.0,0.0,0.1,0.0,0.0,0.0,0.1
1446037383947968757,226,1446037383944660902,robocape,31.1183737442,9.63970835387,11.596812345,0.0,10.0,0.0,0.0,0.0,10.0,0.0,0.0,0.0,10.0,0.180429163853,0.442484215117,0.435027364064,1.0,0.0,0.0,0.0,1.0,0.0,0.0,0.0,1.0,9.15256713867,2.74469238281,11.0458300781,0.1,0.0,0.0,0.0,0.1,0.0,0.0,0.0,0.1
1446037383981806216,227,1446037383978462934,robocape,30.4999255874,9.56548136718,12.7732739951,0.0,10.0,0.0,0.0,0.0,10.0,0.0,0.0,0.0,10.0,-0.392150470514,0.293080877963,0.553005400355,1.0,0.0,0.0,0.0,1.0,0.0,0.0,0.0,1.0,-0.591569824219,3.26680664063,8.52028198242,0.1,0.0,0.0,0.0,0.1,0.0,0.0,0.0,0.1
1446037384014059549,228,1446037384010807991,robocape,28.1817568989,8.92581456358,14.6541374107,0.0,10.0,0.0,0.0,0.0,10.0,0.0,0.0,0.0,10.0,-1.39083587929,0.175369157782,1.0036122568,1.0,0.0,0.0,0.0,1.0,0.0,0.0,0.0,1.0,0.876577148438,5.01756591797,12.2565124512,0.1,0.0,0.0,0.0,0.1,0.0,0.0,0.0,0.1
1446037384047415591,229,1446037384044190883,robocape,24.4339034595,8.55872149075,16.5752636122,0.0,10.0,0.0,0.0,0.0,10.0,0.0,0.0,0.0,10.0,-2.15875837962,0.244744504178,0.951147983322,1.0,0.0,0.0,0.0,1.0,0.0,0.0,0.0,1.0,0.269439697266,1.54119506836,8.32149536133,0.1,0.0,0.0,0.0,0.1,0.0,0.0,0.0,0.1
1446037384080474216,230,1446037384077292919,robocape,21.1679647489,8.98896781606,17.2399805465,0.0,10.0,0.0,0.0,0.0,10.0,0.0,0.0,0.0,10.0,-1.78871214615,0.325171969099,0.210922358334,1.0,0.0,0.0,0.0,1.0,0.0,0.0,0.0,1.0,-2.83091308594,-3.51469116211,11.8313964844,0.1,0.0,0.0,0.0,0.1,0.0,0.0,0.0,0.1
1446037384113198674,231,1446037384110121011,robocape,20.3407401187,9.36957278021,15.6725959962,0.0,10.0,0.0,0.0,0.0,10.0,0.0,0.0,0.0,10.0,-0.307861422013,-0.104262756677,-0.832370998704,1.0,0.0,0.0,0.0,1.0,0.0,0.0,0.0,1.0,0.920885009766,-6.43182495117,9.23399780273,0.1,0.0,0.0,0.0,0.1,0.0,0.0,0.0,0.1
1446037384146554424,232,1446037384143441915,robocape,23.2115720498,9.70061497699,13.5556667632,0.0,10.0,0.0,0.0,0.0,10.0,0.0,0.0,0.0,10.0,1.73864471766,-0.217846577168,-1.0524812628,1.0,0.0,0.0,0.0,1.0,0.0,0.0,0.0,1.0,-4.70501586914,-4.60083251953,7.20421875,0.1,0.0,0.0,0.0,0.1,0.0,0.0,0.0,0.1
1446037384179141216,233,1446037384176028013,robocape,28.8424432946,10.0779936157,12.2469765297,0.0,10.0,0.0,0.0,0.0,10.0,0.0,0.0,0.0,10.0,3.23187914087,-0.0478037415669,-0.63476444582,1.0,0.0,0.0,0.0,1.0,0.0,0.0,0.0,1.0,-0.587977294922,-0.841849365234,8.44843139648,0.1,0.0,0.0,0.0,0.1,0.0,0.0,0.0,0.1
1446037384212177341,234,1446037384209157943,robocape,34.6124961788,10.3054094318,12.1081587178,0.0,10.0,0.0,0.0,0.0,10.0,0.0,0.0,0.0,10.0,3.31124134135,0.171241258092,-0.0476705835124,1.0,0.0,0.0,0.0,1.0,0.0,0.0,0.0,1.0,2.56027587891,1.62861328125,6.40907226563,0.1,0.0,0.0,0.0,0.1,0.0,0.0,0.0,0.1
1446037384245805132,235,1446037384242686986,robocape,39.3655650991,10.2436631515,12.8189273989,0.0,10.0,0.0,0.0,0.0,10.0,0.0,0.0,0.0,10.0,2.75943436349,0.318647224428,0.393748367168,1.0,0.0,0.0,0.0,1.0,0.0,0.0,0.0,1.0,-1.04662353516,3.76976074219,6.0965222168,0.1,0.0,0.0,0.0,0.1,0.0,0.0,0.0,0.1
1446037384277834632,236,1446037384274775028,robocape,42.7634204908,10.5561895925,14.3292860582,0.0,10.0,0.0,0.0,0.0,10.0,0.0,0.0,0.0,10.0,1.98032658658,0.763261968417,0.560062777244,1.0,0.0,0.0,0.0,1.0,0.0,0.0,0.0,1.0,3.38176757813,5.2151550293,14.6479394531,0.1,0.0,0.0,0.0,0.1,0.0,0.0,0.0,0.1
1446037384310984382,237,1446037384308044910,robocape,44.134441812,10.7511210234,16.9796818031,0.0,10.0,0.0,0.0,0.0,10.0,0.0,0.0,0.0,10.0,0.712129275487,1.11479923231,0.988032764419,1.0,0.0,0.0,0.0,1.0,0.0,0.0,0.0,1.0,4.89541992188,9.23280029297,16.8262097168,0.1,0.0,0.0,0.0,0.1,0.0,0.0,0.0,0.1
1446037384346094924,238,1446037384342267036,robocape,42.36773774,10.1392434591,20.652560726,0.0,10.0,0.0,0.0,0.0,10.0,0.0,0.0,0.0,10.0,-1.23530727163,1.08124340257,1.61227772393,1.0,0.0,0.0,0.0,1.0,0.0,0.0,0.0,1.0,-6.62462402344,8.06283325195,13.4408496094,0.1,0.0,0.0,0.0,0.1,0.0,0.0,0.0,0.1
1446037384379233091,239,1446037384376072883,robocape,37.0861376965,9.2372522624,24.0274167741,0.0,10.0,0.0,0.0,0.0,10.0,0.0,0.0,0.0,10.0,-3.22681913479,0.664725008084,1.55568555077,1.0,0.0,0.0,0.0,1.0,0.0,0.0,0.0,1.0,1.28013793945,5.19359985352,12.972623291,0.1,0.0,0.0,0.0,0.1,0.0,0.0,0.0,0.1
1446037384411800507,240,1446037384408442020,robocape,31.1793762001,8.23721733031,25.7895624268,0.0,10.0,0.0,0.0,0.0,10.0,0.0,0.0,0.0,10.0,-3.38727459047,-0.00945422186978,0.933837436236,1.0,0.0,0.0,0.0,1.0,0.0,0.0,0.0,1.0,-5.76960205078,-0.731678466797,5.64506103516,0.1,0.0,0.0,0.0,0.1,0.0,0.0,0.0,0.1
1446037384446515591,241,1446037384443357944,robocape,26.8561368,8.23953274461,25.9843048491,0.0,10.0,0.0,0.0,0.0,10.0,0.0,0.0,0.0,10.0,-2.3592944097,0.00133158054504,0.0127831732324,1.0,0.0,0.0,0.0,1.0,0.0,0.0,0.0,1.0,4.99361572266,-3.4105078125,9.88783813477,0.1,0.0,0.0,0.0,0.1,0.0,0.0,0.0,0.1
1446037384477915757,242,1446037384474704027,robocape,24.9924564321,8.04967915936,25.3403669468,0.0,10.0,0.0,0.0,0.0,10.0,0.0,0.0,0.0,10.0,-0.948351664177,-0.247407665268,-0.277235069477,1.0,0.0,0.0,0.0,1.0,0.0,0.0,0.0,1.0,1.93876831055,-1.96391601563,7.5491015625,0.1,0.0,0.0,0.0,0.1,0.0,0.0,0.0,0.1
1446037384511215383,243,1446037384508176088,robocape,24.5820975167,7.13584901881,24.8604941063,0.0,10.0,0.0,0.0,0.0,10.0,0.0,0.0,0.0,10.0,-0.166713884239,-0.530634847198,-0.0101200121423,1.0,0.0,0.0,0.0,1.0,0.0,0.0,0.0,1.0,8.87234985352,-1.45497436523,10.1285375977,0.1,0.0,0.0,0.0,0.1,0.0,0.0,0.0,0.1
1446037384545270049,244,1446037384542184114,robocape,25.7195366457,7.30192466945,24.2843028435,0.0,10.0,0.0,0.0,0.0,10.0,0.0,0.0,0.0,10.0,0.68443240015,-0.0225037112112,-0.260057680446,1.0,0.0,0.0,0.0,1.0,0.0,0.0,0.0,1.0,-0.474213867188,-2.80337036133,6.27614868164,0.1,0.0,0.0,0.0,0.1,0.0,0.0,0.0,0.1
1446037384577990924,245,1446037384574791908,robocape,28.6225494091,7.83908033533,23.1684799848,0.0,10.0,0.0,0.0,0.0,10.0,0.0,0.0,0.0,10.0,1.69177308247,0.0298274042089,-0.569650157168,1.0,0.0,0.0,0.0,1.0,0.0,0.0,0.0,1.0,-0.476608886719,-2.72792724609,12.3223754883,0.1,0.0,0.0,0.0,0.1,0.0,0.0,0.0,0.1
1446037384615417799,246,1446037384612020969,robocape,33.5439682846,8.16523329592,22.1057295411,0.0,10.0,0.0,0.0,0.0,10.0,0.0,0.0,0.0,10.0,2.85823763993,-0.0544616442921,-0.434494731846,1.0,0.0,0.0,0.0,1.0,0.0,0.0,0.0,1.0,-1.24062011719,-1.20948486328,5.88336547852,0.1,0.0,0.0,0.0,0.1,0.0,0.0,0.0,0.1
1446037384645370466,247,1446037384642065048,robocape,38.751513158,8.00608584628,21.5757042576,0.0,10.0,0.0,0.0,0.0,10.0,0.0,0.0,0.0,10.0,3.08420685842,-0.109722236911,-0.0107858024148,1.0,0.0,0.0,0.0,1.0,0.0,0.0,0.0,1.0,-0.352067871094,1.68609375,7.13356567383,0.1,0.0,0.0,0.0,0.1,0.0,0.0,0.0,0.1
1446037384678288216,248,1446037384675182104,robocape,43.4475762931,8.27358634421,22.058769802,0.0,10.0,0.0,0.0,0.0,10.0,0.0,0.0,0.0,10.0,2.84745183751,0.428369461339,0.283759814148,1.0,0.0,0.0,0.0,1.0,0.0,0.0,0.0,1.0,-1.30408813477,3.21052368164,8.9286328125,0.1,0.0,0.0,0.0,0.1,0.0,0.0,0.0,0.1
1446037384710855299,249,1446037384707870006,robocape,47.264854195,8.59834904739,23.1851416626,0.0,10.0,0.0,0.0,0.0,10.0,0.0,0.0,0.0,10.0,2.38632549477,0.715591384904,0.483496895904,1.0,0.0,0.0,0.0,1.0,0.0,0.0,0.0,1.0,-2.83809814453,3.89789428711,13.4216894531,0.1,0.0,0.0,0.0,0.1,0.0,0.0,0.0,0.1
1446037384748138299,250,1446037384744436025,robocape,48.658333366,8.1227480402,25.6092036738,0.0,10.0,0.0,0.0,0.0,10.0,0.0,0.0,0.0,10.0,0.903610557864,0.913863728061,1.18350878843,1.0,0.0,0.0,0.0,1.0,0.0,0.0,0.0,1.0,2.85366577148,11.3116772461,15.7532409668,0.1,0.0,0.0,0.0,0.1,0.0,0.0,0.0,0.1
1446037384777716341,251,1446037384774718046,robocape,47.1649321108,7.57916245294,27.895236944,0.0,10.0,0.0,0.0,0.0,10.0,0.0,0.0,0.0,10.0,-0.85234470688,0.730505087009,1.05328021113,1.0,0.0,0.0,0.0,1.0,0.0,0.0,0.0,1.0,-0.735270996094,5.99233886719,8.60650268555,0.1,0.0,0.0,0.0,0.1,0.0,0.0,0.0,0.1
1446037384810915424,252,1446037384807984113,robocape,45.4380306417,7.49438734547,28.8485175054,0.0,10.0,0.0,0.0,0.0,10.0,0.0,0.0,0.0,10.0,-0.949683244722,0.336090929568,0.38522625168,1.0,0.0,0.0,0.0,1.0,0.0,0.0,0.0,1.0,-1.25978027344,0.09580078125,9.89502319336,0.1,0.0,0.0,0.0,0.1,0.0,0.0,0.0,0.1
1446037384844935549,253,1446037384841504096,robocape,45.0546996255,7.21353317472,28.7719465968,0.0,10.0,0.0,0.0,0.0,10.0,0.0,0.0,0.0,10.0,-0.106925917767,-0.0937432703708,0.127831732324,1.0,0.0,0.0,0.0,1.0,0.0,0.0,0.0,1.0,-3.2919543457,-1.63699584961,8.44124633789,0.1,0.0,0.0,0.0,0.1,0.0,0.0,0.0,0.1
1446037384877847133,254,1446037384874732971,robocape,46.2201870091,7.60626458463,28.8950370261,0.0,10.0,0.0,0.0,0.0,10.0,0.0,0.0,0.0,10.0,0.826778360415,0.28442560442,0.0234358175927,1.0,0.0,0.0,0.0,1.0,0.0,0.0,0.0,1.0,2.30999633789,-1.41186401367,11.5236364746,0.1,0.0,0.0,0.0,0.1,0.0,0.0,0.0,0.1
1446037384911041258,255,1446037384908075094,robocape,47.723410365,8.05233686024,29.8473927216,0.0,10.0,0.0,0.0,0.0,10.0,0.0,0.0,0.0,10.0,1.02904544521,0.656602366759,0.336889877895,1.0,0.0,0.0,0.0,1.0,0.0,0.0,0.0,1.0,-0.674197998047,7.4724609375,11.6529675293,0.1,0.0,0.0,0.0,0.1,0.0,0.0,0.0,0.1
1446037384949349258,256,1446037384945708036,robocape,46.2970329486,7.24502745873,33.4502756172,0.0,10.0,0.0,0.0,0.0,10.0,0.0,0.0,0.0,10.0,-0.803608858931,1.17871509847,1.71001573594,1.0,0.0,0.0,0.0,1.0,0.0,0.0,0.0,1.0,-3.08837768555,9.83155517578,17.6752441406,0.1,0.0,0.0,0.0,0.1,0.0,0.0,0.0,0.1
1446037384977615091,257,1446037384974632024,robocape,41.8604252103,7.21111392187,37.9164202497,0.0,10.0,0.0,0.0,0.0,10.0,0.0,0.0,0.0,10.0,-2.60643575886,1.61094614339,1.69177308247,1.0,0.0,0.0,0.0,1.0,0.0,0.0,0.0,1.0,-8.1586340332,6.71204223633,14.3749072266,0.1,0.0,0.0,0.0,0.1,0.0,0.0,0.0,0.1
1446037385010831799,258,1446037385007895946,robocape,36.4172625325,6.69517242272,39.8374920535,0.0,10.0,0.0,0.0,0.0,10.0,0.0,0.0,0.0,10.0,-3.08247580371,0.351137789727,0.829441521505,1.0,0.0,0.0,0.0,1.0,0.0,0.0,0.0,1.0,-9.6603112793,-0.764011230469,11.4338232422,0.1,0.0,0.0,0.0,0.1,0.0,0.0,0.0,0.1
1446037385049055549,259,1446037385045532941,robocape,33.5741412867,6.71443461617,39.4447421057,0.0,10.0,0.0,0.0,0.0,10.0,0.0,0.0,0.0,10.0,-1.52585814656,-0.146740176063,-0.246342400832,1.0,0.0,0.0,0.0,1.0,0.0,0.0,0.0,1.0,1.79865966797,-6.77311523438,8.49034423828,0.1,0.0,0.0,0.0,0.1,0.0,0.0,0.0,0.1
1446037385077573799,260,1446037385074574947,robocape,34.9383658063,7.74563909457,37.947972192,0.0,10.0,0.0,0.0,0.0,10.0,0.0,0.0,0.0,10.0,0.870587360347,0.0412789968962,-0.88310421747,1.0,0.0,0.0,0.0,1.0,0.0,0.0,0.0,1.0,-5.51093994141,-5.27383300781,7.52994140625,0.1,0.0,0.0,0.0,0.1,0.0,0.0,0.0,0.1
1446037385110997299,261,1446037385107912063,robocape,38.9909720917,8.28524809817,36.4895230236,0.0,10.0,0.0,0.0,0.0,10.0,0.0,0.0,0.0,10.0,2.44092029711,-0.118510668509,-0.575642269621,1.0,0.0,0.0,0.0,1.0,0.0,0.0,0.0,1.0,2.51357299805,-1.89685546875,10.8709936523,0.1,0.0,0.0,0.0,0.1,0.0,0.0,0.0,0.1
1446037385148286258,262,1446037385145210981,robocape,43.9707687506,8.64062185482,36.185042671,0.0,10.0,0.0,0.0,0.0,10.0,0.0,0.0,0.0,10.0,3.04519154845,0.244078713906,0.0889495804086,1.0,0.0,0.0,0.0,1.0,0.0,0.0,0.0,1.0,2.22976318359,1.70645141602,8.20892944336,0.1,0.0,0.0,0.0,0.1,0.0,0.0,0.0,0.1
1446037385177637174,263,1446037385174618005,robocape,48.3473673279,8.92090483251,37.2269558379,0.0,10.0,0.0,0.0,0.0,10.0,0.0,0.0,0.0,10.0,2.77088595617,0.781904096047,0.673513439681,1.0,0.0,0.0,0.0,1.0,0.0,0.0,0.0,1.0,-3.35182983398,7.43294311523,11.383527832,0.1,0.0,0.0,0.0,0.1,0.0,0.0,0.0,0.1
1446037385210994716,264,1446037385207964897,robocape,46.7327603085,8.42441474756,41.6327670509,0.0,10.0,0.0,0.0,0.0,10.0,0.0,0.0,0.0,10.0,-0.902145819264,1.69243887275,1.9720707872,1.0,0.0,0.0,0.0,1.0,0.0,0.0,0.0,1.0,5.9360559082,19.6194012451,17.3902368164,0.1,0.0,0.0,0.0,0.1,0.0,0.0,0.0,0.1
1446037385244618175,265,1446037385241661071,robocape,40.8796943262,7.34504318298,45.9982613068,0.0,10.0,0.0,0.0,0.0,10.0,0.0,0.0,0.0,10.0,-3.38035037164,1.16326876415,2.03105980535,1.0,0.0,0.0,0.0,1.0,0.0,0.0,0.0,1.0,-5.88097045898,8.16941162109,9.75970458984,0.1,0.0,0.0,0.0,0.1,0.0,0.0,0.0,0.1
1446037385277747925,266,1446037385274740934,robocape,33.0857163011,6.14815199559,48.6855424865,0.0,10.0,0.0,0.0,0.0,10.0,0.0,0.0,0.0,10.0,-4.36332312999,0.249405036086,1.32625422286,1.0,0.0,0.0,0.0,1.0,0.0,0.0,0.0,1.0,-1.48012207031,0.832269287109,7.75627075195,0.1,0.0,0.0,0.0,0.1,0.0,0.0,0.0,0.1
1446037385339631258,267,1446037385307962894,robocape,25.9897428362,5.47212987683,49.7784528655,0.0,10.0,0.0,0.0,0.0,10.0,0.0,0.0,0.0,10.0,-3.85718936482,-0.0980043281149,0.502538497698,1.0,0.0,0.0,0.0,1.0,0.0,0.0,0.0,1.0,0.916094970703,-4.13979125977,4.85230957031,0.1,0.0,0.0,0.0,0.1,0.0,0.0,0.0,0.1
1446037385361319800,268,1446037385358082056,robocape,22.4112727318,5.46237563526,49.533176253,0.0,10.0,0.0,0.0,0.0,10.0,0.0,0.0,0.0,10.0,-1.88218910041,-0.0745685105222,-0.165781777857,1.0,0.0,0.0,0.0,1.0,0.0,0.0,0.0,1.0,-1.21187988281,-3.45721069336,8.84241210938,0.1,0.0,0.0,0.0,0.1,0.0,0.0,0.0,0.1
1446037385382729591,269,1446037385379697084,robocape,20.3107338964,5.69606384939,49.2925054005,0.0,10.0,0.0,0.0,0.0,10.0,0.0,0.0,0.0,10.0,-1.07778129316,0.0770985135578,-0.133158054504,1.0,0.0,0.0,0.0,1.0,0.0,0.0,0.0,1.0,0.865799560547,-1.79267211914,10.6135290527,0.1,0.0,0.0,0.0,0.1,0.0,0.0,0.0,0.1
1446037385411212591,270,1446037385408256053,robocape,19.1762586517,5.79447188648,49.2615941303,0.0,10.0,0.0,0.0,0.0,10.0,0.0,0.0,0.0,10.0,-0.562193306116,0.0704406108326,0.0601874406358,1.0,0.0,0.0,0.0,1.0,0.0,0.0,0.0,1.0,-2.94826904297,-1.00710571289,10.7668103027,0.1,0.0,0.0,0.0,0.1,0.0,0.0,0.0,0.1
1446037385444706716,271,1446037385441641092,robocape,18.0016141003,5.35191268559,49.4320894106,0.0,10.0,0.0,0.0,0.0,10.0,0.0,0.0,0.0,10.0,-0.588558600908,-0.158857559023,0.275770330878,1.0,0.0,0.0,0.0,1.0,0.0,0.0,0.0,1.0,-2.13396240234,1.27894042969,9.65911376953,0.1,0.0,0.0,0.0,0.1,0.0,0.0,0.0,0.1
1446037385478826966,272,1446037385475759029,robocape,16.3657095271,4.92982379172,49.8220203872,0.0,10.0,0.0,0.0,0.0,10.0,0.0,0.0,0.0,10.0,-0.840360481975,-0.117978036291,0.388821519152,1.0,0.0,0.0,0.0,1.0,0.0,0.0,0.0,1.0,1.94715087891,2.32556396484,8.52866455078,0.1,0.0,0.0,0.0,0.1,0.0,0.0,0.0,0.1
1446037385511722508,273,1446037385508639097,robocape,13.724165336,4.85734057385,50.5086099006,0.0,10.0,0.0,0.0,0.0,10.0,0.0,0.0,0.0,10.0,-1.38431113462,0.0892158965177,0.493616908046,1.0,0.0,0.0,0.0,1.0,0.0,0.0,0.0,1.0,-3.30273193359,1.85973266602,9.89861572266,0.1,0.0,0.0,0.0,0.1,0.0,0.0,0.0,0.1
1446037385545654508,274,1446037385542547941,robocape,10.1219903745,4.72825811406,51.198835073,0.0,10.0,0.0,0.0,0.0,10.0,0.0,0.0,0.0,10.0,-1.89763543474,0.0363521488796,0.500141652717,1.0,0.0,0.0,0.0,1.0,0.0,0.0,0.0,1.0,-2.54710327148,2.02259399414,10.2578686523,0.1,0.0,0.0,0.0,0.1,0.0,0.0,0.0,0.1
1446037385577738091,275,1446037385574670076,robocape,5.80793247856,4.25333134727,51.6718595221,0.0,10.0,0.0,0.0,0.0,10.0,0.0,0.0,0.0,10.0,-2.27127693567,-0.191214966268,0.404933643747,1.0,0.0,0.0,0.0,1.0,0.0,0.0,0.0,1.0,-4.43437866211,0.787961425781,7.74309814453,0.1,0.0,0.0,0.0,0.1,0.0,0.0,0.0,0.1
1446037385612351966,276,1446037385609313011,robocape,1.05418190744,3.6339951971,51.8719006468,0.0,10.0,0.0,0.0,0.0,10.0,0.0,0.0,0.0,10.0,-2.50004247331,-0.302934573997,0.250869774685,1.0,0.0,0.0,0.0,1.0,0.0,0.0,0.0,1.0,-1.01429077148,0.564027099609,8.36460571289,0.1,0.0,0.0,0.0,0.1,0.0,0.0,0.0,0.1
1446037385644726133,277,1446037385641464948,robocape,-3.73076036529,3.5467563618,51.8076363352,0.0,10.0,0.0,0.0,0.0,10.0,0.0,0.0,0.0,10.0,-2.51921723316,-0.0342216200075,0.111852765783,1.0,0.0,0.0,0.0,1.0,0.0,0.0,0.0,1.0,-0.264649658203,-0.536484375,8.39813598633,0.1,0.0,0.0,0.0,0.1,0.0,0.0,0.0,0.1
1446037385677832758,278,1446037385674813032,robocape,-8.37924434392,4.01711973863,51.373571313,0.0,10.0,0.0,0.0,0.0,10.0,0.0,0.0,0.0,10.0,-2.44917609649,0.275504014769,-0.0407463646782,1.0,0.0,0.0,0.0,1.0,0.0,0.0,0.0,1.0,2.6405090332,-1.27654541016,12.4193737793,0.1,0.0,0.0,0.0,0.1,0.0,0.0,0.0,0.1
1446037385712807258,279,1446037385709681987,robocape,-12.6851774137,4.33035354119,50.5426644362,0.0,10.0,0.0,0.0,0.0,10.0,0.0,0.0,0.0,10.0,-2.26435271684,0.241948185034,-0.245277136396,1.0,0.0,0.0,0.0,1.0,0.0,0.0,0.0,1.0,-6.06299194336,-1.78548706055,12.6732458496,0.1,0.0,0.0,0.0,0.1,0.0,0.0,0.0,0.1
1446037385744700008,280,1446037385741580963,robocape,-16.8526752818,5.33836083991,48.9341973558,0.0,10.0,0.0,0.0,0.0,10.0,0.0,0.0,0.0,10.0,-2.15303258327,0.724113500393,-0.56112804168,1.0,0.0,0.0,0.0,1.0,0.0,0.0,0.0,1.0,-4.36252807617,-5.79235473633,8.19455932617,0.1,0.0,0.0,0.0,0.1,0.0,0.0,0.0,0.1
1446037385777758133,281,1446037385774755954,robocape,-19.3875245971,5.61576981924,47.6804907127,0.0,10.0,0.0,0.0,0.0,10.0,0.0,0.0,0.0,10.0,-1.3126721013,0.337555668168,-0.462191607183,1.0,0.0,0.0,0.0,1.0,0.0,0.0,0.0,1.0,-3.41889038086,-2.36388427734,10.5428759766,0.1,0.0,0.0,0.0,0.1,0.0,0.0,0.0,0.1
1446037385811031758,282,1446037385808100938,robocape,-21.5865921396,5.36718903045,47.1080810847,0.0,10.0,0.0,0.0,0.0,10.0,0.0,0.0,0.0,10.0,-1.20334933855,-0.0276968753368,-0.155528607661,1.0,0.0,0.0,0.0,1.0,0.0,0.0,0.0,1.0,1.25978027344,0.5748046875,7.80297363281,0.1,0.0,0.0,0.0,0.1,0.0,0.0,0.0,0.1
1446037385844589966,283,1446037385841625928,robocape,-24.3473862458,5.65179664376,46.1718244608,0.0,10.0,0.0,0.0,0.0,10.0,0.0,0.0,0.0,10.0,-1.49802811317,0.314652482793,-0.2054628781,1.0,0.0,0.0,0.0,1.0,0.0,0.0,0.0,1.0,5.73008422852,-5.18401977539,11.9810852051,0.1,0.0,0.0,0.0,0.1,0.0,0.0,0.0,0.1
1446037385877925425,284,1446037385874823093,robocape,-24.8421052766,6.42104211298,44.087303273,0.0,10.0,0.0,0.0,0.0,10.0,0.0,0.0,0.0,10.0,-0.133690686722,0.819321509363,-0.838096795048,1.0,0.0,0.0,0.0,1.0,0.0,0.0,0.0,1.0,-4.99960327148,-9.9668737793,12.7606640625,0.1,0.0,0.0,0.0,0.1,0.0,0.0,0.0,0.1
1446037385910994217,285,1446037385908035039,robocape,-23.7897969282,6.79668594182,42.5434329708,0.0,10.0,0.0,0.0,0.0,10.0,0.0,0.0,0.0,10.0,0.677241865207,0.513457458167,-0.708933482179,1.0,0.0,0.0,0.0,1.0,0.0,0.0,0.0,1.0,-1.97469360352,-0.675395507813,11.6170422363,0.1,0.0,0.0,0.0,0.1,0.0,0.0,0.0,0.1
1446037385944764675,286,1446037385941739082,robocape,-23.7936518297,6.71309960395,42.1828195994,0.0,10.0,0.0,0.0,0.0,10.0,0.0,0.0,0.0,10.0,-0.0282295075548,0.0310258266994,-0.106526443603,1.0,0.0,0.0,0.0,1.0,0.0,0.0,0.0,1.0,0.407153320313,2.50998046875,7.29522949219,0.1,0.0,0.0,0.0,0.1,0.0,0.0,0.0,0.1
1446037385978159717,287,1446037385974941015,robocape,-25.2327179025,6.91458976953,41.6236227032,0.0,10.0,0.0,0.0,0.0,10.0,0.0,0.0,0.0,10.0,-0.807869916676,0.209723935844,-0.0774979877213,1.0,0.0,0.0,0.0,1.0,0.0,0.0,0.0,1.0,6.19711303711,-2.04175415039,9.74892700195,0.1,0.0,0.0,0.0,0.1,0.0,0.0,0.0,0.1
1446037386010928508,288,1446037386007946968,robocape,-25.0736271395,6.98405965079,40.1006619458,0.0,10.0,0.0,0.0,0.0,10.0,0.0,0.0,0.0,10.0,0.190149701832,0.370179391521,-0.717322439613,1.0,0.0,0.0,0.0,1.0,0.0,0.0,0.0,1.0,0.586779785156,-9.17531982422,11.6721276855,0.1,0.0,0.0,0.0,0.1,0.0,0.0,0.0,0.1
1446037386044439050,289,1446037386041398048,robocape,-23.7604308893,7.32323264015,38.6887026506,0.0,10.0,0.0,0.0,0.0,10.0,0.0,0.0,0.0,10.0,0.814394661346,0.466852139091,-0.649811305979,1.0,0.0,0.0,0.0,1.0,0.0,0.0,0.0,1.0,-2.26329345703,-2.0657043457,8.19934936523,0.1,0.0,0.0,0.0,0.1,0.0,0.0,0.0,0.1
1446037386079613008,290,1446037386076257944,robocape,-23.1504750484,7.69812250297,37.89696246,0.0,10.0,0.0,0.0,0.0,10.0,0.0,0.0,0.0,10.0,0.359393589106,0.343414622566,-0.27643612115,1.0,0.0,0.0,0.0,1.0,0.0,0.0,0.0,1.0,-1.77949951172,1.10170898438,10.750045166,0.1,0.0,0.0,0.0,0.1,0.0,0.0,0.0,0.1
1446037386111038050,291,1446037386108000040,robocape,-23.7678589925,8.06611274211,37.1897156593,0.0,10.0,0.0,0.0,0.0,10.0,0.0,0.0,0.0,10.0,-0.324772494935,0.323307756336,-0.180429163853,1.0,0.0,0.0,0.0,1.0,0.0,0.0,0.0,1.0,-2.40100708008,0.326920166016,9.08909912109,0.1,0.0,0.0,0.0,0.1,0.0,0.0,0.0,0.1
1446037386144497925,292,1446037386141431093,robocape,-24.9836298344,8.52386533191,36.006136979,0.0,10.0,0.0,0.0,0.0,10.0,0.0,0.0,0.0,10.0,-0.601208616085,0.473110567653,-0.383362038917,1.0,0.0,0.0,0.0,1.0,0.0,0.0,0.0,1.0,-4.93733276367,-3.4452355957,12.2181921387,0.1,0.0,0.0,0.0,0.1,0.0,0.0,0.0,0.1
1446037386177751383,293,1446037386174634933,robocape,-25.5921087517,9.26574602148,34.0144544131,0.0,10.0,0.0,0.0,0.0,10.0,0.0,0.0,0.0,10.0,-0.165249145639,0.791890950135,-0.755272485146,1.0,0.0,0.0,0.0,1.0,0.0,0.0,0.0,1.0,-4.44395874023,-5.25108032227,13.9473962402,0.1,0.0,0.0,0.0,0.1,0.0,0.0,0.0,0.1
1446037386211037675,294,1446037386208033084,robocape,-24.7633919614,9.54321683227,32.1536957972,0.0,10.0,0.0,0.0,0.0,10.0,0.0,0.0,0.0,10.0,0.63210128473,0.537159591869,-0.858203661278,1.0,0.0,0.0,0.0,1.0,0.0,0.0,0.0,1.0,-6.61624145508,-4.76129882813,13.5977233887,0.1,0.0,0.0,0.0,0.1,0.0,0.0,0.0,0.1
1446037386244317050,295,1446037386241316080,robocape,-22.5056811438,9.79358098382,30.0537613039,0.0,10.0,0.0,0.0,0.0,10.0,0.0,0.0,0.0,10.0,1.45075700382,0.54368433654,-1.0510165242,1.0,0.0,0.0,0.0,1.0,0.0,0.0,0.0,1.0,2.43214233398,-4.39965087891,13.2935559082,0.1,0.0,0.0,0.0,0.1,0.0,0.0,0.0,0.1
1446037386277812758,296,1446037386274874925,robocape,-18.4407659697,10.1212827328,27.6304106496,0.0,10.0,0.0,0.0,0.0,10.0,0.0,0.0,0.0,10.0,2.45982874085,0.572845950476,-1.27352363328,1.0,0.0,0.0,0.0,1.0,0.0,0.0,0.0,1.0,3.84999389648,-3.58294921875,10.5045556641,0.1,0.0,0.0,0.0,0.1,0.0,0.0,0.0,0.1
1446037386314304133,297,1446037386311223030,robocape,-12.8994990417,10.9087170292,25.4845409954,0.0,10.0,0.0,0.0,0.0,10.0,0.0,0.0,0.0,10.0,3.1884696151,0.660330792285,-1.0998855302,1.0,0.0,0.0,0.0,1.0,0.0,0.0,0.0,1.0,-0.864602050781,-1.08853637695,10.9332641602,0.1,0.0,0.0,0.0,0.1,0.0,0.0,0.0,0.1
1446037386344472717,298,1446037386341535091,robocape,-7.05728507538,11.324862746,24.2819868896,0.0,10.0,0.0,0.0,0.0,10.0,0.0,0.0,0.0,10.0,3.21430227767,0.293613510181,-0.657667631195,1.0,0.0,0.0,0.0,1.0,0.0,0.0,0.0,1.0,19.6194012451,2.49800537109,9.55014038086,0.1,0.0,0.0,0.0,0.1,0.0,0.0,0.0,0.1
1446037386378305133,299,1446037386374851942,robocape,-2.21970268807,11.1197199197,24.2041713856,0.0,10.0,0.0,0.0,0.0,10.0,0.0,0.0,0.0,10.0,2.54584884406,-0.111053817456,-0.0672448175245,1.0,0.0,0.0,0.0,1.0,0.0,0.0,0.0,1.0,-4.37570068359,3.85358642578,5.55884033203,0.1,0.0,0.0,0.0,0.1,0.0,0.0,0.0,0.1
1446037386411543008,300,1446037386408308982,robocape,-0.23148575806,9.24122255428,25.527483872,0.0,10.0,0.0,0.0,0.0,10.0,0.0,0.0,0.0,10.0,0.914795834442,-0.986434867765,0.695750834783,1.0,0.0,0.0,0.0,1.0,0.0,0.0,0.0,1.0,1.14481933594,7.38624023438,3.38536010742,0.1,0.0,0.0,0.0,0.1,0.0,0.0,0.0,0.1
1446037386444691425,301,1446037386441515922,robocape,-2.67914306872,9.33024365358,27.8388881255,0.0,10.0,0.0,0.0,0.0,10.0,0.0,0.0,0.0,10.0,-1.49722916484,0.0521979573656,1.30561472441,1.0,0.0,0.0,0.0,1.0,0.0,0.0,0.0,1.0,-7.7371105957,11.0194848633,7.96822998047,0.1,0.0,0.0,0.0,0.1,0.0,0.0,0.0,0.1
1446037386477694675,302,1446037386474710941,robocape,-8.41347624137,9.59218592288,28.5329653504,0.0,10.0,0.0,0.0,0.0,10.0,0.0,0.0,0.0,10.0,-3.10165056356,0.132092790068,0.469914774344,1.0,0.0,0.0,0.0,1.0,0.0,0.0,0.0,1.0,-5.52890258789,-0.273032226563,8.65919311523,0.1,0.0,0.0,0.0,0.1,0.0,0.0,0.0,0.1
1446037386511170425,303,1446037386507982015,robocape,-13.6167281698,9.68506475519,27.5952607907,0.0,10.0,0.0,0.0,0.0,10.0,0.0,0.0,0.0,10.0,-2.68606427545,0.160854929841,-0.389620467479,1.0,0.0,0.0,0.0,1.0,0.0,0.0,0.0,1.0,0.8813671875,-4.28468994141,10.6362817383,0.1,0.0,0.0,0.0,0.1,0.0,0.0,0.0,0.1
1446037386547109217,304,1446037386541362047,robocape,-16.8254761707,10.0569841472,25.827837855,0.0,10.0,0.0,0.0,0.0,10.0,0.0,0.0,0.0,10.0,-1.55422081217,0.439687895972,-0.781504621884,1.0,0.0,0.0,0.0,1.0,0.0,0.0,0.0,1.0,-0.822689208984,-3.80209350586,10.4458776855,0.1,0.0,0.0,0.0,0.1,0.0,0.0,0.0,0.1
1446037386577644633,305,1446037386574615001,robocape,-18.4084968134,10.2636985822,24.347607717,0.0,10.0,0.0,0.0,0.0,10.0,0.0,0.0,0.0,10.0,-0.717056123504,0.34234935813,-0.662461321157,1.0,0.0,0.0,0.0,1.0,0.0,0.0,0.0,1.0,-5.8246875,-3.142265625,11.3032946777,0.1,0.0,0.0,0.0,0.1,0.0,0.0,0.0,0.1
1446037386610908092,306,1446037386607888936,robocape,-19.0458040769,9.86776192336,23.4409100271,0.0,10.0,0.0,0.0,0.0,10.0,0.0,0.0,0.0,10.0,-0.268712953989,-0.0410126807872,-0.487757953648,1.0,0.0,0.0,0.0,1.0,0.0,0.0,0.0,1.0,-3.38176757813,-1.19032470703,11.4002929688,0.1,0.0,0.0,0.0,0.1,0.0,0.0,0.0,0.1
1446037386644640134,307,1446037386641428947,robocape,-19.6472219131,9.90451787713,22.6762386846,0.0,10.0,0.0,0.0,0.0,10.0,0.0,0.0,0.0,10.0,-0.272974011733,0.156460714042,-0.335291981241,1.0,0.0,0.0,0.0,1.0,0.0,0.0,0.0,1.0,-2.50040039063,-0.0838256835938,9.52978271484,0.1,0.0,0.0,0.0,0.1,0.0,0.0,0.0,0.1
1446037386679068800,308,1446037386675982952,robocape,-20.7181119485,10.0026759305,22.0916282451,0.0,10.0,0.0,0.0,0.0,10.0,0.0,0.0,0.0,10.0,-0.550874871483,0.164050723149,-0.219577631877,1.0,0.0,0.0,0.0,1.0,0.0,0.0,0.0,1.0,1.30169311523,0.222736816406,12.0912561035,0.1,0.0,0.0,0.0,0.1,0.0,0.0,0.0,0.1
1446037386711688467,309,1446037386708467960,robocape,-22.1364660122,9.83806911229,21.5018031698,0.0,10.0,0.0,0.0,0.0,10.0,0.0,0.0,0.0,10.0,-0.741024573315,0.0436758418773,-0.264451896245,1.0,0.0,0.0,0.0,1.0,0.0,0.0,0.0,1.0,0.580792236328,-1.73040161133,8.03768554688,0.1,0.0,0.0,0.0,0.1,0.0,0.0,0.0,0.1
1446037386744858425,310,1446037386741667985,robocape,-22.8098181271,10.3068499644,19.6807307295,0.0,10.0,0.0,0.0,0.0,10.0,0.0,0.0,0.0,10.0,-0.203066033119,0.590422813671,-0.758201962346,1.0,0.0,0.0,0.0,1.0,0.0,0.0,0.0,1.0,0.953217773438,-3.46559326172,12.548704834,0.1,0.0,0.0,0.0,0.1,0.0,0.0,0.0,0.1
1446037386778312259,311,1446037386775238990,robocape,-22.0979897894,10.2003782994,17.9241717212,0.0,10.0,0.0,0.0,0.0,10.0,0.0,0.0,0.0,10.0,0.556467509772,0.288420346056,-0.874848418091,1.0,0.0,0.0,0.0,1.0,0.0,0.0,0.0,1.0,-6.07137451172,-3.02850219727,12.9714257813,0.1,0.0,0.0,0.0,0.1,0.0,0.0,0.0,0.1
1446037386810933425,312,1446037386807998895,robocape,-19.6029880337,10.4931703484,15.9479360129,0.0,10.0,0.0,0.0,0.0,10.0,0.0,0.0,0.0,10.0,1.54410080003,0.487092163375,-0.941826919507,1.0,0.0,0.0,0.0,1.0,0.0,0.0,0.0,1.0,1.50526977539,-3.18657348633,11.8876794434,0.1,0.0,0.0,0.0,0.1,0.0,0.0,0.0,0.1
1446037386844551300,313,1446037386841586112,robocape,-15.7049534509,10.1933133568,14.2437868807,0.0,10.0,0.0,0.0,0.0,10.0,0.0,0.0,0.0,10.0,2.26049113326,0.0894822126267,-0.939962706743,1.0,0.0,0.0,0.0,1.0,0.0,0.0,0.0,1.0,-0.262254638672,-1.98547119141,9.77287719727,0.1,0.0,0.0,0.0,0.1,0.0,0.0,0.0,0.1
1446037386877579759,314,1446037386874625921,robocape,-10.9433823472,10.1201077917,12.6082864232,0.0,10.0,0.0,0.0,0.0,10.0,0.0,0.0,0.0,10.0,2.68433322075,0.129829103141,-0.8751147342,1.0,0.0,0.0,0.0,1.0,0.0,0.0,0.0,1.0,-2.52075805664,-1.13164672852,8.21611450195,0.1,0.0,0.0,0.0,0.1,0.0,0.0,0.0,0.1
1446037386910867800,315,1446037386907924890,robocape,-5.81578494534,10.1820835757,11.3014196693,0.0,10.0,0.0,0.0,0.0,10.0,0.0,0.0,0.0,10.0,2.82215180716,0.110388027184,-0.689359248167,1.0,0.0,0.0,0.0,1.0,0.0,0.0,0.0,1.0,-2.59739868164,-0.292192382813,8.05205566406,0.1,0.0,0.0,0.0,0.1,0.0,0.0,0.0,0.1
1446037386944449217,316,1446037386941493988,robocape,-0.594994043217,9.65179110537,10.4963469453,0.0,10.0,0.0,0.0,0.0,10.0,0.0,0.0,0.0,10.0,2.80990126614,-0.264585054299,-0.443016847335,1.0,0.0,0.0,0.0,1.0,0.0,0.0,0.0,1.0,-3.31350952148,1.03943847656,4.82117431641,0.1,0.0,0.0,0.0,0.1,0.0,0.0,0.0,0.1
1446037386981382800,317,1446037386978336095,robocape,4.1060815741,11.8315611985,9.94531758622,0.0,10.0,0.0,0.0,0.0,10.0,0.0,0.0,0.0,10.0,2.52054881371,1.14675716539,-0.307195631741,1.0,0.0,0.0,0.0,1.0,0.0,0.0,0.0,1.0,-5.12414428711,1.48371459961,14.4778930664,0.1,0.0,0.0,0.0,0.1,0.0,0.0,0.0,0.1
1446037387015988384,318,1446037387012113094,robocape,8.05572197769,10.9151731481,10.016160927,0.0,10.0,0.0,0.0,0.0,10.0,0.0,0.0,0.0,10.0,2.06847721866,-0.462324765238,0.0966727475699,1.0,0.0,0.0,0.0,1.0,0.0,0.0,0.0,1.0,-5.36604125977,1.22145996094,7.98379760742,0.1,0.0,0.0,0.0,0.1,0.0,0.0,0.0,0.1
1446037387044527384,319,1446037387041374921,robocape,10.8531248208,10.1255698337,10.3554822103,0.0,10.0,0.0,0.0,0.0,10.0,0.0,0.0,0.0,10.0,1.44742805246,-0.362722540469,0.254997674375,1.0,0.0,0.0,0.0,1.0,0.0,0.0,0.0,1.0,-5.20078491211,3.28117675781,5.02594848633,0.1,0.0,0.0,0.0,0.1,0.0,0.0,0.0,0.1
1446037387077643800,320,1446037387074603080,robocape,11.5456085046,10.2959196822,11.5529659391,0.0,10.0,0.0,0.0,0.0,10.0,0.0,0.0,0.0,10.0,0.269378744262,0.227167640984,0.606135464102,1.0,0.0,0.0,0.0,1.0,0.0,0.0,0.0,1.0,-0.433498535156,3.69671264648,11.9643200684,0.1,0.0,0.0,0.0,0.1,0.0,0.0,0.0,0.1
1446037387114881259,321,1446037387111318111,robocape,11.2468956551,10.2023822972,12.2253368756,0.0,10.0,0.0,0.0,0.0,10.0,0.0,0.0,0.0,10.0,-0.20812603919,0.0328900394625,0.361390959924,1.0,0.0,0.0,0.0,1.0,0.0,0.0,0.0,1.0,-4.675078125,-0.15328125,8.13588134766,0.1,0.0,0.0,0.0,0.1,0.0,0.0,0.0,0.1
1446037387144654592,322,1446037387141449928,robocape,11.5599298824,10.0480396791,11.9686293933,0.0,10.0,0.0,0.0,0.0,10.0,0.0,0.0,0.0,10.0,0.19720707872,-0.0950748509158,-0.103596966404,1.0,0.0,0.0,0.0,1.0,0.0,0.0,0.0,1.0,-1.47293701172,-1.92799072266,9.4232043457,0.1,0.0,0.0,0.0,0.1,0.0,0.0,0.0,0.1
1446037387177958675,323,1446037387174911022,robocape,12.9470477752,10.3343166681,11.6022558257,0.0,10.0,0.0,0.0,0.0,10.0,0.0,0.0,0.0,10.0,0.778042512467,0.123437516525,-0.200669188137,1.0,0.0,0.0,0.0,1.0,0.0,0.0,0.0,1.0,3.58055419922,0.960402832031,10.3596569824,0.1,0.0,0.0,0.0,0.1,0.0,0.0,0.0,0.1
1446037387212628842,324,1446037387209562063,robocape,14.0806218291,10.3344635892,12.1288140376,0.0,10.0,0.0,0.0,0.0,10.0,0.0,0.0,0.0,10.0,0.566720679969,0.084022732392,0.282827707766,1.0,0.0,0.0,0.0,1.0,0.0,0.0,0.0,1.0,0.623902587891,1.66453857422,9.66270629883,0.1,0.0,0.0,0.0,0.1,0.0,0.0,0.0,0.1
1446037387244745175,325,1446037387241549968,robocape,14.0403844811,10.4380089538,13.1439855554,0.0,10.0,0.0,0.0,0.0,10.0,0.0,0.0,0.0,10.0,-0.0981374861694,0.197473394829,0.511326929295,1.0,0.0,0.0,0.0,1.0,0.0,0.0,0.0,1.0,-0.446671142578,3.53744384766,11.2398266602,0.1,0.0,0.0,0.0,0.1,0.0,0.0,0.0,0.1
1446037387277832175,326,1446037387274782896,robocape,12.2008583959,10.4027426102,14.6975517337,0.0,10.0,0.0,0.0,0.0,10.0,0.0,0.0,0.0,10.0,-1.10188290102,0.173504945019,0.794154637062,1.0,0.0,0.0,0.0,1.0,0.0,0.0,0.0,1.0,-2.8009753418,4.45593383789,10.5045556641,0.1,0.0,0.0,0.0,0.1,0.0,0.0,0.0,0.1
1446037387311187467,327,1446037387308207988,robocape,9.05034185142,10.1399054735,16.0443709188,0.0,10.0,0.0,0.0,0.0,10.0,0.0,0.0,0.0,10.0,-1.77379844405,-0.00399474163512,0.711862959378,1.0,0.0,0.0,0.0,1.0,0.0,0.0,0.0,1.0,4.91697509766,0.261057128906,10.5955664063,0.1,0.0,0.0,0.0,0.1,0.0,0.0,0.0,0.1
1446037387344724717,328,1446037387341708898,robocape,6.55571616654,10.2101734562,15.8726720716,0.0,10.0,0.0,0.0,0.0,10.0,0.0,0.0,0.0,10.0,-1.28963575787,0.0263652947918,-0.0901480028992,1.0,0.0,0.0,0.0,1.0,0.0,0.0,0.0,1.0,-0.677790527344,-2.93030639648,9.23639282227,0.1,0.0,0.0,0.0,0.1,0.0,0.0,0.0,0.1
1446037387379336259,329,1446037387376099109,robocape,6.62809610802,10.4489437939,14.688633167,0.0,10.0,0.0,0.0,0.0,10.0,0.0,0.0,0.0,10.0,0.151001233807,0.0581900698182,-0.615190211808,1.0,0.0,0.0,0.0,1.0,0.0,0.0,0.0,1.0,-1.05620361328,-2.13515991211,11.5595617676,0.1,0.0,0.0,0.0,0.1,0.0,0.0,0.0,0.1
1446037387410988384,330,1446037387407999038,robocape,7.26007739397,10.0951987185,14.5137829278,0.0,10.0,0.0,0.0,0.0,10.0,0.0,0.0,0.0,10.0,0.352336212217,-0.18535601187,-0.0549942765101,1.0,0.0,0.0,0.0,1.0,0.0,0.0,0.0,1.0,-5.4798046875,0.893342285156,7.50000366211,0.1,0.0,0.0,0.0,0.1,0.0,0.0,0.0,0.1
1446037387444744009,331,1446037387441593885,robocape,7.10594596213,10.0607238841,15.3410265118,0.0,10.0,0.0,0.0,0.0,10.0,0.0,0.0,0.0,10.0,-0.148737546881,0.0506000607115,0.44554685037,1.0,0.0,0.0,0.0,1.0,0.0,0.0,0.0,1.0,6.03425170898,2.38903198242,7.84129394531,0.1,0.0,0.0,0.0,0.1,0.0,0.0,0.0,0.1
1446037387478051842,332,1446037387474752902,robocape,6.72800672387,10.0770280537,15.6519535147,0.0,10.0,0.0,0.0,0.0,10.0,0.0,0.0,0.0,10.0,-0.220642896313,0.0396811002422,0.174303893346,1.0,0.0,0.0,0.0,1.0,0.0,0.0,0.0,1.0,6.43541748047,-1.84177001953,11.9463574219,0.1,0.0,0.0,0.0,0.1,0.0,0.0,0.0,0.1
1446037387511426009,333,1446037387508064985,robocape,7.56389975871,9.66609509479,14.5125745189,0.0,10.0,0.0,0.0,0.0,10.0,0.0,0.0,0.0,10.0,0.541953281831,-0.283360339984,-0.552073293973,1.0,0.0,0.0,0.0,1.0,0.0,0.0,0.0,1.0,-1.21666992188,-3.20453613281,6.09891723633,0.1,0.0,0.0,0.0,0.1,0.0,0.0,0.0,0.1
1446037387545200884,334,1446037387541692018,robocape,10.9381044025,9.75601011399,12.8978028019,0.0,10.0,0.0,0.0,0.0,10.0,0.0,0.0,0.0,10.0,1.91920703957,-0.0778974618848,-0.819188351308,1.0,0.0,0.0,0.0,1.0,0.0,0.0,0.0,1.0,-0.0838256835938,-3.0237121582,9.89741821289,0.1,0.0,0.0,0.0,0.1,0.0,0.0,0.0,0.1
1446037387578799009,335,1446037387575373888,robocape,15.5657085644,10.7828394229,12.6619005768,0.0,10.0,0.0,0.0,0.0,10.0,0.0,0.0,0.0,10.0,2.49005561922,0.531833269689,-0.207060774754,1.0,0.0,0.0,0.0,1.0,0.0,0.0,0.0,1.0,7.4688684082,3.74581054688,7.92511962891,0.1,0.0,0.0,0.0,0.1,0.0,0.0,0.0,0.1
1446037387611560426,336,1446037387608159065,robocape,17.6230837462,10.8605549778,14.2427893984,0.0,10.0,0.0,0.0,0.0,10.0,0.0,0.0,0.0,10.0,0.97032274317,0.310258266994,0.805606229749,1.0,0.0,0.0,0.0,1.0,0.0,0.0,0.0,1.0,-6.47134277344,7.02219726563,11.9990478516,0.1,0.0,0.0,0.0,0.1,0.0,0.0,0.0,0.1
1446037387645249134,337,1446037387641809940,robocape,15.6310318611,10.5276661907,17.0666223441,0.0,10.0,0.0,0.0,0.0,10.0,0.0,0.0,0.0,10.0,-1.30228577305,0.263919264027,1.45967859347,1.0,0.0,0.0,0.0,1.0,0.0,0.0,0.0,1.0,-3.16861083984,8.33347045898,13.2348779297,0.1,0.0,0.0,0.0,0.1,0.0,0.0,0.0,0.1
1446037387678188676,338,1446037387675169944,robocape,10.7785044873,9.90248595503,19.5799500123,0.0,10.0,0.0,0.0,0.0,10.0,0.0,0.0,0.0,10.0,-2.77860912333,-0.0263652947918,1.33224633531,1.0,0.0,0.0,0.0,1.0,0.0,0.0,0.0,1.0,1.96032348633,2.36148925781,7.03656738281,0.1,0.0,0.0,0.0,0.1,0.0,0.0,0.0,0.1
1446037387712846467,339,1446037387709779024,robocape,5.08653310711,10.3095550975,20.9760535737,0.0,10.0,0.0,0.0,0.0,10.0,0.0,0.0,0.0,10.0,-3.11070531127,0.313454060302,0.68856029984,1.0,0.0,0.0,0.0,1.0,0.0,0.0,0.0,1.0,-7.26289672852,-0.415535888672,8.11193115234,0.1,0.0,0.0,0.0,0.1,0.0,0.0,0.0,0.1
1446037387744840009,340,1446037387741348028,robocape,-0.109326290706,10.2574724329,20.8764271432,0.0,10.0,0.0,0.0,0.0,10.0,0.0,0.0,0.0,10.0,-2.71376115079,-0.0256995045193,-0.0431432096593,1.0,0.0,0.0,0.0,1.0,0.0,0.0,0.0,1.0,-3.03568725586,-2.60817626953,8.39095092773,0.1,0.0,0.0,0.0,0.1,0.0,0.0,0.0,0.1
1446037387777824801,341,1446037387774796009,robocape,-3.60463857549,10.7442250146,20.0344592154,0.0,10.0,0.0,0.0,0.0,10.0,0.0,0.0,0.0,10.0,-1.75502315836,0.278433491968,-0.407197330673,1.0,0.0,0.0,0.0,1.0,0.0,0.0,0.0,1.0,1.23822509766,-3.53145629883,11.169173584,0.1,0.0,0.0,0.0,0.1,0.0,0.0,0.0,0.1
1446037387811163426,342,1446037387808217048,robocape,-5.25176741237,10.8457217538,19.3040023142,0.0,10.0,0.0,0.0,0.0,10.0,0.0,0.0,0.0,10.0,-0.797217272315,0.0913464253897,-0.352469370272,1.0,0.0,0.0,0.0,1.0,0.0,0.0,0.0,1.0,1.149609375,-1.41665405273,10.0423168945,0.1,0.0,0.0,0.0,0.1,0.0,0.0,0.0,0.1
1446037387844492217,343,1446037387841514110,robocape,-6.22427253328,10.725619752,18.8437410855,0.0,10.0,0.0,0.0,0.0,10.0,0.0,0.0,0.0,10.0,-0.471645829053,-0.0295610880999,-0.223439215458,1.0,0.0,0.0,0.0,1.0,0.0,0.0,0.0,1.0,0.234711914063,-0.0335302734375,9.14178955078,0.1,0.0,0.0,0.0,0.1,0.0,0.0,0.0,0.1
1446037387877614717,344,1446037387874636888,robocape,-7.03610354362,10.9849713459,18.439827482,0.0,10.0,0.0,0.0,0.0,10.0,0.0,0.0,0.0,10.0,-0.395346263822,0.170442309765,-0.168444938948,1.0,0.0,0.0,0.0,1.0,0.0,0.0,0.0,1.0,3.64282470703,0.465831298828,11.1356433105,0.1,0.0,0.0,0.0,0.1,0.0,0.0,0.0,0.1
1446037387911291801,345,1446037387908308982,robocape,-7.90840954702,10.8917578836,18.0745350183,0.0,10.0,0.0,0.0,0.0,10.0,0.0,0.0,0.0,10.0,-0.43076630632,-0.0134489635049,-0.172306522528,1.0,0.0,0.0,0.0,1.0,0.0,0.0,0.0,1.0,-2.01660644531,0.591569824219,9.21364013672,0.1,0.0,0.0,0.0,0.1,0.0,0.0,0.0,0.1
1446037387944454634,346,1446037387941466093,robocape,-8.88064601138,11.2571587203,17.7010668714,0.0,10.0,0.0,0.0,0.0,10.0,0.0,0.0,0.0,10.0,-0.485893740885,0.231029224564,-0.136487005867,1.0,0.0,0.0,0.0,1.0,0.0,0.0,0.0,1.0,-0.831071777344,0.165256347656,10.9979296875,0.1,0.0,0.0,0.0,0.1,0.0,0.0,0.0,0.1
1446037387977718259,347,1446037387974734067,robocape,-9.91373060738,11.3826655316,17.2849839877,0.0,10.0,0.0,0.0,0.0,10.0,0.0,0.0,0.0,10.0,-0.513191142058,0.112784872165,-0.176301264163,1.0,0.0,0.0,0.0,1.0,0.0,0.0,0.0,1.0,-1.0693762207,0.564027099609,11.4493908691,0.1,0.0,0.0,0.0,0.1,0.0,0.0,0.0,0.1
1446037388011159759,348,1446037388008107900,robocape,-11.0930366997,11.4360244084,16.8639797068,0.0,10.0,0.0,0.0,0.0,10.0,0.0,0.0,0.0,10.0,-0.591488078107,0.0806937810294,-0.182559692725,1.0,0.0,0.0,0.0,1.0,0.0,0.0,0.0,1.0,3.39134765625,0.331710205078,8.36700073242,0.1,0.0,0.0,0.0,0.1,0.0,0.0,0.0,0.1
1446037388044721384,349,1446037388041657924,robocape,-12.3581069824,11.4589918709,16.413354724,0.0,10.0,0.0,0.0,0.0,10.0,0.0,0.0,0.0,10.0,-0.635962868311,0.0732369299772,-0.198272343156,1.0,0.0,0.0,0.0,1.0,0.0,0.0,0.0,1.0,-4.38528076172,-0.231119384766,10.1201550293,0.1,0.0,0.0,0.0,0.1,0.0,0.0,0.0,0.1
1446037388081805926,350,1446037388076755046,robocape,-13.7301970118,11.4974974155,15.978877263,0.0,10.0,0.0,0.0,0.0,10.0,0.0,0.0,0.0,10.0,-0.69801452171,0.0858869451551,-0.184557063542,1.0,0.0,0.0,0.0,1.0,0.0,0.0,0.0,1.0,0.415535888672,0.462238769531,10.8769812012,0.1,0.0,0.0,0.0,0.1,0.0,0.0,0.0,0.1
1446037388111003093,351,1446037388107940912,robocape,-15.250909315,11.4532014308,15.488026346,0.0,10.0,0.0,0.0,0.0,10.0,0.0,0.0,0.0,10.0,-0.774180928886,0.0572579634367,-0.220376580204,1.0,0.0,0.0,0.0,1.0,0.0,0.0,0.0,1.0,-0.591569824219,-0.141306152344,10.5907763672,0.1,0.0,0.0,0.0,0.1,0.0,0.0,0.0,0.1
1446037388144691051,352,1446037388141546010,robocape,-16.7995554514,11.2193508929,15.0065813367,0.0,10.0,0.0,0.0,0.0,10.0,0.0,0.0,0.0,10.0,-0.793755162898,-0.033023197517,-0.242081343088,1.0,0.0,0.0,0.0,1.0,0.0,0.0,0.0,1.0,-5.91090820313,-0.330512695313,8.16102905273,0.1,0.0,0.0,0.0,0.1,0.0,0.0,0.0,0.1
1446037388177717843,353,1446037388174689054,robocape,-18.0882909511,11.3045917428,14.0897385848,0.0,10.0,0.0,0.0,0.0,10.0,0.0,0.0,0.0,10.0,-0.611861260446,0.198538659265,-0.41065944009,1.0,0.0,0.0,0.0,1.0,0.0,0.0,0.0,1.0,14.5150158691,-1.89086791992,15.005994873,0.1,0.0,0.0,0.0,0.1,0.0,0.0,0.0,0.1
1446037388211042509,354,1446037388208017110,robocape,-17.5117025085,10.4315993268,12.7851897196,0.0,10.0,0.0,0.0,0.0,10.0,0.0,0.0,0.0,10.0,0.441019476517,-0.234890808145,-0.7864314699,1.0,0.0,0.0,0.0,1.0,0.0,0.0,0.0,1.0,-10.8290808105,-3.38536010742,10.7572302246,0.1,0.0,0.0,0.0,0.1,0.0,0.0,0.0,0.1
1446037388244732551,355,1446037388241619110,robocape,-14.2152423291,10.2149186432,10.2880674284,0.0,10.0,0.0,0.0,0.0,10.0,0.0,0.0,0.0,10.0,2.00469451056,0.216781312732,-1.30401682776,1.0,0.0,0.0,0.0,1.0,0.0,0.0,0.0,1.0,0.705333251953,-5.08702148438,12.507989502,0.1,0.0,0.0,0.0,0.1,0.0,0.0,0.0,0.1
1446037388278308593,356,1446037388275253057,robocape,-8.9098085315,9.92536045555,8.1533241397,0.0,10.0,0.0,0.0,0.0,10.0,0.0,0.0,0.0,10.0,3.00764097708,0.0418116291142,-1.14169715932,1.0,0.0,0.0,0.0,1.0,0.0,0.0,0.0,1.0,3.82724121094,-1.89446044922,7.25331665039,0.1,0.0,0.0,0.0,0.1,0.0,0.0,0.0,0.1
1446037388310962176,357,1446037388308024883,robocape,-2.66918205734,10.1671473419,6.73238599549,0.0,10.0,0.0,0.0,0.0,10.0,0.0,0.0,0.0,10.0,3.40711514059,0.181361270234,-0.731969825608,1.0,0.0,0.0,0.0,1.0,0.0,0.0,0.0,1.0,-7.34193237305,0.701740722656,8.62925537109,0.1,0.0,0.0,0.0,0.1,0.0,0.0,0.0,0.1
1446037388344676051,358,1446037388341641902,robocape,3.1062880814,10.0225812264,6.2487282596,0.0,10.0,0.0,0.0,0.0,10.0,0.0,0.0,0.0,10.0,3.07075789492,-0.0780306199393,-0.250203984413,1.0,0.0,0.0,0.0,1.0,0.0,0.0,0.0,1.0,-0.261057128906,2.67643432617,6.75635009766,0.1,0.0,0.0,0.0,0.1,0.0,0.0,0.0,0.1
1446037388385692176,359,1446037388382682085,robocape,7.51829661981,9.91213016627,6.19269406706,0.0,10.0,0.0,0.0,0.0,10.0,0.0,0.0,0.0,10.0,2.32480647358,-0.0480700576759,-0.0162452826495,1.0,0.0,0.0,0.0,1.0,0.0,0.0,0.0,1.0,0.762813720703,2.13156738281,8.45561645508,0.1,0.0,0.0,0.0,0.1,0.0,0.0,0.0,0.1
1446037388411041051,360,1446037388408091068,robocape,11.2562351162,10.0396490584,6.09272911818,0.0,10.0,0.0,0.0,0.0,10.0,0.0,0.0,0.0,10.0,1.98751712153,0.0774979877213,-0.0513990090385,1.0,0.0,0.0,0.0,1.0,0.0,0.0,0.0,1.0,-0.979562988281,1.77830200195,8.96575561523,0.1,0.0,0.0,0.0,0.1,0.0,0.0,0.0,0.1
1446037388444593134,361,1446037388441267967,robocape,14.7243358329,10.2432515845,5.94574363735,0.0,10.0,0.0,0.0,0.0,10.0,0.0,0.0,0.0,10.0,1.86461223722,0.113184346328,-0.0858869451551,1.0,0.0,0.0,0.0,1.0,0.0,0.0,0.0,1.0,-1.03704345703,1.42743164063,8.74780883789,0.1,0.0,0.0,0.0,0.1,0.0,0.0,0.0,0.1
1446037388477692009,362,1446037388474713087,robocape,18.2306041948,10.4851147902,5.79908707522,0.0,10.0,0.0,0.0,0.0,10.0,0.0,0.0,0.0,10.0,1.90402702135,0.133957002831,-0.0950748509158,1.0,0.0,0.0,0.0,1.0,0.0,0.0,0.0,1.0,-0.82388671875,1.14362182617,10.5261108398,0.1,0.0,0.0,0.0,0.1,0.0,0.0,0.0,0.1
1446037388511210884,363,1446037388508133888,robocape,21.9135837663,10.3434040932,5.68409134384,0.0,10.0,0.0,0.0,0.0,10.0,0.0,0.0,0.0,10.0,2.01747768379,-0.0495347962755,-0.015579492377,1.0,0.0,0.0,0.0,1.0,0.0,0.0,0.0,1.0,0.482596435547,1.02027832031,10.1177600098,0.1,0.0,0.0,0.0,0.1,0.0,0.0,0.0,0.1
1446037388544690134,364,1446037388541366100,robocape,25.1034795736,10.3066460131,6.2121216773,0.0,10.0,0.0,0.0,0.0,10.0,0.0,0.0,0.0,10.0,1.71946995781,0.137152796139,0.27377296006,1.0,0.0,0.0,0.0,1.0,0.0,0.0,0.0,1.0,4.34696044922,4.81398925781,9.68785400391,0.1,0.0,0.0,0.0,0.1,0.0,0.0,0.0,0.1
1446037388577746593,365,1446037388574671030,robocape,25.8396216685,10.3406811341,8.84819854478,0.0,10.0,0.0,0.0,0.0,10.0,0.0,0.0,0.0,10.0,0.198538659265,0.631036020294,1.23344305887,1.0,0.0,0.0,0.0,1.0,0.0,0.0,0.0,1.0,-3.73144042969,7.83650390625,13.0420788574,0.1,0.0,0.0,0.0,0.1,0.0,0.0,0.0,0.1
1446037388610998884,366,1446037388607953071,robocape,22.2637969156,10.2253741284,11.8568551301,0.0,10.0,0.0,0.0,0.0,10.0,0.0,0.0,0.0,10.0,-2.1892515741,0.555135929227,1.42625592179,1.0,0.0,0.0,0.0,1.0,0.0,0.0,0.0,1.0,1.73998168945,7.38145019531,12.5199645996,0.1,0.0,0.0,0.0,0.1,0.0,0.0,0.0,0.1
1446037388644846051,367,1446037388641510009,robocape,16.7402451249,9.51930345192,13.9515342196,0.0,10.0,0.0,0.0,0.0,10.0,0.0,0.0,0.0,10.0,-3.12868164863,-0.0247673981377,1.10814132958,1.0,0.0,0.0,0.0,1.0,0.0,0.0,0.0,1.0,-2.42375976563,2.56985595703,7.63053222656,0.1,0.0,0.0,0.0,0.1,0.0,0.0,0.0,0.1
1446037388677761009,368,1446037388674712896,robocape,11.255939977,9.13055302898,14.6917091091,0.0,10.0,0.0,0.0,0.0,10.0,0.0,0.0,0.0,10.0,-2.9578398647,-0.129030154814,0.392683102732,1.0,0.0,0.0,0.0,1.0,0.0,0.0,0.0,1.0,-3.2224987793,-1.25379272461,7.02339477539,0.1,0.0,0.0,0.0,0.1,0.0,0.0,0.0,0.1
1446037388711291760,369,1446037388708261013,robocape,6.99918549091,9.51805971664,14.7226899241,0.0,10.0,0.0,0.0,0.0,10.0,0.0,0.0,0.0,10.0,-2.23585689318,0.196674446502,-0.0243679239742,1.0,0.0,0.0,0.0,1.0,0.0,0.0,0.0,1.0,2.00223632812,-2.1076171875,12.1032312012,0.1,0.0,0.0,0.0,0.1,0.0,0.0,0.0,0.1
1446037388744838426,370,1446037388741627931,robocape,4.24361809155,9.52820532233,14.5438824306,0.0,10.0,0.0,0.0,0.0,10.0,0.0,0.0,0.0,10.0,-1.42692171206,-0.00146473859954,-0.0893490545722,1.0,0.0,0.0,0.0,1.0,0.0,0.0,0.0,1.0,2.46208007813,-1.65615600586,9.62797851563,0.1,0.0,0.0,0.0,0.1,0.0,0.0,0.0,0.1
1446037388778078676,371,1446037388774904012,robocape,2.62961897548,8.3744317466,14.4455438689,0.0,10.0,0.0,0.0,0.0,10.0,0.0,0.0,0.0,10.0,-0.836765214503,-0.603871777175,-0.0109189604693,1.0,0.0,0.0,0.0,1.0,0.0,0.0,0.0,1.0,-1.93397827148,-0.00838256835938,5.54327270508,0.1,0.0,0.0,0.0,0.1,0.0,0.0,0.0,0.1
1446037388811165135,372,1446037388808166027,robocape,1.52423847694,8.84902196561,14.4077560457,0.0,10.0,0.0,0.0,0.0,10.0,0.0,0.0,0.0,10.0,-0.575375953512,0.256595571029,-0.0146473859954,1.0,0.0,0.0,0.0,1.0,0.0,0.0,0.0,1.0,-3.38895263672,-0.155676269531,8.57297241211,0.1,0.0,0.0,0.0,0.1,0.0,0.0,0.0,0.1
1446037388844512135,373,1446037388841433048,robocape,0.370210945618,8.99237886849,14.4756513003,0.0,10.0,0.0,0.0,0.0,10.0,0.0,0.0,0.0,10.0,-0.610529679901,0.0846885226645,0.0480700576759,1.0,0.0,0.0,0.0,1.0,0.0,0.0,0.0,1.0,9.47709228516,0.637075195313,10.750045166,0.1,0.0,0.0,0.0,0.1,0.0,0.0,0.0,0.1
1446037388878716801,374,1446037388875633001,robocape,-0.870044767544,8.58690155513,14.6733129511,0.0,10.0,0.0,0.0,0.0,10.0,0.0,0.0,0.0,10.0,-0.667121853065,-0.204797087827,0.114915401037,1.0,0.0,0.0,0.0,1.0,0.0,0.0,0.0,1.0,8.68314331055,0.802331542969,8.7334387207,0.1,0.0,0.0,0.0,0.1,0.0,0.0,0.0,0.1
1446037388912170510,375,1446037388909121990,robocape,-2.41027430733,8.17411657201,14.8778121756,0.0,10.0,0.0,0.0,0.0,10.0,0.0,0.0,0.0,10.0,-0.825713095979,-0.210922358334,0.114915401037,1.0,0.0,0.0,0.0,1.0,0.0,0.0,0.0,1.0,2.64889160156,0.942440185547,8.97413818359,0.1,0.0,0.0,0.0,0.1,0.0,0.0,0.0,0.1
1446037388945777343,376,1446037388942548990,robocape,-4.22761563119,7.81260019652,14.8980354335,0.0,10.0,0.0,0.0,0.0,10.0,0.0,0.0,0.0,10.0,-0.958737992429,-0.181627586343,0.015579492377,1.0,0.0,0.0,0.0,1.0,0.0,0.0,0.0,1.0,-0.047900390625,-0.795146484375,8.19455932617,0.1,0.0,0.0,0.0,0.1,0.0,0.0,0.0,0.1
1446037388978317593,377,1446037388975218057,robocape,-4.9974631367,7.84722211256,13.7783018857,0.0,10.0,0.0,0.0,0.0,10.0,0.0,0.0,0.0,10.0,-0.325704601317,0.067910607797,-0.571514369931,1.0,0.0,0.0,0.0,1.0,0.0,0.0,0.0,1.0,-0.740061035156,-4.27870239258,11.0458300781,0.1,0.0,0.0,0.0,0.1,0.0,0.0,0.0,0.1
1446037389011386135,378,1446037389008268117,robocape,-2.52334663098,7.55116564382,11.7327275617,0.0,10.0,0.0,0.0,0.0,10.0,0.0,0.0,0.0,10.0,1.44223488833,-0.0917458995532,-1.08111024452,1.0,0.0,0.0,0.0,1.0,0.0,0.0,0.0,1.0,-1.94355834961,-4.91098754883,8.94779296875,0.1,0.0,0.0,0.0,0.1,0.0,0.0,0.0,0.1
1446037389044854551,379,1446037389041660070,robocape,2.4728365587,7.59587215688,9.84349173338,0.0,10.0,0.0,0.0,0.0,10.0,0.0,0.0,0.0,10.0,2.74691750636,0.0186421276306,-0.988831712746,1.0,0.0,0.0,0.0,1.0,0.0,0.0,0.0,1.0,-0.259859619141,-2.59739868164,6.75036254883,0.1,0.0,0.0,0.0,0.1,0.0,0.0,0.0,0.1
1446037389077916760,380,1446037389074852943,robocape,8.3798321248,7.80613161277,8.8730081779,0.0,10.0,0.0,0.0,0.0,10.0,0.0,0.0,0.0,10.0,3.17115906801,0.0693753463966,-0.504402710461,1.0,0.0,0.0,0.0,1.0,0.0,0.0,0.0,1.0,2.71116210938,1.4142590332,9.49625244141,0.1,0.0,0.0,0.0,0.1,0.0,0.0,0.0,0.1
1446037389111351093,381,1446037389108248949,robocape,13.7020449138,7.96078413069,8.71900830696,0.0,10.0,0.0,0.0,0.0,10.0,0.0,0.0,0.0,10.0,2.83267129346,0.0857537871006,-0.0736364041407,1.0,0.0,0.0,0.0,1.0,0.0,0.0,0.0,1.0,-1.42862915039,3.70868774414,8.42448120117,0.1,0.0,0.0,0.0,0.1,0.0,0.0,0.0,0.1
1446037389144811885,382,1446037389141594886,robocape,16.6496347575,8.19267780498,9.94783406422,0.0,10.0,0.0,0.0,0.0,10.0,0.0,0.0,0.0,10.0,1.50002548399,0.312122479757,0.60933125741,1.0,0.0,0.0,0.0,1.0,0.0,0.0,0.0,1.0,1.48131958008,6.90364379883,11.8206188965,0.1,0.0,0.0,0.0,0.1,0.0,0.0,0.0,0.1
1446037389177863301,383,1446037389174746990,robocape,15.9453825315,8.66482193313,12.6230690469,0.0,10.0,0.0,0.0,0.0,10.0,0.0,0.0,0.0,10.0,-0.550075923156,0.643686035472,1.27884995546,1.0,0.0,0.0,0.0,1.0,0.0,0.0,0.0,1.0,0.584384765625,7.60179199219,13.9198535156,0.1,0.0,0.0,0.0,0.1,0.0,0.0,0.0,0.1
1446037389211184801,384,1446037389208095073,robocape,11.384438738,8.17270930142,14.8140300487,0.0,10.0,0.0,0.0,0.0,10.0,0.0,0.0,0.0,10.0,-2.56648834251,0.00865527354276,1.1528824359,1.0,0.0,0.0,0.0,1.0,0.0,0.0,0.0,1.0,3.61767700195,4.65472045898,6.30369140625,0.1,0.0,0.0,0.0,0.1,0.0,0.0,0.0,0.1
1446037389245297885,385,1446037389242067098,robocape,6.01061735956,8.10414155078,15.9171321043,0.0,10.0,0.0,0.0,0.0,10.0,0.0,0.0,0.0,10.0,-2.90084821737,0.0447411063133,0.561527515843,1.0,0.0,0.0,0.0,1.0,0.0,0.0,0.0,1.0,-3.76856323242,-0.250279541016,8.45322143555,0.1,0.0,0.0,0.0,0.1,0.0,0.0,0.0,0.1
1446037389281968093,386,1446037389278032064,robocape,1.40099990894,7.94551569428,15.8815384888,0.0,10.0,0.0,0.0,0.0,10.0,0.0,0.0,0.0,10.0,-2.41229131539,-0.084289048501,-0.0133158054504,1.0,0.0,0.0,0.0,1.0,0.0,0.0,0.0,1.0,-4.24277709961,-1.93038574219,8.0436730957,0.1,0.0,0.0,0.0,0.1,0.0,0.0,0.0,0.1
1446037389314767635,387,1446037389309993028,robocape,-1.75283527599,7.77721539437,15.3153864033,0.0,10.0,0.0,0.0,0.0,10.0,0.0,0.0,0.0,10.0,-1.61254404004,-0.0833569421195,-0.286556133293,1.0,0.0,0.0,0.0,1.0,0.0,0.0,0.0,1.0,2.18306030273,-2.51836303711,9.26034301758,0.1,0.0,0.0,0.0,0.1,0.0,0.0,0.0,0.1
1446037389348372801,388,1446037389344197034,robocape,-3.14614399511,7.79922372176,14.4522200901,0.0,10.0,0.0,0.0,0.0,10.0,0.0,0.0,0.0,10.0,-0.670583962482,0.03488741028,-0.438755789591,1.0,0.0,0.0,0.0,1.0,0.0,0.0,0.0,1.0,2.26568847656,-3.80927856445,8.97773071289,0.1,0.0,0.0,0.0,0.1,0.0,0.0,0.0,0.1
1446037389378174760,389,1446037389375155925,robocape,-2.09394377596,7.77864312402,12.6540075215,0.0,10.0,0.0,0.0,0.0,10.0,0.0,0.0,0.0,10.0,0.679505552134,0.0294279300454,-0.936766913435,1.0,0.0,0.0,0.0,1.0,0.0,0.0,0.0,1.0,7.67005004883,-4.38887329102,10.9368566895,0.1,0.0,0.0,0.0,0.1,0.0,0.0,0.0,0.1
1446037389411227510,390,1446037389408246040,robocape,2.32451686171,7.66908246525,10.7765685854,0.0,10.0,0.0,0.0,0.0,10.0,0.0,0.0,0.0,10.0,2.44584714513,-0.0643153403254,-0.982173810021,1.0,0.0,0.0,0.0,1.0,0.0,0.0,0.0,1.0,-7.11440551758,-2.76145751953,8.35622314453,0.1,0.0,0.0,0.0,0.1,0.0,0.0,0.0,0.1
1446037389444792510,391,1446037389441567897,robocape,7.88030774415,8.11365507282,9.66202384134,0.0,10.0,0.0,0.0,0.0,10.0,0.0,0.0,0.0,10.0,2.99765412299,0.187486540742,-0.589357549235,1.0,0.0,0.0,0.0,1.0,0.0,0.0,0.0,1.0,7.32516723633,0.125738525391,8.49872680664,0.1,0.0,0.0,0.0,0.1,0.0,0.0,0.0,0.1
1446037389477778927,392,1446037389474750041,robocape,13.0717504066,8.09043064083,9.38768681101,0.0,10.0,0.0,0.0,0.0,10.0,0.0,0.0,0.0,10.0,2.76835595314,-0.018242653467,-0.117844878236,1.0,0.0,0.0,0.0,1.0,0.0,0.0,0.0,1.0,4.215234375,3.65240478516,7.33235229492,0.1,0.0,0.0,0.0,0.1,0.0,0.0,0.0,0.1
1446037389511401010,393,1446037389508251905,robocape,16.0541402673,8.02837280341,10.2962117131,0.0,10.0,0.0,0.0,0.0,10.0,0.0,0.0,0.0,10.0,1.53677710703,0.112385398001,0.489622166411,1.0,0.0,0.0,0.0,1.0,0.0,0.0,0.0,1.0,-2.73391479492,6.88568115234,10.6207141113,0.1,0.0,0.0,0.0,0.1,0.0,0.0,0.0,0.1
1446037389546907927,394,1446037389543525934,robocape,16.0257441053,8.01171166888,12.266772507,0.0,10.0,0.0,0.0,0.0,10.0,0.0,0.0,0.0,10.0,-0.133158054504,0.290950349091,1.00321278263,1.0,0.0,0.0,0.0,1.0,0.0,0.0,0.0,1.0,-1.07416625977,4.95529541016,10.8398583984,0.1,0.0,0.0,0.0,0.1,0.0,0.0,0.0,0.1
