%time,field.header.seq,field.header.stamp,field.header.frame_id,field.orientation.x,field.orientation.y,field.orientation.z,field.orientation.w,field.orientation_covariance0,field.orientation_covariance1,field.orientation_covariance2,field.orientation_covariance3,field.orientation_covariance4,field.orientation_covariance5,field.orientation_covariance6,field.orientation_covariance7,field.orientation_covariance8,field.angular_velocity.x,field.angular_velocity.y,field.angular_velocity.z,field.angular_velocity_covariance0,field.angular_velocity_covariance1,field.angular_velocity_covariance2,field.angular_velocity_covariance3,field.angular_velocity_covariance4,field.angular_velocity_covariance5,field.angular_velocity_covariance6,field.angular_velocity_covariance7,field.angular_velocity_covariance8,field.linear_acceleration.x,field.linear_acceleration.y,field.linear_acceleration.z,field.linear_acceleration_covariance0,field.linear_acceleration_covariance1,field.linear_acceleration_covariance2,field.linear_acceleration_covariance3,field.linear_acceleration_covariance4,field.linear_acceleration_covariance5,field.linear_acceleration_covariance6,field.linear_acceleration_covariance7,field.linear_acceleration_covariance8
1446038728016142873,1,1446038728009794950,robocape,5.19128226845,7.47767743886,-47.1069736674,0.0,10.0,0.0,0.0,0.0,10.0,0.0,0.0,0.0,10.0,-0.0990695925509,-0.420646294178,0.600542825813,1.0,0.0,0.0,0.0,1.0,0.0,0.0,0.0,1.0,1.96152099609,0.713715820313,10.8350683594,0.1,0.0,0.0,0.0,0.1,0.0,0.0,0.0,0.1
1446038728034571206,2,1446038728031486034,robocape,5.1984958758,6.59501324011,-46.2711844809,0.0,10.0,0.0,0.0,0.0,10.0,0.0,0.0,0.0,10.0,-0.0865527354276,-0.440353686245,0.69122346093,1.0,0.0,0.0,0.0,1.0,0.0,0.0,0.0,1.0,2.65248413086,0.598754882812,10.6925646973,0.1,0.0,0.0,0.0,0.1,0.0,0.0,0.0,0.1
1446038728067627873,3,1446038728064660072,robocape,4.76984777935,5.74005668517,-45.0419290076,0.0,10.0,0.0,0.0,0.0,10.0,0.0,0.0,0.0,10.0,-0.331963029878,-0.409061543436,0.923051633821,1.0,0.0,0.0,0.0,1.0,0.0,0.0,0.0,1.0,3.16861083984,2.72672973633,10.1129699707,0.1,0.0,0.0,0.0,0.1,0.0,0.0,0.0,0.1
1446038728101220831,4,1446038728098290920,robocape,3.19436730733,5.06398274762,-43.3051528535,0.0,10.0,0.0,0.0,0.0,10.0,0.0,0.0,0.0,10.0,-0.943824290324,-0.309991950885,1.20987408322,1.0,0.0,0.0,0.0,1.0,0.0,0.0,0.0,1.0,3.4141003418,2.40819213867,9.12861694336,0.1,0.0,0.0,0.0,0.1,0.0,0.0,0.0,0.1
1446038728134388206,5,1446038728131216049,robocape,1.0747015639,4.61241672544,-41.2667588698,0.0,10.0,0.0,0.0,0.0,10.0,0.0,0.0,0.0,10.0,-1.21839619871,-0.218246051332,1.34622793104,1.0,0.0,0.0,0.0,1.0,0.0,0.0,0.0,1.0,2.87881347656,0.528101806641,9.14418457031,0.1,0.0,0.0,0.0,0.1,0.0,0.0,0.0,0.1
1446038728167564665,6,1446038728164594888,robocape,-0.959961052712,4.45711354175,-39.1165967722,0.0,10.0,0.0,0.0,0.0,10.0,0.0,0.0,0.0,10.0,-1.15807560002,-0.103996440568,1.36340532007,1.0,0.0,0.0,0.0,1.0,0.0,0.0,0.0,1.0,2.08606201172,-2.24054077148,9.88783813477,0.1,0.0,0.0,0.0,0.1,0.0,0.0,0.0,0.1
1446038728201406831,7,1446038728198260068,robocape,-1.36077542162,4.42380845908,-37.5413448166,0.0,10.0,0.0,0.0,0.0,10.0,0.0,0.0,0.0,10.0,-0.274172434224,-0.0547279604011,0.992293822164,1.0,0.0,0.0,0.0,1.0,0.0,0.0,0.0,1.0,2.23934326172,-6.23064331055,10.4003723145,0.1,0.0,0.0,0.0,0.1,0.0,0.0,0.0,0.1
1446038728234378498,8,1446038728231300115,robocape,-0.65194896747,4.5079368622,-36.0612059212,0.0,10.0,0.0,0.0,0.0,10.0,0.0,0.0,0.0,10.0,0.307861422013,0.0107858024148,0.922252685494,1.0,0.0,0.0,0.0,1.0,0.0,0.0,0.0,1.0,2.16150512695,-1.94116333008,10.3883972168,0.1,0.0,0.0,0.0,0.1,0.0,0.0,0.0,0.1
1446038728267475665,9,1446038728264394998,robocape,0.263920589208,4.53476938811,-34.4625983909,0.0,10.0,0.0,0.0,0.0,10.0,0.0,0.0,0.0,10.0,0.407197330673,-0.00759000910673,0.976048539514,1.0,0.0,0.0,0.0,1.0,0.0,0.0,0.0,1.0,1.79985717773,-1.01309326172,10.0375268555,0.1,0.0,0.0,0.0,0.1,0.0,0.0,0.0,0.1
1446038728301336706,10,1446038728298312902,robocape,0.751339269173,4.38438702224,-32.8990857324,0.0,10.0,0.0,0.0,0.0,10.0,0.0,0.0,0.0,10.0,0.18389127327,-0.0877511579181,0.944756396706,1.0,0.0,0.0,0.0,1.0,0.0,0.0,0.0,1.0,1.83817749023,-1.01548828125,10.2279309082,0.1,0.0,0.0,0.0,0.1,0.0,0.0,0.0,0.1
1446038728335232081,11,1446038728331284999,robocape,1.05280391234,4.22213466803,-31.3803530992,0.0,10.0,0.0,0.0,0.0,10.0,0.0,0.0,0.0,10.0,0.0902811609537,-0.0866858934821,0.908537405881,1.0,0.0,0.0,0.0,1.0,0.0,0.0,0.0,1.0,1.39869140625,-1.38671630859,10.3512744141,0.1,0.0,0.0,0.0,0.1,0.0,0.0,0.0,0.1
1446038728367447373,12,1446038728364342927,robocape,1.45278981099,4.13196174838,-29.6044880048,0.0,10.0,0.0,0.0,0.0,10.0,0.0,0.0,0.0,10.0,0.132492264231,-0.0411458388417,1.03996440568,1.0,0.0,0.0,0.0,1.0,0.0,0.0,0.0,1.0,1.50167724609,-2.02019897461,10.821895752,0.1,0.0,0.0,0.0,0.1,0.0,0.0,0.0,0.1
1446038728401292248,13,1446038728398212909,robocape,2.2805633539,4.08382064124,-27.2981843395,0.0,10.0,0.0,0.0,0.0,10.0,0.0,0.0,0.0,10.0,0.333960400696,-0.00119842249054,1.31799842348,1.0,0.0,0.0,0.0,1.0,0.0,0.0,0.0,1.0,0.992735595703,-2.30640380859,11.0661877441,0.1,0.0,0.0,0.0,0.1,0.0,0.0,0.0,0.1
1446038728434504123,14,1446038728431502103,robocape,3.40378489727,4.11484169027,-24.5412723572,0.0,10.0,0.0,0.0,0.0,10.0,0.0,0.0,0.0,10.0,0.467517929363,0.0723048235957,1.5418371131,1.0,0.0,0.0,0.0,1.0,0.0,0.0,0.0,1.0,0.322130126953,-1.98427368164,10.7955505371,0.1,0.0,0.0,0.0,0.1,0.0,0.0,0.0,0.1
1446038728467504998,15,1446038728464449882,robocape,4.69107494751,4.34313983699,-21.4981857977,0.0,10.0,0.0,0.0,0.0,10.0,0.0,0.0,0.0,10.0,0.535561695215,0.216514996623,1.66314410075,1.0,0.0,0.0,0.0,1.0,0.0,0.0,0.0,1.0,0.118553466797,-2.37106933594,10.2219433594,0.1,0.0,0.0,0.0,0.1,0.0,0.0,0.0,0.1
1446038728501206748,16,1446038728498166084,robocape,6.16224306731,4.8285118188,-18.3211215618,0.0,10.0,0.0,0.0,0.0,10.0,0.0,0.0,0.0,10.0,0.614391263481,0.395479421877,1.69124045025,1.0,0.0,0.0,0.0,1.0,0.0,0.0,0.0,1.0,-0.437091064453,-2.28005859375,9.81,0.1,0.0,0.0,0.0,0.1,0.0,0.0,0.0,0.1
1446038728534726581,17,1446038728531485080,robocape,7.64311176076,5.25249351356,-15.1331883973,0.0,10.0,0.0,0.0,0.0,10.0,0.0,0.0,0.0,10.0,0.60546967383,0.407064172619,1.66913621321,1.0,0.0,0.0,0.0,1.0,0.0,0.0,0.0,1.0,-2.49920288086,-1.65016845703,9.72737182617,0.1,0.0,0.0,0.0,0.1,0.0,0.0,0.0,0.1
1446038728567925540,18,1446038728564795017,robocape,8.89924703442,5.19756964068,-11.9941814066,0.0,10.0,0.0,0.0,0.0,10.0,0.0,0.0,0.0,10.0,0.484961634503,0.195609182066,1.65515461748,1.0,0.0,0.0,0.0,1.0,0.0,0.0,0.0,1.0,-2.48603027344,-1.63340332031,9.07712402344,0.1,0.0,0.0,0.0,0.1,0.0,0.0,0.0,0.1
1446038728601219706,19,1446038728598275899,robocape,9.89351414777,4.855864293,-9.22654830518,0.0,10.0,0.0,0.0,0.0,10.0,0.0,0.0,0.0,10.0,0.373508342884,0.0506000607115,1.47272808281,1.0,0.0,0.0,0.0,1.0,0.0,0.0,0.0,1.0,-1.54838012695,-2.25491088867,8.6256628418,0.1,0.0,0.0,0.0,0.1,0.0,0.0,0.0,0.1
1446038728634186290,20,1446038728631227016,robocape,10.8874526035,4.4808304627,-6.8049681243,0.0,10.0,0.0,0.0,0.0,10.0,0.0,0.0,0.0,10.0,0.400938902111,0.0287621397729,1.28923628371,1.0,0.0,0.0,0.0,1.0,0.0,0.0,0.0,1.0,-1.32684082031,-2.45130249023,8.3574206543,0.1,0.0,0.0,0.0,0.1,0.0,0.0,0.0,0.1
1446038728667631415,21,1446038728664431095,robocape,12.0212699595,3.98121986552,-4.72142147293,0.0,10.0,0.0,0.0,0.0,10.0,0.0,0.0,0.0,10.0,0.50054112688,-0.0442084740953,1.12372082196,1.0,0.0,0.0,0.0,1.0,0.0,0.0,0.0,1.0,-1.39150634766,-2.04893920898,8.1274987793,0.1,0.0,0.0,0.0,0.1,0.0,0.0,0.0,0.1
1446038728701815123,22,1446038728698360919,robocape,13.1712883792,3.25359314523,-3.0176489629,0.0,10.0,0.0,0.0,0.0,10.0,0.0,0.0,0.0,10.0,0.535828011324,-0.180029689689,0.954610092739,1.0,0.0,0.0,0.0,1.0,0.0,0.0,0.0,1.0,-1.31007568359,-1.71962402344,8.19455932617,0.1,0.0,0.0,0.0,0.1,0.0,0.0,0.0,0.1
1446038728735841206,23,1446038728732630968,robocape,14.3760928943,2.20894225751,-1.71566175152,0.0,10.0,0.0,0.0,0.0,10.0,0.0,0.0,0.0,10.0,0.59068912978,-0.370312549576,0.792689898462,1.0,0.0,0.0,0.0,1.0,0.0,0.0,0.0,1.0,-1.10170898438,-1.66932861328,8.33586547852,0.1,0.0,0.0,0.0,0.1,0.0,0.0,0.0,0.1
1446038728767581498,24,1446038728764309883,robocape,15.6975214236,0.788720174047,-0.792184394729,0.0,10.0,0.0,0.0,0.0,10.0,0.0,0.0,0.0,10.0,0.674445546063,-0.593085974761,0.660064476176,1.0,0.0,0.0,0.0,1.0,0.0,0.0,0.0,1.0,-0.820294189453,-1.1076965332,8.37418579102,0.1,0.0,0.0,0.0,0.1,0.0,0.0,0.0,0.1
1446038728808422415,25,1446038728805253028,robocape,16.8706820955,-0.804513968256,-0.119220790772,0.0,10.0,0.0,0.0,0.0,10.0,0.0,0.0,0.0,10.0,0.610529679901,-0.70187610529,0.572180160204,1.0,0.0,0.0,0.0,1.0,0.0,0.0,0.0,1.0,-0.329315185547,-0.786763916016,8.91546020508,0.1,0.0,0.0,0.0,0.1,0.0,0.0,0.0,0.1
1446038728833912207,26,1446038728831008911,robocape,17.8591221014,-2.22336110074,0.492222323392,0.0,10.0,0.0,0.0,0.0,10.0,0.0,0.0,0.0,10.0,0.522512205874,-0.613192840991,0.527039579727,1.0,0.0,0.0,0.0,1.0,0.0,0.0,0.0,1.0,-0.265847167969,-0.717308349609,9.18609741211,0.1,0.0,0.0,0.0,0.1,0.0,0.0,0.0,0.1
1446038728867575207,27,1446038728864335060,robocape,18.3412765553,-3.44434431841,1.11836174915,0.0,10.0,0.0,0.0,0.0,10.0,0.0,0.0,0.0,10.0,0.260190838501,-0.504535868516,0.509063242369,1.0,0.0,0.0,0.0,1.0,0.0,0.0,0.0,1.0,-0.0610729980469,0.142503662109,9.77766723633,0.1,0.0,0.0,0.0,0.1,0.0,0.0,0.0,0.1
1446038728901114207,28,1446038728898067951,robocape,18.4948985036,-4.39622127091,1.68657526551,0.0,10.0,0.0,0.0,0.0,10.0,0.0,0.0,0.0,10.0,0.0882837901361,-0.376437820083,0.437424209046,1.0,0.0,0.0,0.0,1.0,0.0,0.0,0.0,1.0,0.176033935547,-0.279019775391,9.45912963867,0.1,0.0,0.0,0.0,0.1,0.0,0.0,0.0,0.1
1446038728934364873,29,1446038728931402921,robocape,18.3586115875,-5.12991645519,2.3526573895,0.0,10.0,0.0,0.0,0.0,10.0,0.0,0.0,0.0,10.0,-0.0585895439817,-0.250603458576,0.448343169515,1.0,0.0,0.0,0.0,1.0,0.0,0.0,0.0,1.0,-0.0239501953125,-0.350870361328,9.55732543945,0.1,0.0,0.0,0.0,0.1,0.0,0.0,0.0,0.1
1446038728967649873,30,1446038728964435100,robocape,18.1585440679,-5.71828254863,3.31672680984,0.0,10.0,0.0,0.0,0.0,10.0,0.0,0.0,0.0,10.0,-0.0731037719227,-0.130761209523,0.570049631331,1.0,0.0,0.0,0.0,1.0,0.0,0.0,0.0,1.0,-0.461041259766,0.189206542969,10.0016015625,0.1,0.0,0.0,0.0,0.1,0.0,0.0,0.0,0.1
1446038729001242165,31,1446038728998321056,robocape,18.0418096029,-6.07147200495,4.36582868288,0.0,10.0,0.0,0.0,0.0,10.0,0.0,0.0,0.0,10.0,-0.0194410759576,-0.00186421276306,0.572579634367,1.0,0.0,0.0,0.0,1.0,0.0,0.0,0.0,1.0,-0.724493408203,-1.53041748047,9.85790039062,0.1,0.0,0.0,0.0,0.1,0.0,0.0,0.0,0.1
1446038729034921832,32,1446038729031414031,robocape,18.1042371529,-6.01229608793,5.39207856121,0.0,10.0,0.0,0.0,0.0,10.0,0.0,0.0,0.0,10.0,0.0755006169037,0.198938133429,0.493750066101,1.0,0.0,0.0,0.0,1.0,0.0,0.0,0.0,1.0,-0.777183837891,-0.173638916016,9.10466674805,0.1,0.0,0.0,0.0,0.1,0.0,0.0,0.0,0.1
1446038729075238207,33,1446038729072379112,robocape,18.2614530553,-5.60229039118,6.20181231574,0.0,10.0,0.0,0.0,0.0,10.0,0.0,0.0,0.0,10.0,0.110388027184,0.339153564822,0.328234604352,1.0,0.0,0.0,0.0,1.0,0.0,0.0,0.0,1.0,-0.971180419922,-0.312550048828,8.78852416992,0.1,0.0,0.0,0.0,0.1,0.0,0.0,0.0,0.1
1446038729101175873,34,1446038729098227024,robocape,18.5060206337,-5.07813422045,6.8360263563,0.0,10.0,0.0,0.0,0.0,10.0,0.0,0.0,0.0,10.0,0.144077014973,0.36778254654,0.221308686586,1.0,0.0,0.0,0.0,1.0,0.0,0.0,0.0,1.0,-1.67531616211,-0.704135742188,8.51309692383,0.1,0.0,0.0,0.0,0.1,0.0,0.0,0.0,0.1
1446038729141043040,35,1446038729138196945,robocape,18.8936083106,-4.56843176304,7.1404079592,0.0,10.0,0.0,0.0,0.0,10.0,0.0,0.0,0.0,10.0,0.201734452574,0.306263525359,0.0589890181453,1.0,0.0,0.0,0.0,1.0,0.0,0.0,0.0,1.0,-2.38543945313,-0.530496826172,8.18497924805,0.1,0.0,0.0,0.0,0.1,0.0,0.0,0.0,0.1
1446038729167691207,36,1446038729164442062,robocape,19.590499861,-4.24077424567,6.98818576108,0.0,10.0,0.0,0.0,0.0,10.0,0.0,0.0,0.0,10.0,0.346610415874,0.137685428357,-0.136220689758,1.0,0.0,0.0,0.0,1.0,0.0,0.0,0.0,1.0,-3.15064819336,-0.93884765625,8.0125378418,0.1,0.0,0.0,0.0,0.1,0.0,0.0,0.0,0.1
1446038729204898998,37,1446038729201546907,robocape,20.895151043,-4.36433744815,6.30008028369,0.0,10.0,0.0,0.0,0.0,10.0,0.0,0.0,0.0,10.0,0.652341309015,-0.184423905488,-0.315984063338,1.0,0.0,0.0,0.0,1.0,0.0,0.0,0.0,1.0,-3.00574951172,-0.570014648438,7.84249145508,0.1,0.0,0.0,0.0,0.1,0.0,0.0,0.0,0.1
1446038729234250915,38,1446038729231329917,robocape,22.411692299,-4.73591348546,5.25583473501,0.0,10.0,0.0,0.0,0.0,10.0,0.0,0.0,0.0,10.0,0.751011427402,-0.382030458372,-0.434761047955,1.0,0.0,0.0,0.0,1.0,0.0,0.0,0.0,1.0,-2.4489074707,0.633482666016,8.3885559082,0.1,0.0,0.0,0.0,0.1,0.0,0.0,0.0,0.1
1446038729277982373,39,1446038729274897098,robocape,23.0745359786,-4.98992833316,4.14122837957,0.0,10.0,0.0,0.0,0.0,10.0,0.0,0.0,0.0,10.0,0.280697178894,-0.344346728947,-0.48869006003,1.0,0.0,0.0,0.0,1.0,0.0,0.0,0.0,1.0,-1.61903320313,1.27894042969,10.0231567383,0.1,0.0,0.0,0.0,0.1,0.0,0.0,0.0,0.1
1446038729301240498,40,1446038729298360109,robocape,23.2171607497,-5.02490245988,3.32530453736,0.0,10.0,0.0,0.0,0.0,10.0,0.0,0.0,0.0,10.0,0.0102531701968,-0.178964425253,-0.389220993315,1.0,0.0,0.0,0.0,1.0,0.0,0.0,0.0,1.0,-0.178428955078,0.926872558594,10.0051940918,0.1,0.0,0.0,0.0,0.1,0.0,0.0,0.0,0.1
1446038729334228915,41,1446038729331119060,robocape,22.9714482754,-4.69384493819,3.06747579938,0.0,10.0,0.0,0.0,0.0,10.0,0.0,0.0,0.0,10.0,-0.174570209455,0.112784872165,-0.197606552884,1.0,0.0,0.0,0.0,1.0,0.0,0.0,0.0,1.0,0.108973388672,0.499361572266,9.44715454102,0.1,0.0,0.0,0.0,0.1,0.0,0.0,0.0,0.1
1446038729367541165,42,1446038729364322900,robocape,22.5374419426,-4.08449308601,3.30895318328,0.0,10.0,0.0,0.0,0.0,10.0,0.0,0.0,0.0,10.0,-0.254465042157,0.348474628637,-0.0135821215594,1.0,0.0,0.0,0.0,1.0,0.0,0.0,0.0,1.0,-0.235909423828,-0.0646655273438,8.90707763672,0.1,0.0,0.0,0.0,0.1,0.0,0.0,0.0,0.1
1446038729401302207,43,1446038729398363113,robocape,22.1528098464,-3.20413831688,3.86776163408,0.0,10.0,0.0,0.0,0.0,10.0,0.0,0.0,0.0,10.0,-0.217180786896,0.54102117545,0.0882837901361,1.0,0.0,0.0,0.0,1.0,0.0,0.0,0.0,1.0,-0.792751464844,-1.00351318359,8.35143310547,0.1,0.0,0.0,0.0,0.1,0.0,0.0,0.0,0.1
1446038729434035248,44,1446038729431201934,robocape,22.1864352738,-2.21934150061,4.52371178608,0.0,10.0,0.0,0.0,0.0,10.0,0.0,0.0,0.0,10.0,0.00918790576077,0.608399151029,0.117978036291,1.0,0.0,0.0,0.0,1.0,0.0,0.0,0.0,1.0,-1.61783569336,-1.37953125,8.15504150391,0.1,0.0,0.0,0.0,0.1,0.0,0.0,0.0,0.1
1446038729467575165,45,1446038729464484930,robocape,22.7409264781,-1.41218984517,5.09390489522,0.0,10.0,0.0,0.0,0.0,10.0,0.0,0.0,0.0,10.0,0.286556133293,0.504802184625,0.111320133565,1.0,0.0,0.0,0.0,1.0,0.0,0.0,0.0,1.0,-2.23934326172,-0.678988037109,8.58854003906,0.1,0.0,0.0,0.0,0.1,0.0,0.0,0.0,0.1
1446038729501025749,46,1446038729498136997,robocape,23.3632141535,-0.80526987544,5.38629583426,0.0,10.0,0.0,0.0,0.0,10.0,0.0,0.0,0.0,10.0,0.316383537501,0.352203054163,0.0135821215594,1.0,0.0,0.0,0.0,1.0,0.0,0.0,0.0,1.0,-2.78061767578,0.869392089844,9.86508544922,0.1,0.0,0.0,0.0,0.1,0.0,0.0,0.0,0.1
1446038729534711374,47,1446038729531203031,robocape,23.7293126105,-0.29960698194,5.38877519924,0.0,10.0,0.0,0.0,0.0,10.0,0.0,0.0,0.0,10.0,0.172173364474,0.242613975306,-0.108923288584,1.0,0.0,0.0,0.0,1.0,0.0,0.0,0.0,1.0,-2.81893798828,1.09811645508,11.4290332031,0.1,0.0,0.0,0.0,0.1,0.0,0.0,0.0,0.1
1446038729567544457,48,1446038729564443111,robocape,23.8268068269,0.161270528069,5.19282133898,0.0,10.0,0.0,0.0,0.0,10.0,0.0,0.0,0.0,10.0,0.0242347659197,0.178165476926,-0.196807604557,1.0,0.0,0.0,0.0,1.0,0.0,0.0,0.0,1.0,-2.47405517578,2.80816040039,11.9140246582,0.1,0.0,0.0,0.0,0.1,0.0,0.0,0.0,0.1
1446038729601195999,49,1446038729598238945,robocape,23.4578252975,0.457558986609,4.87075140411,0.0,10.0,0.0,0.0,0.0,10.0,0.0,0.0,0.0,10.0,-0.22943132791,0.0723048235957,-0.22410500573,1.0,0.0,0.0,0.0,1.0,0.0,0.0,0.0,1.0,-2.43932739258,1.69567382813,12.3511157227,0.1,0.0,0.0,0.0,0.1,0.0,0.0,0.0,0.1
1446038729633968249,50,1446038729631123065,robocape,23.1591613639,0.962039163637,4.26174498985,0.0,10.0,0.0,0.0,0.0,10.0,0.0,0.0,0.0,10.0,-0.188152331014,0.113850136601,-0.403468905147,1.0,0.0,0.0,0.0,1.0,0.0,0.0,0.0,1.0,-1.59628051758,-0.374820556641,12.3559057617,0.1,0.0,0.0,0.0,0.1,0.0,0.0,0.0,0.1
1446038729667595915,51,1446038729664496898,robocape,24.0606978434,2.13582911077,3.52293806392,0.0,10.0,0.0,0.0,0.0,10.0,0.0,0.0,0.0,10.0,0.473510041816,0.407330488728,-0.601608090249,1.0,0.0,0.0,0.0,1.0,0.0,0.0,0.0,1.0,-0.318537597656,-1.92559570313,11.6218322754,0.1,0.0,0.0,0.0,0.1,0.0,0.0,0.0,0.1
1446038729701273165,52,1446038729698194026,robocape,25.5672127823,3.77204221422,2.86316928499,0.0,10.0,0.0,0.0,0.0,10.0,0.0,0.0,0.0,10.0,0.815726241891,0.634364971657,-0.672181859136,1.0,0.0,0.0,0.0,1.0,0.0,0.0,0.0,1.0,-0.602347412109,0.0239501953125,11.2745544434,0.1,0.0,0.0,0.0,0.1,0.0,0.0,0.0,0.1
1446038729734019040,53,1446038729731117010,robocape,26.5762221245,5.30035283312,2.69537558346,0.0,10.0,0.0,0.0,0.0,10.0,0.0,0.0,0.0,10.0,0.536227485487,0.68057081657,-0.430366832157,1.0,0.0,0.0,0.0,1.0,0.0,0.0,0.0,1.0,-1.05620361328,3.27638671875,12.701986084,0.1,0.0,0.0,0.0,0.1,0.0,0.0,0.0,0.1
1446038729767540499,54,1446038729764462947,robocape,26.8492775633,6.60778173336,3.22796527255,0.0,10.0,0.0,0.0,0.0,10.0,0.0,0.0,0.0,10.0,0.0958737992429,0.731304035336,-0.0608532309083,1.0,0.0,0.0,0.0,1.0,0.0,0.0,0.0,1.0,-1.89326293945,1.96032348633,13.9940991211,0.1,0.0,0.0,0.0,0.1,0.0,0.0,0.0,0.1
1446038729808643582,55,1446038729805484056,robocape,26.9059771663,8.00716377563,3.87169217324,0.0,10.0,0.0,0.0,0.0,10.0,0.0,0.0,0.0,10.0,-0.0356863586071,0.79735043037,-0.034354778062,1.0,0.0,0.0,0.0,1.0,0.0,0.0,0.0,1.0,-3.81287109375,0.858614501953,13.8647680664,0.1,0.0,0.0,0.0,0.1,0.0,0.0,0.0,0.1
1446038729834178665,56,1446038729831316947,robocape,27.1850453121,9.27246824707,4.15488401818,0.0,10.0,0.0,0.0,0.0,10.0,0.0,0.0,0.0,10.0,0.107724866094,0.650743412361,-0.171640732256,1.0,0.0,0.0,0.0,1.0,0.0,0.0,0.0,1.0,-5.11216918945,0.180823974609,12.3259680176,0.1,0.0,0.0,0.0,0.1,0.0,0.0,0.0,0.1
1446038729867502207,57,1446038729864455938,robocape,27.6822186036,10.0296428563,4.11666909996,0.0,10.0,0.0,0.0,0.0,10.0,0.0,0.0,0.0,10.0,0.249671352195,0.337289352059,-0.200935504246,1.0,0.0,0.0,0.0,1.0,0.0,0.0,0.0,1.0,-4.96607299805,0.856219482422,11.4925012207,0.1,0.0,0.0,0.0,0.1,0.0,0.0,0.0,0.1
1446038729901324915,58,1446038729898293018,robocape,27.930183676,10.2265536042,3.94918672219,0.0,10.0,0.0,0.0,0.0,10.0,0.0,0.0,0.0,10.0,0.117578562127,0.0399474163512,-0.125834361506,1.0,0.0,0.0,0.0,1.0,0.0,0.0,0.0,1.0,-4.26792480469,1.27774291992,11.741583252,0.1,0.0,0.0,0.0,0.1,0.0,0.0,0.0,0.1
1446038729933967999,59,1446038729931128978,robocape,27.9187936191,10.0241792237,3.70244830291,0.0,10.0,0.0,0.0,0.0,10.0,0.0,0.0,0.0,10.0,-0.0235689756472,-0.168844413111,-0.0645816564344,1.0,0.0,0.0,0.0,1.0,0.0,0.0,0.0,1.0,-3.47277832031,1.5328125,11.9307897949,0.1,0.0,0.0,0.0,0.1,0.0,0.0,0.0,0.1
1446038729967464707,60,1446038729964478015,robocape,27.8398799319,9.70756579594,3.35788238722,0.0,10.0,0.0,0.0,0.0,10.0,0.0,0.0,0.0,10.0,-0.0539290120741,-0.245942926669,-0.0812264132474,1.0,0.0,0.0,0.0,1.0,0.0,0.0,0.0,1.0,-2.65368164063,1.609453125,11.8649267578,0.1,0.0,0.0,0.0,0.1,0.0,0.0,0.0,0.1
1446038730001313665,61,1446038729998265981,robocape,27.7738224012,9.51740351956,2.91358266102,0.0,10.0,0.0,0.0,0.0,10.0,0.0,0.0,0.0,10.0,-0.0372842552611,-0.210123410007,-0.157392820424,1.0,0.0,0.0,0.0,1.0,0.0,0.0,0.0,1.0,-1.89446044922,1.36156860352,11.7212255859,0.1,0.0,0.0,0.0,0.1,0.0,0.0,0.0,0.1
1446038730034738374,62,1446038730031239032,robocape,27.7173895719,9.55746079605,2.53901287397,0.0,10.0,0.0,0.0,0.0,10.0,0.0,0.0,0.0,10.0,-0.0355532005526,-0.085354312937,-0.18122811218,1.0,0.0,0.0,0.0,1.0,0.0,0.0,0.0,1.0,-1.6896862793,1.44539428711,11.5296240234,0.1,0.0,0.0,0.0,0.1,0.0,0.0,0.0,0.1
1446038730067553790,63,1446038730064465999,robocape,27.7078759303,9.74662584437,2.30789303174,0.0,10.0,0.0,0.0,0.0,10.0,0.0,0.0,0.0,10.0,-0.0199737081756,0.0193079179031,-0.151533866026,1.0,0.0,0.0,0.0,1.0,0.0,0.0,0.0,1.0,-1.55915771484,1.41306152344,10.9129064941,0.1,0.0,0.0,0.0,0.1,0.0,0.0,0.0,0.1
1446038730101416124,64,1446038730098038911,robocape,27.7023114827,10.0902297826,2.17719606294,0.0,10.0,0.0,0.0,0.0,10.0,0.0,0.0,0.0,10.0,-0.0246342400832,0.1153148752,-0.142878592483,1.0,0.0,0.0,0.0,1.0,0.0,0.0,0.0,1.0,-1.4142590332,1.6825012207,11.2565917969,0.1,0.0,0.0,0.0,0.1,0.0,0.0,0.0,0.1
1446038730133993957,65,1446038730131134033,robocape,27.6637551272,9.57883394681,1.81816652541,0.0,10.0,0.0,0.0,0.0,10.0,0.0,0.0,0.0,10.0,-0.0316916169719,-0.338754090658,-0.0390153099697,1.0,0.0,0.0,0.0,1.0,0.0,0.0,0.0,1.0,-1.86572021484,1.63579833984,10.3536694336,0.1,0.0,0.0,0.0,0.1,0.0,0.0,0.0,0.1
1446038730168380874,66,1446038730164396047,robocape,27.3943662977,9.39782990204,1.43204193508,0.0,10.0,0.0,0.0,0.0,10.0,0.0,0.0,0.0,10.0,-0.154197027116,-0.192413388758,-0.131693315904,1.0,0.0,0.0,0.0,1.0,0.0,0.0,0.0,1.0,-1.13284423828,1.13523925781,9.89502319336,0.1,0.0,0.0,0.0,0.1,0.0,0.0,0.0,0.1
1446038730201473249,67,1446038730198143005,robocape,27.2464413465,9.08380815782,1.10068643987,0.0,10.0,0.0,0.0,0.0,10.0,0.0,0.0,0.0,10.0,-0.0929443220438,-0.239285023944,-0.0751011427402,1.0,0.0,0.0,0.0,1.0,0.0,0.0,0.0,1.0,-2.19743041992,0.822689208984,10.249486084,0.1,0.0,0.0,0.0,0.1,0.0,0.0,0.0,0.1
1446038730234243541,68,1446038730231215953,robocape,27.2067604423,8.88409027797,0.464387032375,0.0,10.0,0.0,0.0,0.0,10.0,0.0,0.0,0.0,10.0,-0.00692421883421,-0.255796622702,-0.242613975306,1.0,0.0,0.0,0.0,1.0,0.0,0.0,0.0,1.0,-1.98786621094,0.239501953125,10.208770752,0.1,0.0,0.0,0.0,0.1,0.0,0.0,0.0,0.1
1446038730267392749,69,1446038730264373064,robocape,27.2364550344,8.90826095358,-0.169521181319,0.0,10.0,0.0,0.0,0.0,10.0,0.0,0.0,0.0,10.0,0.0334226716805,-0.149270179099,-0.294678774617,1.0,0.0,0.0,0.0,1.0,0.0,0.0,0.0,1.0,-1.51005981445,0.511336669922,10.1979931641,0.1,0.0,0.0,0.0,0.1,0.0,0.0,0.0,0.1
1446038730301691249,70,1446038730298348903,robocape,27.2609907854,8.87800336516,-0.643122692018,0.0,10.0,0.0,0.0,0.0,10.0,0.0,0.0,0.0,10.0,0.016911072922,-0.13688648003,-0.207193932808,1.0,0.0,0.0,0.0,1.0,0.0,0.0,0.0,1.0,-1.78069702148,1.50766479492,10.2207458496,0.1,0.0,0.0,0.0,0.1,0.0,0.0,0.0,0.1
1446038730334016791,71,1446038730331091880,robocape,27.0613972962,8.87246782863,-0.858469137703,0.0,10.0,0.0,0.0,0.0,10.0,0.0,0.0,0.0,10.0,-0.128364364542,-0.066312711143,-0.0933437962073,1.0,0.0,0.0,0.0,1.0,0.0,0.0,0.0,1.0,-1.609453125,1.4142590332,10.4051623535,0.1,0.0,0.0,0.0,0.1,0.0,0.0,0.0,0.1
1446038730367729124,72,1446038730364623069,robocape,26.7112109502,8.84425173582,-0.981652867222,0.0,10.0,0.0,0.0,0.0,10.0,0.0,0.0,0.0,10.0,-0.218911841605,-0.0563258570552,-0.0450074224223,1.0,0.0,0.0,0.0,1.0,0.0,0.0,0.0,1.0,-1.81063476563,0.613125,9.8064074707,0.1,0.0,0.0,0.0,0.1,0.0,0.0,0.0,0.1
1446038730401613749,73,1446038730398226022,robocape,26.3892903453,8.70297390421,-1.16223005699,0.0,10.0,0.0,0.0,0.0,10.0,0.0,0.0,0.0,10.0,-0.19867181732,-0.121839619871,-0.0452737385313,1.0,0.0,0.0,0.0,1.0,0.0,0.0,0.0,1.0,-2.16150512695,0.245489501953,9.81,0.1,0.0,0.0,0.0,0.1,0.0,0.0,0.0,0.1
1446038730434019166,74,1446038730431178092,robocape,26.1480923422,8.34018709384,-1.43930975691,0.0,10.0,0.0,0.0,0.0,10.0,0.0,0.0,0.0,10.0,-0.147938598554,-0.246741874996,-0.0392816260787,1.0,0.0,0.0,0.0,1.0,0.0,0.0,0.0,1.0,-1.96990356445,-0.0275427246094,9.76329711914,0.1,0.0,0.0,0.0,0.1,0.0,0.0,0.0,0.1
1446038730467765457,75,1446038730464762926,robocape,26.0413705043,7.873460112,-1.71516085264,0.0,10.0,0.0,0.0,0.0,10.0,0.0,0.0,0.0,10.0,-0.0751011427402,-0.293480352127,-0.015845808486,1.0,0.0,0.0,0.0,1.0,0.0,0.0,0.0,1.0,-1.32923583984,0.0682580566406,10.0483044434,0.1,0.0,0.0,0.0,0.1,0.0,0.0,0.0,0.1
1446038730501559457,76,1446038730498140096,robocape,25.9322765676,7.34170685297,-1.91738636359,0.0,10.0,0.0,0.0,0.0,10.0,0.0,0.0,0.0,10.0,-0.082957467956,-0.306662999523,0.0328900394625,1.0,0.0,0.0,0.0,1.0,0.0,0.0,0.0,1.0,-0.722098388672,0.273032226563,10.132130127,0.1,0.0,0.0,0.0,0.1,0.0,0.0,0.0,0.1
1446038730535781624,77,1446038730532018899,robocape,25.7716247445,6.83914792024,-1.98851716708,0.0,10.0,0.0,0.0,0.0,10.0,0.0,0.0,0.0,10.0,-0.120241723217,-0.262853999591,0.0868190515366,1.0,0.0,0.0,0.0,1.0,0.0,0.0,0.0,1.0,-0.9196875,0.434696044922,10.3333117676,0.1,0.0,0.0,0.0,0.1,0.0,0.0,0.0,0.1
1446038730567439791,78,1446038730564369916,robocape,25.6380578229,6.36944708909,-1.96225018254,0.0,10.0,0.0,0.0,0.0,10.0,0.0,0.0,0.0,10.0,-0.110787501347,-0.224637637948,0.123970148743,1.0,0.0,0.0,0.0,1.0,0.0,0.0,0.0,1.0,-1.20349731445,0.365240478516,10.310559082,0.1,0.0,0.0,0.0,0.1,0.0,0.0,0.0,0.1
1446038730601449457,79,1446038730597729921,robocape,25.5153020346,5.94688485553,-1.95076378133,0.0,10.0,0.0,0.0,0.0,10.0,0.0,0.0,0.0,10.0,-0.102798018077,-0.205063403936,0.105594337222,1.0,0.0,0.0,0.0,1.0,0.0,0.0,0.0,1.0,-1.149609375,-0.1149609375,10.0950073242,0.1,0.0,0.0,0.0,0.1,0.0,0.0,0.0,0.1
1446038730633823874,80,1446038730630981922,robocape,25.4796139821,5.47800804025,-1.88927475337,0.0,10.0,0.0,0.0,0.0,10.0,0.0,0.0,0.0,10.0,-0.0573911214912,-0.214783941915,0.138750692793,1.0,0.0,0.0,0.0,1.0,0.0,0.0,0.0,1.0,-1.17116455078,-0.170046386719,10.0614770508,0.1,0.0,0.0,0.0,0.1,0.0,0.0,0.0,0.1
1446038730667396291,81,1446038730664541006,robocape,25.5071815231,5.0248288309,-1.88276699829,0.0,10.0,0.0,0.0,0.0,10.0,0.0,0.0,0.0,10.0,-0.0190416017941,-0.218645525496,0.108923288584,1.0,0.0,0.0,0.0,1.0,0.0,0.0,0.0,1.0,-1.02866088867,0.220341796875,10.0542919922,0.1,0.0,0.0,0.0,0.1,0.0,0.0,0.0,0.1
1446038730701541916,82,1446038730697702884,robocape,25.5308535682,4.61496482563,-1.87658488244,0.0,10.0,0.0,0.0,0.0,10.0,0.0,0.0,0.0,10.0,-0.0206394984481,-0.197606552884,0.0989364344964,1.0,0.0,0.0,0.0,1.0,0.0,0.0,0.0,1.0,-1.16637451172,0.596359863281,10.0782421875,0.1,0.0,0.0,0.0,0.1,0.0,0.0,0.0,0.1
1446038730734705874,83,1446038730731693029,robocape,25.5356734184,4.22389198431,-1.85279246797,0.0,10.0,0.0,0.0,0.0,10.0,0.0,0.0,0.0,10.0,-0.0314253008629,-0.184290747433,0.102931176132,1.0,0.0,0.0,0.0,1.0,0.0,0.0,0.0,1.0,-1.14242431641,0.374820556641,10.2590661621,0.1,0.0,0.0,0.0,0.1,0.0,0.0,0.0,0.1
1446038730767521041,84,1446038730764442920,robocape,25.530962344,3.87376263071,-1.87757551836,0.0,10.0,0.0,0.0,0.0,10.0,0.0,0.0,0.0,10.0,-0.0342216200075,-0.175369157782,0.0707069269416,1.0,0.0,0.0,0.0,1.0,0.0,0.0,0.0,1.0,-0.748443603516,0.277822265625,10.0435144043,0.1,0.0,0.0,0.0,0.1,0.0,0.0,0.0,0.1
1446038730807838541,85,1446038730804877996,robocape,25.5577234757,3.60784489042,-1.91825163171,0.0,10.0,0.0,0.0,0.0,10.0,0.0,0.0,0.0,10.0,-0.015845808486,-0.138617534739,0.0440753160408,1.0,0.0,0.0,0.0,1.0,0.0,0.0,0.0,1.0,-0.718505859375,0.372425537109,10.1512902832,0.1,0.0,0.0,0.0,0.1,0.0,0.0,0.0,0.1
1446038730833977832,86,1446038730831080913,robocape,25.5344702108,3.24686910673,-1.95041070164,0.0,10.0,0.0,0.0,0.0,10.0,0.0,0.0,0.0,10.0,-0.0440753160408,-0.181361270234,0.0696416625056,1.0,0.0,0.0,0.0,1.0,0.0,0.0,0.0,1.0,-0.408350830078,0.252674560547,10.0387243652,0.1,0.0,0.0,0.0,0.1,0.0,0.0,0.0,0.1
1446038730867350957,87,1446038730864483118,robocape,25.4686101223,2.85695785918,-1.95460630079,0.0,10.0,0.0,0.0,0.0,10.0,0.0,0.0,0.0,10.0,-0.0683100819605,-0.188418647123,0.0892158965177,1.0,0.0,0.0,0.0,1.0,0.0,0.0,0.0,1.0,-1.05500610352,0.2682421875,10.1620678711,0.1,0.0,0.0,0.0,0.1,0.0,0.0,0.0,0.1
1446038730901758083,88,1446038730897896051,robocape,25.4016381788,2.38704534705,-1.95861390408,0.0,10.0,0.0,0.0,0.0,10.0,0.0,0.0,0.0,10.0,-0.0688427141785,-0.225702902384,0.106925917767,1.0,0.0,0.0,0.0,1.0,0.0,0.0,0.0,1.0,-0.941242675781,0.0814306640625,9.97286132813,0.1,0.0,0.0,0.0,0.1,0.0,0.0,0.0,0.1
1446038730934000916,89,1446038730931158065,robocape,25.3292516101,1.86867232651,-1.97569668538,0.0,10.0,0.0,0.0,0.0,10.0,0.0,0.0,0.0,10.0,-0.0712395591596,-0.25100293274,0.111186975511,1.0,0.0,0.0,0.0,1.0,0.0,0.0,0.0,1.0,-1.96271850586,-0.161663818359,10.3931872559,0.1,0.0,0.0,0.0,0.1,0.0,0.0,0.0,0.1
1446038730967490374,90,1446038730964644908,robocape,25.2089708406,1.32349428645,-1.95058206913,0.0,10.0,0.0,0.0,0.0,10.0,0.0,0.0,0.0,10.0,-0.0978711700604,-0.253799251885,0.136620163921,1.0,0.0,0.0,0.0,1.0,0.0,0.0,0.0,1.0,-1.28732299805,0.165256347656,10.1273400879,0.1,0.0,0.0,0.0,0.1,0.0,0.0,0.0,0.1
1446038731001742208,91,1446038730997864961,robocape,25.1039473312,0.764241223561,-1.96482581863,0.0,10.0,0.0,0.0,0.0,10.0,0.0,0.0,0.0,10.0,-0.0882837901361,-0.268712953989,0.120374881272,1.0,0.0,0.0,0.0,1.0,0.0,0.0,0.0,1.0,-0.831071777344,0.211959228516,9.97765136719,0.1,0.0,0.0,0.0,0.1,0.0,0.0,0.0,0.1
1446038731034365624,92,1446038731031128883,robocape,24.9686185175,0.175826558928,-1.89475704094,0.0,10.0,0.0,0.0,0.0,10.0,0.0,0.0,0.0,10.0,-0.104928546949,-0.263386631809,0.166048093966,1.0,0.0,0.0,0.0,1.0,0.0,0.0,0.0,1.0,0.403560791016,-0.706530761719,10.1237475586,0.1,0.0,0.0,0.0,0.1,0.0,0.0,0.0,0.1
1446038731067628166,93,1446038731064619064,robocape,25.0052952649,-0.176278500331,-1.85060211465,0.0,10.0,0.0,0.0,0.0,10.0,0.0,0.0,0.0,10.0,-0.00945422186978,-0.156727030151,0.100800647259,1.0,0.0,0.0,0.0,1.0,0.0,0.0,0.0,1.0,0.234711914063,-0.0359252929688,10.3692370605,0.1,0.0,0.0,0.0,0.1,0.0,0.0,0.0,0.1
1446038731101693624,94,1446038731097814083,robocape,25.1165581525,-0.433205838489,-1.90608646784,0.0,10.0,0.0,0.0,0.0,10.0,0.0,0.0,0.0,10.0,0.0315584589174,-0.133291212558,0.032490565299,1.0,0.0,0.0,0.0,1.0,0.0,0.0,0.0,1.0,-0.0047900390625,0.0981958007813,10.0255517578,0.1,0.0,0.0,0.0,0.1,0.0,0.0,0.0,0.1
1446038731133953583,95,1446038731131102085,robocape,25.1670796479,-0.729475581426,-1.98629013546,0.0,10.0,0.0,0.0,0.0,10.0,0.0,0.0,0.0,10.0,-0.00213052887206,-0.15699334626,0.0298274042089,1.0,0.0,0.0,0.0,1.0,0.0,0.0,0.0,1.0,-0.155676269531,0.267044677734,9.95010864258,0.1,0.0,0.0,0.0,0.1,0.0,0.0,0.0,0.1
1446038731167238124,96,1446038731164402961,robocape,25.1633821,-1.1576375009,-2.1017934281,0.0,10.0,0.0,0.0,0.0,10.0,0.0,0.0,0.0,10.0,-0.0323574072445,-0.22676816682,0.0426105774413,1.0,0.0,0.0,0.0,1.0,0.0,0.0,0.0,1.0,-0.282612304688,0.347277832031,9.81718505859,0.1,0.0,0.0,0.0,0.1,0.0,0.0,0.0,0.1
1446038731201492583,97,1446038731197841882,robocape,25.1381105883,-1.22147209834,-2.00573198029,0.0,10.0,0.0,0.0,0.0,10.0,0.0,0.0,0.0,10.0,-0.0426105774413,-0.00692421883421,0.0617853372898,1.0,0.0,0.0,0.0,1.0,0.0,0.0,0.0,1.0,2.71355712891,-0.456251220703,11.7176330566,0.1,0.0,0.0,0.0,0.1,0.0,0.0,0.0,0.1
1446038731234319458,98,1446038731231302976,robocape,25.1604344816,-1.15336258775,-2.02382400943,0.0,10.0,0.0,0.0,0.0,10.0,0.0,0.0,0.0,10.0,-0.0175768631945,0.0300937203179,-0.0217047628841,1.0,0.0,0.0,0.0,1.0,0.0,0.0,0.0,1.0,-0.1916015625,0.192799072266,10.0375268555,0.1,0.0,0.0,0.0,0.1,0.0,0.0,0.0,0.1
1446038731267284416,99,1446038731264389038,robocape,25.1694194953,-1.09843913089,-2.00880473645,0.0,10.0,0.0,0.0,0.0,10.0,0.0,0.0,0.0,10.0,-0.0246342400832,0.0311589847539,-0.00306263525359,1.0,0.0,0.0,0.0,1.0,0.0,0.0,0.0,1.0,0.348475341797,-0.239501953125,10.1465002441,0.1,0.0,0.0,0.0,0.1,0.0,0.0,0.0,0.1
1446038731301357249,100,1446038731298047065,robocape,25.2808839799,-1.04434394997,-1.99399469365,0.0,10.0,0.0,0.0,0.0,10.0,0.0,0.0,0.0,10.0,0.0315584589174,0.0304931944814,-0.0031957933081,1.0,0.0,0.0,0.0,1.0,0.0,0.0,0.0,1.0,0.108973388672,-0.444276123047,9.86748046875,0.1,0.0,0.0,0.0,0.1,0.0,0.0,0.0,0.1
1446038731334070124,101,1446038731331146955,robocape,25.4050316114,-0.974403746202,-1.97179409844,0.0,10.0,0.0,0.0,0.0,10.0,0.0,0.0,0.0,10.0,0.0383495196971,0.0395479421877,-0.0033289513626,1.0,0.0,0.0,0.0,1.0,0.0,0.0,0.0,1.0,0.24908203125,0.130528564453,9.91777587891,0.1,0.0,0.0,0.0,0.1,0.0,0.0,0.0,0.1
1446038731367274083,102,1446038731364391088,robocape,25.467721342,-0.853606152105,-1.89814302012,0.0,10.0,0.0,0.0,0.0,10.0,0.0,0.0,0.0,10.0,0.00466053190764,0.0751011427402,0.00958737992429,1.0,0.0,0.0,0.0,1.0,0.0,0.0,0.0,1.0,0.164058837891,0.361647949219,9.99681152344,0.1,0.0,0.0,0.0,0.1,0.0,0.0,0.0,0.1
1446038731401623624,103,1446038731398355007,robocape,25.4372728234,-0.736434906288,-1.81314702938,0.0,10.0,0.0,0.0,0.0,10.0,0.0,0.0,0.0,10.0,-0.0466053190764,0.0759000910673,0.015845808486,1.0,0.0,0.0,0.0,1.0,0.0,0.0,0.0,1.0,0.108973388672,0.234711914063,10.0255517578,0.1,0.0,0.0,0.0,0.1,0.0,0.0,0.0,0.1
1446038731434018083,104,1446038731431164026,robocape,25.3660722472,-0.630869209261,-1.72983975899,0.0,10.0,0.0,0.0,0.0,10.0,0.0,0.0,0.0,10.0,-0.0689758722331,0.0699079786146,0.017710021249,1.0,0.0,0.0,0.0,1.0,0.0,0.0,0.0,1.0,0.126936035156,-0.101788330078,10.0506994629,0.1,0.0,0.0,0.0,0.1,0.0,0.0,0.0,0.1
1446038731467407124,105,1446038731464585065,robocape,25.3328386985,-0.534571095523,-1.65639959341,0.0,10.0,0.0,0.0,0.0,10.0,0.0,0.0,0.0,10.0,-0.0480700576759,0.0631169178349,0.0150468601589,1.0,0.0,0.0,0.0,1.0,0.0,0.0,0.0,1.0,0.0275427246094,-0.423918457031,9.94771362305,0.1,0.0,0.0,0.0,0.1,0.0,0.0,0.0,0.1
1446038731501270833,106,1446038731498029947,robocape,25.2316474836,-0.331543580078,-1.62582384603,0.0,10.0,0.0,0.0,0.0,10.0,0.0,0.0,0.0,10.0,-0.0854874709915,0.103863282513,-0.0288952978274,1.0,0.0,0.0,0.0,1.0,0.0,0.0,0.0,1.0,-0.0275427246094,0.423918457031,10.1297351074,0.1,0.0,0.0,0.0,0.1,0.0,0.0,0.0,0.1
1446038731534481916,107,1446038731531100988,robocape,25.0707932823,-0.190391944808,-1.59826874774,0.0,10.0,0.0,0.0,0.0,10.0,0.0,0.0,0.0,10.0,-0.117978036291,0.0737695621952,-0.0162452826495,1.0,0.0,0.0,0.0,1.0,0.0,0.0,0.0,1.0,0.0047900390625,-0.317340087891,10.1812280273,0.1,0.0,0.0,0.0,0.1,0.0,0.0,0.0,0.1
1446038731567545708,108,1446038731564533948,robocape,24.9977027001,-0.143199578943,-1.57042950044,0.0,10.0,0.0,0.0,0.0,10.0,0.0,0.0,0.0,10.0,-0.0695085044511,0.0291616139364,0.00466053190764,1.0,0.0,0.0,0.0,1.0,0.0,0.0,0.0,1.0,0.0886157226563,-0.682580566406,10.0914147949,0.1,0.0,0.0,0.0,0.1,0.0,0.0,0.0,0.1
1446038731601329375,109,1446038731598023891,robocape,25.0569704191,-0.0987872988431,-1.54931299112,0.0,10.0,0.0,0.0,0.0,10.0,0.0,0.0,0.0,10.0,0.0031957933081,0.0262321367373,0.00186421276306,1.0,0.0,0.0,0.0,1.0,0.0,0.0,0.0,1.0,0.220341796875,-0.695753173828,10.060279541,0.1,0.0,0.0,0.0,0.1,0.0,0.0,0.0,0.1
1446038731635998083,110,1446038731632873058,robocape,25.2616226701,-0.0410981077001,-1.53259710109,0.0,10.0,0.0,0.0,0.0,10.0,0.0,0.0,0.0,10.0,0.0828243099015,0.0314253008629,-0.0034621094171,1.0,0.0,0.0,0.0,1.0,0.0,0.0,0.0,1.0,0.086220703125,-0.553249511719,10.0375268555,0.1,0.0,0.0,0.0,0.1,0.0,0.0,0.0,0.1
1446038731667348791,111,1446038731664515018,robocape,25.5236624392,0.0229245958013,-1.51158099929,0.0,10.0,0.0,0.0,0.0,10.0,0.0,0.0,0.0,10.0,0.113983294655,0.0352868844435,-0.00306263525359,1.0,0.0,0.0,0.0,1.0,0.0,0.0,0.0,1.0,0.0263452148438,-0.256267089844,10.0375268555,0.1,0.0,0.0,0.0,0.1,0.0,0.0,0.0,0.1
1446038731701088583,112,1446038731697995901,robocape,25.7697792649,0.0753833589301,-1.487937631,0.0,10.0,0.0,0.0,0.0,10.0,0.0,0.0,0.0,10.0,0.104795388895,0.0303600364269,0.00066579027252,1.0,0.0,0.0,0.0,1.0,0.0,0.0,0.0,1.0,0.00359252929688,0.119750976563,10.0674645996,0.1,0.0,0.0,0.0,0.1,0.0,0.0,0.0,0.1
1446038731734282083,113,1446038731731201887,robocape,25.8952040211,0.109172954341,-1.45427695212,0.0,10.0,0.0,0.0,0.0,10.0,0.0,0.0,0.0,10.0,0.0379500455336,0.0238352917562,0.00972053797879,1.0,0.0,0.0,0.0,1.0,0.0,0.0,0.0,1.0,-0.0622705078125,0.476608886719,9.99681152344,0.1,0.0,0.0,0.0,0.1,0.0,0.0,0.0,0.1
1446038731767284083,114,1446038731764375925,robocape,25.8823686858,0.131523981786,-1.42737344034,0.0,10.0,0.0,0.0,0.0,10.0,0.0,0.0,0.0,10.0,-0.0383495196971,0.016911072922,0.00932106381528,1.0,0.0,0.0,0.0,1.0,0.0,0.0,0.0,1.0,0.0239501953125,0.409548339844,10.0590820312,0.1,0.0,0.0,0.0,0.1,0.0,0.0,0.0,0.1
1446038731808529750,115,1446038731805005073,robocape,25.7931982978,0.146104356101,-1.40360250557,0.0,10.0,0.0,0.0,0.0,10.0,0.0,0.0,0.0,10.0,-0.0802943068659,0.0125168571234,0.00972053797879,1.0,0.0,0.0,0.0,1.0,0.0,0.0,0.0,1.0,0.0443078613281,0.0742456054688,10.0686621094,0.1,0.0,0.0,0.0,0.1,0.0,0.0,0.0,0.1
1446038731834185416,116,1446038731831017017,robocape,25.7154993188,0.165716430829,-1.38186705124,0.0,10.0,0.0,0.0,0.0,10.0,0.0,0.0,0.0,10.0,-0.0737695621952,0.0143810698864,0.00759000910673,1.0,0.0,0.0,0.0,1.0,0.0,0.0,0.0,1.0,0.0502954101563,-0.336500244141,10.0255517578,0.1,0.0,0.0,0.0,0.1,0.0,0.0,0.0,0.1
1446038731867336333,117,1446038731864447116,robocape,25.7467573278,0.192491322672,-1.35657949633,0.0,10.0,0.0,0.0,0.0,10.0,0.0,0.0,0.0,10.0,-0.0137152796139,0.0185089695761,0.00745685105222,1.0,0.0,0.0,0.0,1.0,0.0,0.0,0.0,1.0,0.0538879394531,-0.526904296875,10.0291442871,0.1,0.0,0.0,0.0,0.1,0.0,0.0,0.0,0.1
1446038731901097083,118,1446038731897922039,robocape,25.8694375704,0.230362368739,-1.33007688065,0.0,10.0,0.0,0.0,0.0,10.0,0.0,0.0,0.0,10.0,0.0364853069341,0.0239684498107,0.00532632218016,1.0,0.0,0.0,0.0,1.0,0.0,0.0,0.0,1.0,0.160466308594,-0.393980712891,10.0135766602,0.1,0.0,0.0,0.0,0.1,0.0,0.0,0.0,0.1
1446038731934377250,119,1446038731931227922,robocape,26.0545177849,0.271480242287,-1.30135379353,0.0,10.0,0.0,0.0,0.0,10.0,0.0,0.0,0.0,10.0,0.0705737688871,0.0259658206283,0.00545948023466,1.0,0.0,0.0,0.0,1.0,0.0,0.0,0.0,1.0,-0.0407153320313,-0.193996582031,10.0566870117,0.1,0.0,0.0,0.0,0.1,0.0,0.0,0.0,0.1
1446038731967333083,120,1446038731964472055,robocape,26.2505937355,0.31846160095,-1.27518588752,0.0,10.0,0.0,0.0,0.0,10.0,0.0,0.0,0.0,10.0,0.0762995652308,0.0280963495003,0.00279631914458,1.0,0.0,0.0,0.0,1.0,0.0,0.0,0.0,1.0,0.0155676269531,0.155676269531,10.1213525391,0.1,0.0,0.0,0.0,0.1,0.0,0.0,0.0,0.1
1446038732000998958,121,1446038731997932910,robocape,26.3804143132,0.355051151216,-1.2496264641,0.0,10.0,0.0,0.0,0.0,10.0,0.0,0.0,0.0,10.0,0.0394147841332,0.0230363434292,0.00492684801665,1.0,0.0,0.0,0.0,1.0,0.0,0.0,0.0,1.0,-0.00598754882813,0.289797363281,10.0495019531,0.1,0.0,0.0,0.0,0.1,0.0,0.0,0.0,0.1
1446038732034331541,122,1446038732031083106,robocape,26.4135992031,0.383020867189,-1.2265502172,0.0,10.0,0.0,0.0,0.0,10.0,0.0,0.0,0.0,10.0,-0.0141147537774,0.0183758115215,0.00585895439817,1.0,0.0,0.0,0.0,1.0,0.0,0.0,0.0,1.0,0.00119750976563,0.235909423828,10.024354248,0.1,0.0,0.0,0.0,0.1,0.0,0.0,0.0,0.1
1446038732067309333,123,1446038732064435005,robocape,26.3756912874,0.401691662028,-1.20058257545,0.0,10.0,0.0,0.0,0.0,10.0,0.0,0.0,0.0,10.0,-0.0533963798561,0.0146473859954,0.00945422186978,1.0,0.0,0.0,0.0,1.0,0.0,0.0,0.0,1.0,0.0395178222656,0.0275427246094,10.0626745605,0.1,0.0,0.0,0.0,0.1,0.0,0.0,0.0,0.1
1446038732100855333,124,1446038732097825050,robocape,26.3499466192,0.423351239341,-1.17476038019,0.0,10.0,0.0,0.0,0.0,10.0,0.0,0.0,0.0,10.0,-0.0466053190764,0.0159789665405,0.00865527354276,1.0,0.0,0.0,0.0,1.0,0.0,0.0,0.0,1.0,0.0467028808594,-0.270637207031,10.080637207,0.1,0.0,0.0,0.0,0.1,0.0,0.0,0.0,0.1
1446038732134504333,125,1446038732131139993,robocape,26.3830625438,0.451229366367,-1.14818657844,0.0,10.0,0.0,0.0,0.0,10.0,0.0,0.0,0.0,10.0,-0.0141147537774,0.0190416017941,0.00745685105222,1.0,0.0,0.0,0.0,1.0,0.0,0.0,0.0,1.0,0.0598754882813,-0.396375732422,10.0291442871,0.1,0.0,0.0,0.0,0.1,0.0,0.0,0.0,0.1
1446038732167484583,126,1446038732164565086,robocape,26.488791268,0.485853818348,-1.12023232002,0.0,10.0,0.0,0.0,0.0,10.0,0.0,0.0,0.0,10.0,0.0258326625738,0.0225037112112,0.00639158661619,1.0,0.0,0.0,0.0,1.0,0.0,0.0,0.0,1.0,0.0598754882813,-0.324525146484,10.0327368164,0.1,0.0,0.0,0.0,0.1,0.0,0.0,0.0,0.1
1446038732200921916,127,1446038732197712898,robocape,26.6415060098,0.524275581237,-1.09238004307,0.0,10.0,0.0,0.0,0.0,10.0,0.0,0.0,0.0,10.0,0.051532167093,0.0242347659197,0.00532632218016,1.0,0.0,0.0,0.0,1.0,0.0,0.0,0.0,1.0,0.0431103515625,-0.137713623047,10.0411193848,0.1,0.0,0.0,0.0,0.1,0.0,0.0,0.0,0.1
1446038732234313208,128,1446038732231076002,robocape,26.7914043549,0.561670586477,-1.06402977659,0.0,10.0,0.0,0.0,0.0,10.0,0.0,0.0,0.0,10.0,0.04966795433,0.0238352917562,0.00572579634367,1.0,0.0,0.0,0.0,1.0,0.0,0.0,0.0,1.0,0.01916015625,0.0550854492188,10.0231567383,0.1,0.0,0.0,0.0,0.1,0.0,0.0,0.0,0.1
1446038732267270916,129,1446038732264381885,robocape,26.8796650456,0.593936756877,-1.0348800832,0.0,10.0,0.0,0.0,0.0,10.0,0.0,0.0,0.0,10.0,0.015313176268,0.0215716048296,0.00732369299772,1.0,0.0,0.0,0.0,1.0,0.0,0.0,0.0,1.0,0.009580078125,0.180823974609,10.0411193848,0.1,0.0,0.0,0.0,0.1,0.0,0.0,0.0,0.1
1446038732301017958,130,1446038732297946929,robocape,26.9118363715,0.620764967423,-1.00883489898,0.0,10.0,0.0,0.0,0.0,10.0,0.0,0.0,0.0,10.0,-0.015845808486,0.018242653467,0.00719053494321,1.0,0.0,0.0,0.0,1.0,0.0,0.0,0.0,1.0,0.0323327636719,0.111368408203,10.0363293457,0.1,0.0,0.0,0.0,0.1,0.0,0.0,0.0,0.1
1446038732334421917,131,1446038732331166028,robocape,26.9161788301,0.644611229594,-0.983461104879,0.0,10.0,0.0,0.0,0.0,10.0,0.0,0.0,0.0,10.0,-0.0312921428084,0.016644756813,0.00759000910673,1.0,0.0,0.0,0.0,1.0,0.0,0.0,0.0,1.0,0.0419128417969,-0.0622705078125,10.0459094238,0.1,0.0,0.0,0.0,0.1,0.0,0.0,0.0,0.1
1446038732367396417,132,1446038732364497900,robocape,26.9328615682,0.669715794399,-0.956500036103,0.0,10.0,0.0,0.0,0.0,10.0,0.0,0.0,0.0,10.0,-0.0245010820287,0.0175768631945,0.00798948327024,1.0,0.0,0.0,0.0,1.0,0.0,0.0,0.0,1.0,0.05748046875,-0.209564208984,10.0123791504,0.1,0.0,0.0,0.0,0.1,0.0,0.0,0.0,0.1
1446038732400717833,133,1446038732397819995,robocape,26.9886583669,0.699904325994,-0.929919434442,0.0,10.0,0.0,0.0,0.0,10.0,0.0,0.0,0.0,10.0,-0.00292947719909,0.0198405501211,0.00652474467069,1.0,0.0,0.0,0.0,1.0,0.0,0.0,0.0,1.0,0.0646655273438,-0.279019775391,10.0339343262,0.1,0.0,0.0,0.0,0.1,0.0,0.0,0.0,0.1
1446038732434323000,134,1446038732431117057,robocape,27.0880871951,0.735932036794,-0.900716518005,0.0,10.0,0.0,0.0,0.0,10.0,0.0,0.0,0.0,10.0,0.0210389726116,0.0231695014837,0.00625842856169,1.0,0.0,0.0,0.0,1.0,0.0,0.0,0.0,1.0,0.05748046875,-0.21076171875,10.055489502,0.1,0.0,0.0,0.0,0.1,0.0,0.0,0.0,0.1
1446038732467298958,135,1446038732464457988,robocape,27.2151130773,0.773173324296,-0.872112275263,0.0,10.0,0.0,0.0,0.0,10.0,0.0,0.0,0.0,10.0,0.0360858327706,0.0235689756472,0.00559263828917,1.0,0.0,0.0,0.0,1.0,0.0,0.0,0.0,1.0,0.0455053710938,-0.110170898438,10.0459094238,0.1,0.0,0.0,0.0,0.1,0.0,0.0,0.0,0.1
1446038732500662542,136,1446038732497806072,robocape,27.3294002983,0.807829552674,-0.84329483812,0.0,10.0,0.0,0.0,0.0,10.0,0.0,0.0,0.0,10.0,0.0287621397729,0.0223705531567,0.00625842856169,1.0,0.0,0.0,0.0,1.0,0.0,0.0,0.0,1.0,0.0263452148438,0.0550854492188,10.0590820312,0.1,0.0,0.0,0.0,0.1,0.0,0.0,0.0,0.1
1446038732534393667,137,1446038732531168937,robocape,27.4092622039,0.840182379537,-0.814197227696,0.0,10.0,0.0,0.0,0.0,10.0,0.0,0.0,0.0,10.0,0.00945422186978,0.0213052887206,0.00692421883421,1.0,0.0,0.0,0.0,1.0,0.0,0.0,0.0,1.0,0.0323327636719,0.105380859375,10.0471069336,0.1,0.0,0.0,0.0,0.1,0.0,0.0,0.0,0.1
1446038732567333000,138,1446038732564446926,robocape,27.4507273379,0.868102353691,-0.785674924714,0.0,10.0,0.0,0.0,0.0,10.0,0.0,0.0,0.0,10.0,-0.0119842249054,0.0190416017941,0.00772316716123,1.0,0.0,0.0,0.0,1.0,0.0,0.0,0.0,1.0,0.0263452148438,0.0335302734375,10.0578845215,0.1,0.0,0.0,0.0,0.1,0.0,0.0,0.0,0.1
1446038732600642333,139,1446038732597774982,robocape,27.4757650074,0.895198850755,-0.758117170469,0.0,10.0,0.0,0.0,0.0,10.0,0.0,0.0,0.0,10.0,-0.0211721306661,0.0183758115215,0.00745685105222,1.0,0.0,0.0,0.0,1.0,0.0,0.0,0.0,1.0,0.0431103515625,-0.0802331542969,10.0375268555,0.1,0.0,0.0,0.0,0.1,0.0,0.0,0.0,0.1
1446038732634184750,140,1446038732631088972,robocape,27.5100751292,0.922407548392,-0.729543218944,0.0,10.0,0.0,0.0,0.0,10.0,0.0,0.0,0.0,10.0,-0.016112124595,0.0186421276306,0.00785632521573,1.0,0.0,0.0,0.0,1.0,0.0,0.0,0.0,1.0,0.047900390625,-0.179626464844,10.019564209,0.1,0.0,0.0,0.0,0.1,0.0,0.0,0.0,0.1
1446038732667256833,141,1446038732664424896,robocape,27.5825374466,0.95295577852,-0.700196984483,0.0,10.0,0.0,0.0,0.0,10.0,0.0,0.0,0.0,10.0,0.00492684801665,0.0203731823391,0.00732369299772,1.0,0.0,0.0,0.0,1.0,0.0,0.0,0.0,1.0,0.0562829589844,-0.223934326172,10.0267492676,0.1,0.0,0.0,0.0,0.1,0.0,0.0,0.0,0.1
1446038732700699292,142,1446038732697741031,robocape,27.6853469856,0.987085464049,-0.670514944861,0.0,10.0,0.0,0.0,0.0,10.0,0.0,0.0,0.0,10.0,0.0215716048296,0.0221042370477,0.00652474467069,1.0,0.0,0.0,0.0,1.0,0.0,0.0,0.0,1.0,0.0455053710938,-0.298179931641,10.0351318359,0.1,0.0,0.0,0.0,0.1,0.0,0.0,0.0,0.1
1446038732734246875,143,1446038732731179952,robocape,27.7984522033,1.02162641306,-0.639304969531,0.0,10.0,0.0,0.0,0.0,10.0,0.0,0.0,0.0,10.0,0.0270310850643,0.0226368692657,0.00705737688871,1.0,0.0,0.0,0.0,1.0,0.0,0.0,0.0,1.0,0.0359252929688,-0.0490979003906,10.0363293457,0.1,0.0,0.0,0.0,0.1,0.0,0.0,0.0,0.1
1446038732767379583,144,1446038732764425039,robocape,27.8971198182,1.05600124247,-0.608650437675,0.0,10.0,0.0,0.0,0.0,10.0,0.0,0.0,0.0,10.0,0.0187752856851,0.0223705531567,0.0067910607797,1.0,0.0,0.0,0.0,1.0,0.0,0.0,0.0,1.0,0.0275427246094,0.0419128417969,10.0423168945,0.1,0.0,0.0,0.0,0.1,0.0,0.0,0.0,0.1
1446038732807817417,145,1446038732804776906,robocape,27.9656867505,1.08608116596,-0.579928224242,0.0,10.0,0.0,0.0,0.0,10.0,0.0,0.0,0.0,10.0,0.00186421276306,0.0198405501211,0.00692421883421,1.0,0.0,0.0,0.0,1.0,0.0,0.0,0.0,1.0,0.0347277832031,0.0586779785156,10.0411193848,0.1,0.0,0.0,0.0,0.1,0.0,0.0,0.0,0.1
1446038732834064042,146,1446038732831073045,robocape,28.008641189,1.11363749505,-0.55106428355,0.0,10.0,0.0,0.0,0.0,10.0,0.0,0.0,0.0,10.0,-0.0125168571234,0.0186421276306,0.00759000910673,1.0,0.0,0.0,0.0,1.0,0.0,0.0,0.0,1.0,0.0251477050781,-0.009580078125,10.0171691895,0.1,0.0,0.0,0.0,0.1,0.0,0.0,0.0,0.1
1446038732867521708,147,1446038732864607095,robocape,28.046746375,1.14113286212,-0.522446768816,0.0,10.0,0.0,0.0,0.0,10.0,0.0,0.0,0.0,10.0,-0.015313176268,0.0185089695761,0.00745685105222,1.0,0.0,0.0,0.0,1.0,0.0,0.0,0.0,1.0,0.0443078613281,-0.122145996094,10.0135766602,0.1,0.0,0.0,0.0,0.1,0.0,0.0,0.0,0.1
1446038732900971958,148,1446038732897954940,robocape,28.1066240929,1.1704072388,-0.493324061858,0.0,10.0,0.0,0.0,0.0,10.0,0.0,0.0,0.0,10.0,-0.0033289513626,0.0194410759576,0.00719053494321,1.0,0.0,0.0,0.0,1.0,0.0,0.0,0.0,1.0,0.0299377441406,-0.201181640625,10.039921875,0.1,0.0,0.0,0.0,0.1,0.0,0.0,0.0,0.1
1446038732934166292,149,1446038732931221961,robocape,28.1950815893,1.20255427672,-0.463077368136,0.0,10.0,0.0,0.0,0.0,10.0,0.0,0.0,0.0,10.0,0.0123836990689,0.0210389726116,0.00692421883421,1.0,0.0,0.0,0.0,1.0,0.0,0.0,0.0,1.0,0.0586779785156,-0.183218994141,10.0375268555,0.1,0.0,0.0,0.0,0.1,0.0,0.0,0.0,0.1
1446038732967419875,150,1446038732964549064,robocape,28.3040441873,1.23762017523,-0.432827252999,0.0,10.0,0.0,0.0,0.0,10.0,0.0,0.0,0.0,10.0,0.0235689756472,0.0223705531567,0.00612527050718,1.0,0.0,0.0,0.0,1.0,0.0,0.0,0.0,1.0,0.0443078613281,-0.104183349609,10.0279467773,0.1,0.0,0.0,0.0,0.1,0.0,0.0,0.0,0.1
1446038733000946000,151,1446038732997910022,robocape,28.4127629369,1.27233689309,-0.401754764976,0.0,10.0,0.0,0.0,0.0,10.0,0.0,0.0,0.0,10.0,0.0231695014837,0.0223705531567,0.00652474467069,1.0,0.0,0.0,0.0,1.0,0.0,0.0,0.0,1.0,0.0371228027344,-0.0275427246094,10.0327368164,0.1,0.0,0.0,0.0,0.1,0.0,0.0,0.0,0.1
1446038733034090500,152,1446038733031140089,robocape,28.5056312475,1.30499901681,-0.371976849892,0.0,10.0,0.0,0.0,0.0,10.0,0.0,0.0,0.0,10.0,0.0141147537774,0.0210389726116,0.00639158661619,1.0,0.0,0.0,0.0,1.0,0.0,0.0,0.0,1.0,0.0251477050781,0.0239501953125,10.0578845215,0.1,0.0,0.0,0.0,0.1,0.0,0.0,0.0,0.1
1446038733074005375,153,1446038733070879936,robocape,28.567785621,1.33357359281,-0.342331192023,0.0,10.0,0.0,0.0,0.0,10.0,0.0,0.0,0.0,10.0,-0.0031957933081,0.0190416017941,0.00732369299772,1.0,0.0,0.0,0.0,1.0,0.0,0.0,0.0,1.0,0.0443078613281,0.0203576660156,10.0614770508,0.1,0.0,0.0,0.0,0.1,0.0,0.0,0.0,0.1
1446038733101068084,154,1446038733098129034,robocape,28.6161113571,1.36197585195,-0.312124910697,0.0,10.0,0.0,0.0,0.0,10.0,0.0,0.0,0.0,10.0,-0.0110521185238,0.0190416017941,0.00759000910673,1.0,0.0,0.0,0.0,1.0,0.0,0.0,0.0,1.0,0.0227526855469,-0.0754431152344,10.0375268555,0.1,0.0,0.0,0.0,0.1,0.0,0.0,0.0,0.1
1446038733134314959,155,1446038733131310939,robocape,28.6682602348,1.39106446566,-0.281440127116,0.0,10.0,0.0,0.0,0.0,10.0,0.0,0.0,0.0,10.0,-0.00905474770627,0.0194410759576,0.00759000910673,1.0,0.0,0.0,0.0,1.0,0.0,0.0,0.0,1.0,0.028740234375,-0.13412109375,10.0471069336,0.1,0.0,0.0,0.0,0.1,0.0,0.0,0.0,0.1
1446038733167399250,156,1446038733164551019,robocape,28.7385605361,1.42141970344,-0.251960213776,0.0,10.0,0.0,0.0,0.0,10.0,0.0,0.0,0.0,10.0,0.000932106381528,0.0197073920666,0.0066579027252,1.0,0.0,0.0,0.0,1.0,0.0,0.0,0.0,1.0,0.0550854492188,-0.17244140625,10.0447119141,0.1,0.0,0.0,0.0,0.1,0.0,0.0,0.0,0.1
1446038733200776417,157,1446038733197853088,robocape,28.8297355784,1.45469347081,-0.222471961858,0.0,10.0,0.0,0.0,0.0,10.0,0.0,0.0,0.0,10.0,0.0123836990689,0.0210389726116,0.00585895439817,1.0,0.0,0.0,0.0,1.0,0.0,0.0,0.0,1.0,0.0395178222656,-0.149688720703,10.0183666992,0.1,0.0,0.0,0.0,0.1,0.0,0.0,0.0,0.1
1446038733234179167,158,1446038733231189012,robocape,28.9325868257,1.48800005905,-0.191360912531,0.0,10.0,0.0,0.0,0.0,10.0,0.0,0.0,0.0,10.0,0.0186421276306,0.0214384467751,0.00652474467069,1.0,0.0,0.0,0.0,1.0,0.0,0.0,0.0,1.0,0.0383203125,-0.101788330078,10.0459094238,0.1,0.0,0.0,0.0,0.1,0.0,0.0,0.0,0.1
1446038733267352667,159,1446038733264441013,robocape,29.0315869637,1.52054241398,-0.160248197789,0.0,10.0,0.0,0.0,0.0,10.0,0.0,0.0,0.0,10.0,0.0162452826495,0.0210389726116,0.0066579027252,1.0,0.0,0.0,0.0,1.0,0.0,0.0,0.0,1.0,0.0443078613281,-0.0299377441406,10.024354248,0.1,0.0,0.0,0.0,0.1,0.0,0.0,0.0,0.1
1446038733301328000,160,1446038733298355102,robocape,29.1143093002,1.55202319181,-0.1290347865,0.0,10.0,0.0,0.0,0.0,10.0,0.0,0.0,0.0,10.0,0.00692421883421,0.0205063403936,0.00692421883421,1.0,0.0,0.0,0.0,1.0,0.0,0.0,0.0,1.0,0.0335302734375,0.00718505859375,10.0183666992,0.1,0.0,0.0,0.0,0.1,0.0,0.0,0.0,0.1
1446038733334182125,161,1446038733331280946,robocape,29.180685153,1.58212826606,-0.0982005865246,0.0,10.0,0.0,0.0,0.0,10.0,0.0,0.0,0.0,10.0,-0.00239684498107,0.0197073920666,0.00705737688871,1.0,0.0,0.0,0.0,1.0,0.0,0.0,0.0,1.0,0.0419128417969,-0.0371228027344,10.0267492676,0.1,0.0,0.0,0.0,0.1,0.0,0.0,0.0,0.1
1446038733367304417,162,1446038733364419937,robocape,29.2411350756,1.61176541864,-0.068402741106,0.0,10.0,0.0,0.0,0.0,10.0,0.0,0.0,0.0,10.0,-0.00585895439817,0.0191747598486,0.0066579027252,1.0,0.0,0.0,0.0,1.0,0.0,0.0,0.0,1.0,0.0514929199219,-0.0922082519531,10.0411193848,0.1,0.0,0.0,0.0,0.1,0.0,0.0,0.0,0.1
1446038733401300250,163,1446038733398235082,robocape,29.3071472665,1.64091047175,-0.0375977847085,0.0,10.0,0.0,0.0,0.0,10.0,0.0,0.0,0.0,10.0,-0.00292947719909,0.0191747598486,0.00719053494321,1.0,0.0,0.0,0.0,1.0,0.0,0.0,0.0,1.0,0.0419128417969,-0.126936035156,10.0506994629,0.1,0.0,0.0,0.0,0.1,0.0,0.0,0.0,0.1
1446038733434322542,164,1446038733431442022,robocape,29.3887708516,1.67268094762,-0.00517922542314,0.0,10.0,0.0,0.0,0.0,10.0,0.0,0.0,0.0,10.0,0.00559263828917,0.0207726565026,0.00719053494321,1.0,0.0,0.0,0.0,1.0,0.0,0.0,0.0,1.0,0.0347277832031,-0.156873779297,10.019564209,0.1,0.0,0.0,0.0,0.1,0.0,0.0,0.0,0.1
1446038733467304167,165,1446038733464440107,robocape,29.4857848699,1.70623923818,0.0272319004119,0.0,10.0,0.0,0.0,0.0,10.0,0.0,0.0,0.0,10.0,0.0139815957229,0.0215716048296,0.0066579027252,1.0,0.0,0.0,0.0,1.0,0.0,0.0,0.0,1.0,0.0490979003906,-0.131726074219,10.0267492676,0.1,0.0,0.0,0.0,0.1,0.0,0.0,0.0,0.1
1446038733500693959,166,1446038733497834920,robocape,29.5863383421,1.74036808106,0.0598225199851,0.0,10.0,0.0,0.0,0.0,10.0,0.0,0.0,0.0,10.0,0.0157126504315,0.0218379209386,0.00652474467069,1.0,0.0,0.0,0.0,1.0,0.0,0.0,0.0,1.0,0.0395178222656,-0.0598754882813,10.0183666992,0.1,0.0,0.0,0.0,0.1,0.0,0.0,0.0,0.1
1446038733534093792,167,1446038733531193017,robocape,29.6790285219,1.77315710902,0.0929605177843,0.0,10.0,0.0,0.0,0.0,10.0,0.0,0.0,0.0,10.0,0.0110521185238,0.0213052887206,0.00705737688871,1.0,0.0,0.0,0.0,1.0,0.0,0.0,0.0,1.0,0.0335302734375,-0.0311352539063,10.0638720703,0.1,0.0,0.0,0.0,0.1,0.0,0.0,0.0,0.1
1446038733575573625,168,1446038733572423934,robocape,29.7564145351,1.80356365646,0.125446353817,0.0,10.0,0.0,0.0,0.0,10.0,0.0,0.0,0.0,10.0,0.00226368692657,0.0199737081756,0.00732369299772,1.0,0.0,0.0,0.0,1.0,0.0,0.0,0.0,1.0,0.0347277832031,-0.0131726074219,10.0471069336,0.1,0.0,0.0,0.0,0.1,0.0,0.0,0.0,0.1
1446038733600661792,169,1446038733597796916,robocape,29.8251114363,1.83336514606,0.157701697779,0.0,10.0,0.0,0.0,0.0,10.0,0.0,0.0,0.0,10.0,-0.00279631914458,0.0195742340121,0.00732369299772,1.0,0.0,0.0,0.0,1.0,0.0,0.0,0.0,1.0,0.0407153320313,-0.0443078613281,10.0578845215,0.1,0.0,0.0,0.0,0.1,0.0,0.0,0.0,0.1
1446038733634165792,170,1446038733631047010,robocape,29.8922375064,1.86398686445,0.19025277566,0.0,10.0,0.0,0.0,0.0,10.0,0.0,0.0,0.0,10.0,-0.00386158358061,0.0199737081756,0.00719053494321,1.0,0.0,0.0,0.0,1.0,0.0,0.0,0.0,1.0,0.0323327636719,-0.0946032714844,10.0483044434,0.1,0.0,0.0,0.0,0.1,0.0,0.0,0.0,0.1
1446038733667304917,171,1446038733664396047,robocape,29.9694868593,1.89496270106,0.224318703567,0.0,10.0,0.0,0.0,0.0,10.0,0.0,0.0,0.0,10.0,0.00159789665405,0.0205063403936,0.00772316716123,1.0,0.0,0.0,0.0,1.0,0.0,0.0,0.0,1.0,0.0407153320313,-0.125738525391,10.0375268555,0.1,0.0,0.0,0.0,0.1,0.0,0.0,0.0,0.1
1446038733700844042,172,1446038733697802066,robocape,30.059438213,1.92789405241,0.25760252164,0.0,10.0,0.0,0.0,0.0,10.0,0.0,0.0,0.0,10.0,0.00852211548825,0.0211721306661,0.0067910607797,1.0,0.0,0.0,0.0,1.0,0.0,0.0,0.0,1.0,0.0467028808594,-0.138911132813,10.0650695801,0.1,0.0,0.0,0.0,0.1,0.0,0.0,0.0,0.1
1446038733734076584,173,1446038733731071949,robocape,30.1595386851,1.96174909682,0.290397654628,0.0,10.0,0.0,0.0,0.0,10.0,0.0,0.0,0.0,10.0,0.0139815957229,0.0214384467751,0.00625842856169,1.0,0.0,0.0,0.0,1.0,0.0,0.0,0.0,1.0,0.0359252929688,-0.0850231933594,10.0447119141,0.1,0.0,0.0,0.0,0.1,0.0,0.0,0.0,0.1
1446038733767552292,174,1446038733764540910,robocape,30.2596463924,1.9951455958,0.32366660047,0.0,10.0,0.0,0.0,0.0,10.0,0.0,0.0,0.0,10.0,0.0137152796139,0.0213052887206,0.00652474467069,1.0,0.0,0.0,0.0,1.0,0.0,0.0,0.0,1.0,0.0263452148438,-0.0538879394531,10.0542919922,0.1,0.0,0.0,0.0,0.1,0.0,0.0,0.0,0.1
1446038733807872792,175,1446038733804727077,robocape,30.3521794565,2.0259350495,0.357623532897,0.0,10.0,0.0,0.0,0.0,10.0,0.0,0.0,0.0,10.0,0.00918790576077,0.0202400242846,0.00745685105222,1.0,0.0,0.0,0.0,1.0,0.0,0.0,0.0,1.0,0.0395178222656,-0.0299377441406,10.0327368164,0.1,0.0,0.0,0.0,0.1,0.0,0.0,0.0,0.1
1446038733834228084,176,1446038733831213951,robocape,30.4337667606,2.05723092645,0.39201455893,0.0,10.0,0.0,0.0,0.0,10.0,0.0,0.0,0.0,10.0,0.00279631914458,0.0205063403936,0.00745685105222,1.0,0.0,0.0,0.0,1.0,0.0,0.0,0.0,1.0,0.0371228027344,-0.0239501953125,10.0363293457,0.1,0.0,0.0,0.0,0.1,0.0,0.0,0.0,0.1
1446038733867620209,177,1446038733864552021,robocape,30.5074201771,2.08818471097,0.425746411529,0.0,10.0,0.0,0.0,0.0,10.0,0.0,0.0,0.0,10.0,-0.00186421276306,0.0201068662301,0.00719053494321,1.0,0.0,0.0,0.0,1.0,0.0,0.0,0.0,1.0,0.0419128417969,-0.0562829589844,10.0483044434,0.1,0.0,0.0,0.0,0.1,0.0,0.0,0.0,0.1
1446038733900967459,178,1446038733897815942,robocape,30.5828718445,2.11845475741,0.459801190145,0.0,10.0,0.0,0.0,0.0,10.0,0.0,0.0,0.0,10.0,-0.00106526443603,0.0198405501211,0.00745685105222,1.0,0.0,0.0,0.0,1.0,0.0,0.0,0.0,1.0,0.0383203125,-0.0993933105469,10.0459094238,0.1,0.0,0.0,0.0,0.1,0.0,0.0,0.0,0.1
1446038733934140459,179,1446038733931199073,robocape,30.6672146511,2.14930857222,0.493454286509,0.0,10.0,0.0,0.0,0.0,10.0,0.0,0.0,0.0,10.0,0.00372842552611,0.0199737081756,0.00705737688871,1.0,0.0,0.0,0.0,1.0,0.0,0.0,0.0,1.0,0.0371228027344,-0.119750976563,10.0495019531,0.1,0.0,0.0,0.0,0.1,0.0,0.0,0.0,0.1
1446038733967543876,180,1446038733964443922,robocape,30.7616884303,2.18183388583,0.52735909301,0.0,10.0,0.0,0.0,0.0,10.0,0.0,0.0,0.0,10.0,0.00918790576077,0.0207726565026,0.0066579027252,1.0,0.0,0.0,0.0,1.0,0.0,0.0,0.0,1.0,0.0431103515625,-0.118553466797,10.0459094238,0.1,0.0,0.0,0.0,0.1,0.0,0.0,0.0,0.1
1446038734001155959,181,1446038733998029947,robocape,30.8611810835,2.21514196207,0.563074250262,0.0,10.0,0.0,0.0,0.0,10.0,0.0,0.0,0.0,10.0,0.0117179087963,0.0215716048296,0.00719053494321,1.0,0.0,0.0,0.0,1.0,0.0,0.0,0.0,1.0,0.0359252929688,-0.0850231933594,10.0447119141,0.1,0.0,0.0,0.0,0.1,0.0,0.0,0.0,0.1
1446038734034021834,182,1446038734031079053,robocape,30.9587760609,2.24759921095,0.598442575204,0.0,10.0,0.0,0.0,0.0,10.0,0.0,0.0,0.0,10.0,0.0103863282513,0.0210389726116,0.00719053494321,1.0,0.0,0.0,0.0,1.0,0.0,0.0,0.0,1.0,0.0431103515625,-0.0538879394531,10.0411193848,0.1,0.0,0.0,0.0,0.1,0.0,0.0,0.0,0.1
1446038734067587209,183,1446038734064460039,robocape,31.0468890526,2.27902940326,0.633349328006,0.0,10.0,0.0,0.0,0.0,10.0,0.0,0.0,0.0,10.0,0.00479368996214,0.0203731823391,0.00719053494321,1.0,0.0,0.0,0.0,1.0,0.0,0.0,0.0,1.0,0.0359252929688,-0.028740234375,10.0303417969,0.1,0.0,0.0,0.0,0.1,0.0,0.0,0.0,0.1
1446038734103696167,184,1446038734100285053,robocape,31.1276051311,2.30955784139,0.667561970053,0.0,10.0,0.0,0.0,0.0,10.0,0.0,0.0,0.0,10.0,0.000399474163512,0.0197073920666,0.00705737688871,1.0,0.0,0.0,0.0,1.0,0.0,0.0,0.0,1.0,0.0431103515625,-0.0502954101563,10.0327368164,0.1,0.0,0.0,0.0,0.1,0.0,0.0,0.0,0.1
1446038734134088084,185,1446038734131149053,robocape,31.2066537185,2.33932465512,0.703244635284,0.0,10.0,0.0,0.0,0.0,10.0,0.0,0.0,0.0,10.0,-0.000798948327024,0.0197073920666,0.00785632521573,1.0,0.0,0.0,0.0,1.0,0.0,0.0,0.0,1.0,0.0371228027344,-0.0886157226563,10.0231567383,0.1,0.0,0.0,0.0,0.1,0.0,0.0,0.0,0.1
1446038734167592709,186,1446038734164442062,robocape,31.2893742122,2.37053445472,0.738160502179,0.0,10.0,0.0,0.0,0.0,10.0,0.0,0.0,0.0,10.0,0.00106526443603,0.0201068662301,0.00705737688871,1.0,0.0,0.0,0.0,1.0,0.0,0.0,0.0,1.0,0.0347277832031,-0.112565917969,10.0578845215,0.1,0.0,0.0,0.0,0.1,0.0,0.0,0.0,0.1
1446038734200958959,187,1446038734197792053,robocape,31.3810369926,2.40236712582,0.773605705675,0.0,10.0,0.0,0.0,0.0,10.0,0.0,0.0,0.0,10.0,0.00585895439817,0.0205063403936,0.00705737688871,1.0,0.0,0.0,0.0,1.0,0.0,0.0,0.0,1.0,0.0383203125,-0.125738525391,10.0566870117,0.1,0.0,0.0,0.0,0.1,0.0,0.0,0.0,0.1
1446038734234092126,188,1446038734231076955,robocape,31.4795184359,2.43479382312,0.808676118066,0.0,10.0,0.0,0.0,0.0,10.0,0.0,0.0,0.0,10.0,0.00945422186978,0.0206394984481,0.0066579027252,1.0,0.0,0.0,0.0,1.0,0.0,0.0,0.0,1.0,0.0395178222656,-0.106578369141,10.0387243652,0.1,0.0,0.0,0.0,0.1,0.0,0.0,0.0,0.1
1446038734267498209,189,1446038734264328002,robocape,31.5792073189,2.46801499666,0.844098181043,0.0,10.0,0.0,0.0,0.0,10.0,0.0,0.0,0.0,10.0,0.00985369603329,0.0210389726116,0.00652474467069,1.0,0.0,0.0,0.0,1.0,0.0,0.0,0.0,1.0,0.0443078613281,-0.0730480957031,10.0518969727,0.1,0.0,0.0,0.0,0.1,0.0,0.0,0.0,0.1
1446038734301274001,190,1446038734298017978,robocape,31.6758894982,2.49973525218,0.880260146286,0.0,10.0,0.0,0.0,0.0,10.0,0.0,0.0,0.0,10.0,0.00785632521573,0.0205063403936,0.00719053494321,1.0,0.0,0.0,0.0,1.0,0.0,0.0,0.0,1.0,0.0455053710938,-0.0538879394531,10.0291442871,0.1,0.0,0.0,0.0,0.1,0.0,0.0,0.0,0.1
1446038734334419834,191,1446038734331389904,robocape,31.7657846762,2.53075713876,0.917356825695,0.0,10.0,0.0,0.0,0.0,10.0,0.0,0.0,0.0,10.0,0.00372842552611,0.0203731823391,0.00772316716123,1.0,0.0,0.0,0.0,1.0,0.0,0.0,0.0,1.0,0.0227526855469,-0.0443078613281,10.0255517578,0.1,0.0,0.0,0.0,0.1,0.0,0.0,0.0,0.1
1446038734367620417,192,1446038734364459037,robocape,31.8504575507,2.56165980001,0.95394405625,0.0,10.0,0.0,0.0,0.0,10.0,0.0,0.0,0.0,10.0,0.000532632218016,0.0201068662301,0.00745685105222,1.0,0.0,0.0,0.0,1.0,0.0,0.0,0.0,1.0,0.0335302734375,-0.0646655273438,10.0351318359,0.1,0.0,0.0,0.0,0.1,0.0,0.0,0.0,0.1
1446038734400870876,193,1446038734397722005,robocape,31.9369918361,2.59278501123,0.990828037708,0.0,10.0,0.0,0.0,0.0,10.0,0.0,0.0,0.0,10.0,0.00133158054504,0.0202400242846,0.00745685105222,1.0,0.0,0.0,0.0,1.0,0.0,0.0,0.0,1.0,0.0371228027344,-0.0922082519531,10.0447119141,0.1,0.0,0.0,0.0,0.1,0.0,0.0,0.0,0.1
1446038734434083001,194,1446038734431150913,robocape,32.0274407019,2.62519911094,1.02627121134,0.0,10.0,0.0,0.0,0.0,10.0,0.0,0.0,0.0,10.0,0.0033289513626,0.0203731823391,0.00639158661619,1.0,0.0,0.0,0.0,1.0,0.0,0.0,0.0,1.0,0.0323327636719,-0.0946032714844,10.0171691895,0.1,0.0,0.0,0.0,0.1,0.0,0.0,0.0,0.1
1446038734467443793,195,1446038734464370965,robocape,32.1266583866,2.6571198809,1.06306845922,0.0,10.0,0.0,0.0,0.0,10.0,0.0,0.0,0.0,10.0,0.00798948327024,0.0205063403936,0.00705737688871,1.0,0.0,0.0,0.0,1.0,0.0,0.0,0.0,1.0,0.0299377441406,-0.104183349609,10.0207617188,0.1,0.0,0.0,0.0,0.1,0.0,0.0,0.0,0.1
1446038734500940709,196,1446038734497853994,robocape,32.2291908891,2.6896565149,1.09952118698,0.0,10.0,0.0,0.0,0.0,10.0,0.0,0.0,0.0,10.0,0.00958737992429,0.0206394984481,0.0066579027252,1.0,0.0,0.0,0.0,1.0,0.0,0.0,0.0,1.0,0.0395178222656,-0.0838256835938,10.0471069336,0.1,0.0,0.0,0.0,0.1,0.0,0.0,0.0,0.1
1446038734534126293,197,1446038734531176090,robocape,32.3296728862,2.72300385723,1.13636192335,0.0,10.0,0.0,0.0,0.0,10.0,0.0,0.0,0.0,10.0,0.00812264132474,0.0210389726116,0.00652474467069,1.0,0.0,0.0,0.0,1.0,0.0,0.0,0.0,1.0,0.047900390625,-0.0562829589844,10.0279467773,0.1,0.0,0.0,0.0,0.1,0.0,0.0,0.0,0.1
1446038734567623459,198,1446038734564512968,robocape,32.4273917907,2.75468600825,1.17323136765,0.0,10.0,0.0,0.0,0.0,10.0,0.0,0.0,0.0,10.0,0.00625842856169,0.0202400242846,0.00692421883421,1.0,0.0,0.0,0.0,1.0,0.0,0.0,0.0,1.0,0.0347277832031,-0.0502954101563,10.039921875,0.1,0.0,0.0,0.0,0.1,0.0,0.0,0.0,0.1
1446038734600920459,199,1446038734597839117,robocape,32.5188309834,2.78671745096,1.21080438019,0.0,10.0,0.0,0.0,0.0,10.0,0.0,0.0,0.0,10.0,0.00239684498107,0.0205063403936,0.00705737688871,1.0,0.0,0.0,0.0,1.0,0.0,0.0,0.0,1.0,0.0383203125,-0.0646655273438,10.0315393066,0.1,0.0,0.0,0.0,0.1,0.0,0.0,0.0,0.1
1446038734634022584,200,1446038734631072998,robocape,32.6079315113,2.81835259898,1.248298388,0.0,10.0,0.0,0.0,0.0,10.0,0.0,0.0,0.0,10.0,0.000798948327024,0.0202400242846,0.00705737688871,1.0,0.0,0.0,0.0,1.0,0.0,0.0,0.0,1.0,0.0395178222656,-0.0898132324219,10.0159716797,0.1,0.0,0.0,0.0,0.1,0.0,0.0,0.0,0.1
1446038734667917501,201,1446038734664716958,robocape,32.7010257177,2.84898393161,1.28561872842,0.0,10.0,0.0,0.0,0.0,10.0,0.0,0.0,0.0,10.0,0.00279631914458,0.0197073920666,0.00719053494321,1.0,0.0,0.0,0.0,1.0,0.0,0.0,0.0,1.0,0.0419128417969,-0.0922082519531,10.0518969727,0.1,0.0,0.0,0.0,0.1,0.0,0.0,0.0,0.1
1446038734700960543,202,1446038734697807073,robocape,32.8004979344,2.88058246294,1.32342537254,0.0,10.0,0.0,0.0,0.0,10.0,0.0,0.0,0.0,10.0,0.00612527050718,0.0202400242846,0.00705737688871,1.0,0.0,0.0,0.0,1.0,0.0,0.0,0.0,1.0,0.0323327636719,-0.0910107421875,10.0327368164,0.1,0.0,0.0,0.0,0.1,0.0,0.0,0.0,0.1
1446038734734300126,203,1446038734731280088,robocape,32.9040117525,2.91287185824,1.36124857768,0.0,10.0,0.0,0.0,0.0,10.0,0.0,0.0,0.0,10.0,0.00812264132474,0.0205063403936,0.0067910607797,1.0,0.0,0.0,0.0,1.0,0.0,0.0,0.0,1.0,0.0311352539063,-0.0934057617188,10.0375268555,0.1,0.0,0.0,0.0,0.1,0.0,0.0,0.0,0.1
1446038734767655334,204,1446038734764487028,robocape,33.0089981198,2.94487611663,1.39876746597,0.0,10.0,0.0,0.0,0.0,10.0,0.0,0.0,0.0,10.0,0.00865527354276,0.0202400242846,0.0066579027252,1.0,0.0,0.0,0.0,1.0,0.0,0.0,0.0,1.0,0.0383203125,-0.0610729980469,10.0506994629,0.1,0.0,0.0,0.0,0.1,0.0,0.0,0.0,0.1
1446038734807541043,205,1446038734804173946,robocape,33.1119877722,2.97698258971,1.43684688104,0.0,10.0,0.0,0.0,0.0,10.0,0.0,0.0,0.0,10.0,0.00719053494321,0.0203731823391,0.0067910607797,1.0,0.0,0.0,0.0,1.0,0.0,0.0,0.0,1.0,0.0311352539063,-0.0538879394531,10.0411193848,0.1,0.0,0.0,0.0,0.1,0.0,0.0,0.0,0.1
1446038734834341501,206,1446038734831348896,robocape,33.210661371,3.00800967201,1.47593887567,0.0,10.0,0.0,0.0,0.0,10.0,0.0,0.0,0.0,10.0,0.00439421579863,0.0201068662301,0.00745685105222,1.0,0.0,0.0,0.0,1.0,0.0,0.0,0.0,1.0,0.0251477050781,-0.0634680175781,10.0351318359,0.1,0.0,0.0,0.0,0.1,0.0,0.0,0.0,0.1
1446038734867820168,207,1446038734864758968,robocape,33.3058533282,3.03849988971,1.51426101921,0.0,10.0,0.0,0.0,0.0,10.0,0.0,0.0,0.0,10.0,0.00213052887206,0.0195742340121,0.00719053494321,1.0,0.0,0.0,0.0,1.0,0.0,0.0,0.0,1.0,0.0347277832031,-0.067060546875,10.0099841309,0.1,0.0,0.0,0.0,0.1,0.0,0.0,0.0,0.1
1446038734900957626,208,1446038734898021936,robocape,33.4032529155,3.06842755585,1.55361448115,0.0,10.0,0.0,0.0,0.0,10.0,0.0,0.0,0.0,10.0,0.00306263525359,0.0195742340121,0.00772316716123,1.0,0.0,0.0,0.0,1.0,0.0,0.0,0.0,1.0,0.0311352539063,-0.0778381347656,10.0219592285,0.1,0.0,0.0,0.0,0.1,0.0,0.0,0.0,0.1
1446038734934240584,209,1446038734931180000,robocape,33.5025504101,3.10004420753,1.59243510031,0.0,10.0,0.0,0.0,0.0,10.0,0.0,0.0,0.0,10.0,0.00386158358061,0.0201068662301,0.00692421883421,1.0,0.0,0.0,0.0,1.0,0.0,0.0,0.0,1.0,0.0275427246094,-0.100590820313,10.0363293457,0.1,0.0,0.0,0.0,0.1,0.0,0.0,0.0,0.1
1446038734967780084,210,1446038734964545965,robocape,33.6066344505,3.13270227387,1.63212995106,0.0,10.0,0.0,0.0,0.0,10.0,0.0,0.0,0.0,10.0,0.00625842856169,0.0207726565026,0.00692421883421,1.0,0.0,0.0,0.0,1.0,0.0,0.0,0.0,1.0,0.0526904296875,-0.086220703125,10.0590820312,0.1,0.0,0.0,0.0,0.1,0.0,0.0,0.0,0.1
1446038735000979043,211,1446038734997879028,robocape,33.7143730292,3.16513488371,1.67278876156,0.0,10.0,0.0,0.0,0.0,10.0,0.0,0.0,0.0,10.0,0.00798948327024,0.0209058145571,0.00732369299772,1.0,0.0,0.0,0.0,1.0,0.0,0.0,0.0,1.0,0.0431103515625,-0.0778381347656,10.0518969727,0.1,0.0,0.0,0.0,0.1,0.0,0.0,0.0,0.1
1446038735034148376,212,1446038735031054973,robocape,33.8224433486,3.19686821643,1.71287992757,0.0,10.0,0.0,0.0,0.0,10.0,0.0,0.0,0.0,10.0,0.00785632521573,0.0203731823391,0.00719053494321,1.0,0.0,0.0,0.0,1.0,0.0,0.0,0.0,1.0,0.0407153320313,-0.0658630371094,10.0411193848,0.1,0.0,0.0,0.0,0.1,0.0,0.0,0.0,0.1
1446038735067560626,213,1446038735064467906,robocape,33.9259660955,3.22800989777,1.75278822838,0.0,10.0,0.0,0.0,0.0,10.0,0.0,0.0,0.0,10.0,0.00492684801665,0.0199737081756,0.00719053494321,1.0,0.0,0.0,0.0,1.0,0.0,0.0,0.0,1.0,0.0395178222656,-0.0718505859375,10.0447119141,0.1,0.0,0.0,0.0,0.1,0.0,0.0,0.0,0.1
1446038735101124918,214,1446038735097959995,robocape,34.0279679859,3.26009241383,1.79291996923,0.0,10.0,0.0,0.0,0.0,10.0,0.0,0.0,0.0,10.0,0.00372842552611,0.0203731823391,0.00692421883421,1.0,0.0,0.0,0.0,1.0,0.0,0.0,0.0,1.0,0.0502954101563,-0.0694555664063,10.0339343262,0.1,0.0,0.0,0.0,0.1,0.0,0.0,0.0,0.1
1446038735134468460,215,1446038735131304025,robocape,34.1296461668,3.29155143645,1.83375765216,0.0,10.0,0.0,0.0,0.0,10.0,0.0,0.0,0.0,10.0,0.0031957933081,0.0202400242846,0.00732369299772,1.0,0.0,0.0,0.0,1.0,0.0,0.0,0.0,1.0,0.0359252929688,-0.0910107421875,10.0650695801,0.1,0.0,0.0,0.0,0.1,0.0,0.0,0.0,0.1
1446038735167297293,216,1446038735164398908,robocape,34.2334543613,3.32344239694,1.87323765295,0.0,10.0,0.0,0.0,0.0,10.0,0.0,0.0,0.0,10.0,0.00412789968962,0.0199737081756,0.00652474467069,1.0,0.0,0.0,0.0,1.0,0.0,0.0,0.0,1.0,0.0395178222656,-0.0969982910156,10.0303417969,0.1,0.0,0.0,0.0,0.1,0.0,0.0,0.0,0.1
1446038735200912960,217,1446038735197729110,robocape,34.3397310244,3.35575013717,1.91319915149,0.0,10.0,0.0,0.0,0.0,10.0,0.0,0.0,0.0,10.0,0.00519316412565,0.0202400242846,0.00652474467069,1.0,0.0,0.0,0.0,1.0,0.0,0.0,0.0,1.0,0.0323327636719,-0.09580078125,10.0483044434,0.1,0.0,0.0,0.0,0.1,0.0,0.0,0.0,0.1
1446038735234771626,218,1446038735231628894,robocape,34.4485319685,3.38768646204,1.95434633592,0.0,10.0,0.0,0.0,0.0,10.0,0.0,0.0,0.0,10.0,0.00625842856169,0.0203731823391,0.00705737688871,1.0,0.0,0.0,0.0,1.0,0.0,0.0,0.0,1.0,0.0455053710938,-0.0910107421875,10.0327368164,0.1,0.0,0.0,0.0,0.1,0.0,0.0,0.0,0.1
1446038735267357793,219,1446038735264377117,robocape,34.5609764486,3.42108623259,1.99577839419,0.0,10.0,0.0,0.0,0.0,10.0,0.0,0.0,0.0,10.0,0.00798948327024,0.0210389726116,0.0066579027252,1.0,0.0,0.0,0.0,1.0,0.0,0.0,0.0,1.0,0.0514929199219,-0.067060546875,10.024354248,0.1,0.0,0.0,0.0,0.1,0.0,0.0,0.0,0.1
1446038735301287501,220,1446038735298063039,robocape,34.6719875535,3.45267130605,2.03742476896,0.0,10.0,0.0,0.0,0.0,10.0,0.0,0.0,0.0,10.0,0.0067910607797,0.0202400242846,0.00719053494321,1.0,0.0,0.0,0.0,1.0,0.0,0.0,0.0,1.0,0.0371228027344,-0.0754431152344,10.060279541,0.1,0.0,0.0,0.0,0.1,0.0,0.0,0.0,0.1
1446038735335258251,221,1446038735332228899,robocape,34.7803653111,3.48457514279,2.07890011797,0.0,10.0,0.0,0.0,0.0,10.0,0.0,0.0,0.0,10.0,0.00492684801665,0.0202400242846,0.00692421883421,1.0,0.0,0.0,0.0,1.0,0.0,0.0,0.0,1.0,0.0514929199219,-0.0730480957031,10.0267492676,0.1,0.0,0.0,0.0,0.1,0.0,0.0,0.0,0.1
1446038735367299668,222,1446038735364321947,robocape,34.8861433828,3.51544605495,2.12081668418,0.0,10.0,0.0,0.0,0.0,10.0,0.0,0.0,0.0,10.0,0.00306263525359,0.0198405501211,0.00732369299772,1.0,0.0,0.0,0.0,1.0,0.0,0.0,0.0,1.0,0.0323327636719,-0.076640625,10.0339343262,0.1,0.0,0.0,0.0,0.1,0.0,0.0,0.0,0.1
1446038735401254168,223,1446038735398082017,robocape,34.9936981876,3.54666506215,2.16287956033,0.0,10.0,0.0,0.0,0.0,10.0,0.0,0.0,0.0,10.0,0.00372842552611,0.0199737081756,0.00719053494321,1.0,0.0,0.0,0.0,1.0,0.0,0.0,0.0,1.0,0.0443078613281,-0.0934057617188,10.0159716797,0.1,0.0,0.0,0.0,0.1,0.0,0.0,0.0,0.1
1446038735435179918,224,1446038735432123899,robocape,35.1030428417,3.57935946768,2.20526041593,0.0,10.0,0.0,0.0,0.0,10.0,0.0,0.0,0.0,10.0,0.00439421579863,0.0206394984481,0.0067910607797,1.0,0.0,0.0,0.0,1.0,0.0,0.0,0.0,1.0,0.047900390625,-0.0922082519531,10.0435144043,0.1,0.0,0.0,0.0,0.1,0.0,0.0,0.0,0.1
1446038735467375126,225,1446038735464488983,robocape,35.2153955825,3.6106806122,2.24845418836,0.0,10.0,0.0,0.0,0.0,10.0,0.0,0.0,0.0,10.0,0.00572579634367,0.0202400242846,0.00745685105222,1.0,0.0,0.0,0.0,1.0,0.0,0.0,0.0,1.0,0.0419128417969,-0.09580078125,10.039921875,0.1,0.0,0.0,0.0,0.1,0.0,0.0,0.0,0.1
1446038735501169335,226,1446038735498022079,robocape,35.3313300657,3.64167140599,2.29007258871,0.0,10.0,0.0,0.0,0.0,10.0,0.0,0.0,0.0,10.0,0.00745685105222,0.0195742340121,0.0067910607797,1.0,0.0,0.0,0.0,1.0,0.0,0.0,0.0,1.0,0.0443078613281,-0.0658630371094,10.0339343262,0.1,0.0,0.0,0.0,0.1,0.0,0.0,0.0,0.1
1446038735535436210,227,1446038735532340049,robocape,35.4463713625,3.67392255864,2.33282223769,0.0,10.0,0.0,0.0,0.0,10.0,0.0,0.0,0.0,10.0,0.00652474467069,0.0203731823391,0.0067910607797,1.0,0.0,0.0,0.0,1.0,0.0,0.0,0.0,1.0,0.0383203125,-0.0694555664063,10.0327368164,0.1,0.0,0.0,0.0,0.1,0.0,0.0,0.0,0.1
1446038735567429501,228,1446038735564440965,robocape,35.5602935189,3.70539128977,2.3765105761,0.0,10.0,0.0,0.0,0.0,10.0,0.0,0.0,0.0,10.0,0.00545948023466,0.0202400242846,0.00732369299772,1.0,0.0,0.0,0.0,1.0,0.0,0.0,0.0,1.0,0.0347277832031,-0.0694555664063,10.0291442871,0.1,0.0,0.0,0.0,0.1,0.0,0.0,0.0,0.1
1446038735600962376,229,1446038735597827911,robocape,35.6732255209,3.73725918624,2.41947364143,0.0,10.0,0.0,0.0,0.0,10.0,0.0,0.0,0.0,10.0,0.00452737385313,0.0201068662301,0.0067910607797,1.0,0.0,0.0,0.0,1.0,0.0,0.0,0.0,1.0,0.0538879394531,-0.0814306640625,10.0506994629,0.1,0.0,0.0,0.0,0.1,0.0,0.0,0.0,0.1
1446038735634629335,230,1446038735631432056,robocape,35.786131887,3.77076508337,2.46259674455,0.0,10.0,0.0,0.0,0.0,10.0,0.0,0.0,0.0,10.0,0.00412789968962,0.0207726565026,0.00625842856169,1.0,0.0,0.0,0.0,1.0,0.0,0.0,0.0,1.0,0.0335302734375,-0.0898132324219,10.039921875,0.1,0.0,0.0,0.0,0.1,0.0,0.0,0.0,0.1
1446038735667347085,231,1446038735664447069,robocape,35.9008674397,3.80385452818,2.50565367665,0.0,10.0,0.0,0.0,0.0,10.0,0.0,0.0,0.0,10.0,0.00479368996214,0.0205063403936,0.00625842856169,1.0,0.0,0.0,0.0,1.0,0.0,0.0,0.0,1.0,0.0395178222656,-0.0838256835938,10.039921875,0.1,0.0,0.0,0.0,0.1,0.0,0.0,0.0,0.1
1446038735701218376,232,1446038735698019027,robocape,36.0188938532,3.83632739439,2.54975675099,0.0,10.0,0.0,0.0,0.0,10.0,0.0,0.0,0.0,10.0,0.00625842856169,0.0205063403936,0.0067910607797,1.0,0.0,0.0,0.0,1.0,0.0,0.0,0.0,1.0,0.0347277832031,-0.0850231933594,10.0303417969,0.1,0.0,0.0,0.0,0.1,0.0,0.0,0.0,0.1
1446038735734885960,233,1446038735731669902,robocape,36.1381095001,3.86843928739,2.59416103759,0.0,10.0,0.0,0.0,0.0,10.0,0.0,0.0,0.0,10.0,0.00652474467069,0.0203731823391,0.00692421883421,1.0,0.0,0.0,0.0,1.0,0.0,0.0,0.0,1.0,0.0359252929688,-0.0790356445313,10.0123791504,0.1,0.0,0.0,0.0,0.1,0.0,0.0,0.0,0.1
1446038735767592376,234,1446038735764611959,robocape,36.2587440228,3.90146019022,2.63884908333,0.0,10.0,0.0,0.0,0.0,10.0,0.0,0.0,0.0,10.0,0.00692421883421,0.0207726565026,0.0066579027252,1.0,0.0,0.0,0.0,1.0,0.0,0.0,0.0,1.0,0.0407153320313,-0.0778381347656,10.0530944824,0.1,0.0,0.0,0.0,0.1,0.0,0.0,0.0,0.1
1446038735807128002,235,1446038735803957939,robocape,36.3785099998,3.93393293449,2.68371616259,0.0,10.0,0.0,0.0,0.0,10.0,0.0,0.0,0.0,10.0,0.00599211245268,0.0205063403936,0.0067910607797,1.0,0.0,0.0,0.0,1.0,0.0,0.0,0.0,1.0,0.0311352539063,-0.0694555664063,10.0315393066,0.1,0.0,0.0,0.0,0.1,0.0,0.0,0.0,0.1
1446038735835755460,236,1446038735832500934,robocape,36.4965428887,3.9663817311,2.72978860842,0.0,10.0,0.0,0.0,0.0,10.0,0.0,0.0,0.0,10.0,0.00452737385313,0.0207726565026,0.00719053494321,1.0,0.0,0.0,0.0,1.0,0.0,0.0,0.0,1.0,0.0395178222656,-0.0610729980469,10.0279467773,0.1,0.0,0.0,0.0,0.1,0.0,0.0,0.0,0.1
1446038735867309668,237,1446038735864336013,robocape,36.6144068727,3.99812125932,2.77623915606,0.0,10.0,0.0,0.0,0.0,10.0,0.0,0.0,0.0,10.0,0.00399474163512,0.0205063403936,0.00745685105222,1.0,0.0,0.0,0.0,1.0,0.0,0.0,0.0,1.0,0.0311352539063,-0.0814306640625,10.0387243652,0.1,0.0,0.0,0.0,0.1,0.0,0.0,0.0,0.1
1446038735901403543,238,1446038735898190975,robocape,36.7334454787,4.03015409678,2.82253555373,0.0,10.0,0.0,0.0,0.0,10.0,0.0,0.0,0.0,10.0,0.00426105774413,0.0205063403936,0.00719053494321,1.0,0.0,0.0,0.0,1.0,0.0,0.0,0.0,1.0,0.0359252929688,-0.0826281738281,10.0207617188,0.1,0.0,0.0,0.0,0.1,0.0,0.0,0.0,0.1
1446038735934820418,239,1446038735931680917,robocape,36.8551823046,4.0635369809,2.86722941062,0.0,10.0,0.0,0.0,0.0,10.0,0.0,0.0,0.0,10.0,0.00545948023466,0.0205063403936,0.00599211245268,1.0,0.0,0.0,0.0,1.0,0.0,0.0,0.0,1.0,0.0323327636719,-0.0742456054688,10.0291442871,0.1,0.0,0.0,0.0,0.1,0.0,0.0,0.0,0.1
1446038735967410668,240,1446038735964483976,robocape,36.9789932587,4.09542835433,2.91457653461,0.0,10.0,0.0,0.0,0.0,10.0,0.0,0.0,0.0,10.0,0.00612527050718,0.0206394984481,0.00745685105222,1.0,0.0,0.0,0.0,1.0,0.0,0.0,0.0,1.0,0.0263452148438,-0.0838256835938,10.0411193848,0.1,0.0,0.0,0.0,0.1,0.0,0.0,0.0,0.1
1446038736001063960,241,1446038735997848033,robocape,37.1046694719,4.12806609329,2.96116193093,0.0,10.0,0.0,0.0,0.0,10.0,0.0,0.0,0.0,10.0,0.0067910607797,0.0206394984481,0.0067910607797,1.0,0.0,0.0,0.0,1.0,0.0,0.0,0.0,1.0,0.0275427246094,-0.0886157226563,10.0303417969,0.1,0.0,0.0,0.0,0.1,0.0,0.0,0.0,0.1
1446038736034561043,242,1446038736031456947,robocape,37.23137597,4.1606943736,3.00801972162,0.0,10.0,0.0,0.0,0.0,10.0,0.0,0.0,0.0,10.0,0.00692421883421,0.0206394984481,0.0067910607797,1.0,0.0,0.0,0.0,1.0,0.0,0.0,0.0,1.0,0.0455053710938,-0.0646655273438,10.0495019531,0.1,0.0,0.0,0.0,0.1,0.0,0.0,0.0,0.1
1446038736067318793,243,1446038736064420938,robocape,37.3554379054,4.1932998514,3.05484191478,0.0,10.0,0.0,0.0,0.0,10.0,0.0,0.0,0.0,10.0,0.00492684801665,0.0205063403936,0.0066579027252,1.0,0.0,0.0,0.0,1.0,0.0,0.0,0.0,1.0,0.0395178222656,-0.0802331542969,10.0339343262,0.1,0.0,0.0,0.0,0.1,0.0,0.0,0.0,0.1
1446038736101505085,244,1446038736098176956,robocape,37.4807864172,4.22558458116,3.10234205478,0.0,10.0,0.0,0.0,0.0,10.0,0.0,0.0,0.0,10.0,0.00519316412565,0.0205063403936,0.00692421883421,1.0,0.0,0.0,0.0,1.0,0.0,0.0,0.0,1.0,0.0383203125,-0.0778381347656,10.0578845215,0.1,0.0,0.0,0.0,0.1,0.0,0.0,0.0,0.1
1446038736134612668,245,1446038736131407022,robocape,37.6062002337,4.25681061617,3.14899738443,0.0,10.0,0.0,0.0,0.0,10.0,0.0,0.0,0.0,10.0,0.00479368996214,0.0197073920666,0.0067910607797,1.0,0.0,0.0,0.0,1.0,0.0,0.0,0.0,1.0,0.0371228027344,-0.0790356445313,10.0351318359,0.1,0.0,0.0,0.0,0.1,0.0,0.0,0.0,0.1
1446038736167369168,246,1446038736164454936,robocape,37.7334585428,4.28936469208,3.19792722017,0.0,10.0,0.0,0.0,0.0,10.0,0.0,0.0,0.0,10.0,0.00532632218016,0.0209058145571,0.00719053494321,1.0,0.0,0.0,0.0,1.0,0.0,0.0,0.0,1.0,0.0419128417969,-0.0910107421875,10.0435144043,0.1,0.0,0.0,0.0,0.1,0.0,0.0,0.0,0.1
1446038736201061085,247,1446038736197937011,robocape,37.8626094646,4.32135725437,3.24574477152,0.0,10.0,0.0,0.0,0.0,10.0,0.0,0.0,0.0,10.0,0.00599211245268,0.0202400242846,0.0067910607797,1.0,0.0,0.0,0.0,1.0,0.0,0.0,0.0,1.0,0.0359252929688,-0.0826281738281,10.0339343262,0.1,0.0,0.0,0.0,0.1,0.0,0.0,0.0,0.1
1446038736234855085,248,1446038736231647014,robocape,37.9928690952,4.35413930781,3.29447500079,0.0,10.0,0.0,0.0,0.0,10.0,0.0,0.0,0.0,10.0,0.00612527050718,0.0207726565026,0.0067910607797,1.0,0.0,0.0,0.0,1.0,0.0,0.0,0.0,1.0,0.0443078613281,-0.0682580566406,10.0303417969,0.1,0.0,0.0,0.0,0.1,0.0,0.0,0.0,0.1
1446038736267503168,249,1446038736264543056,robocape,38.1241834073,4.38610451628,3.34286957706,0.0,10.0,0.0,0.0,0.0,10.0,0.0,0.0,0.0,10.0,0.00625842856169,0.0202400242846,0.0067910607797,1.0,0.0,0.0,0.0,1.0,0.0,0.0,0.0,1.0,0.0431103515625,-0.0694555664063,10.0387243652,0.1,0.0,0.0,0.0,0.1,0.0,0.0,0.0,0.1
1446038736301177377,250,1446038736298062086,robocape,38.2552061755,4.41802520428,3.39121730966,0.0,10.0,0.0,0.0,0.0,10.0,0.0,0.0,0.0,10.0,0.00559263828917,0.0201068662301,0.0066579027252,1.0,0.0,0.0,0.0,1.0,0.0,0.0,0.0,1.0,0.0239501953125,-0.0742456054688,10.0459094238,0.1,0.0,0.0,0.0,0.1,0.0,0.0,0.0,0.1
1446038736334644585,251,1446038736331562042,robocape,38.3857817484,4.45002991049,3.44059912235,0.0,10.0,0.0,0.0,0.0,10.0,0.0,0.0,0.0,10.0,0.00479368996214,0.0203731823391,0.00692421883421,1.0,0.0,0.0,0.0,1.0,0.0,0.0,0.0,1.0,0.0359252929688,-0.067060546875,10.0279467773,0.1,0.0,0.0,0.0,0.1,0.0,0.0,0.0,0.1
1446038736367686335,252,1446038736364769935,robocape,38.5163552273,4.48226870528,3.4908133881,0.0,10.0,0.0,0.0,0.0,10.0,0.0,0.0,0.0,10.0,0.00426105774413,0.0206394984481,0.00705737688871,1.0,0.0,0.0,0.0,1.0,0.0,0.0,0.0,1.0,0.0383203125,-0.076640625,10.0423168945,0.1,0.0,0.0,0.0,0.1,0.0,0.0,0.0,0.1
1446038736400970960,253,1446038736397756099,robocape,38.6478448406,4.51381387567,3.54177459228,0.0,10.0,0.0,0.0,0.0,10.0,0.0,0.0,0.0,10.0,0.00426105774413,0.0205063403936,0.00745685105222,1.0,0.0,0.0,0.0,1.0,0.0,0.0,0.0,1.0,0.0419128417969,-0.0778381347656,10.0387243652,0.1,0.0,0.0,0.0,0.1,0.0,0.0,0.0,0.1
1446038736434683085,254,1446038736431580066,robocape,38.7817035269,4.54568264428,3.59134450746,0.0,10.0,0.0,0.0,0.0,10.0,0.0,0.0,0.0,10.0,0.00519316412565,0.0201068662301,0.0066579027252,1.0,0.0,0.0,0.0,1.0,0.0,0.0,0.0,1.0,0.0419128417969,-0.076640625,10.0435144043,0.1,0.0,0.0,0.0,0.1,0.0,0.0,0.0,0.1
1446038736467521960,255,1446038736464627981,robocape,38.9167485419,4.57816549402,3.64205911919,0.0,10.0,0.0,0.0,0.0,10.0,0.0,0.0,0.0,10.0,0.00532632218016,0.0206394984481,0.0067910607797,1.0,0.0,0.0,0.0,1.0,0.0,0.0,0.0,1.0,0.01916015625,-0.0814306640625,10.0207617188,0.1,0.0,0.0,0.0,0.1,0.0,0.0,0.0,0.1
1446038736501122377,256,1446038736497968912,robocape,39.0545047275,4.61148790234,3.69278691493,0.0,10.0,0.0,0.0,0.0,10.0,0.0,0.0,0.0,10.0,0.00639158661619,0.0209058145571,0.00639158661619,1.0,0.0,0.0,0.0,1.0,0.0,0.0,0.0,1.0,0.0395178222656,-0.0754431152344,10.0351318359,0.1,0.0,0.0,0.0,0.1,0.0,0.0,0.0,0.1
1446038736534691419,257,1446038736531511068,robocape,39.1922356828,4.64433465538,3.74281351748,0.0,10.0,0.0,0.0,0.0,10.0,0.0,0.0,0.0,10.0,0.00585895439817,0.0203731823391,0.00612527050718,1.0,0.0,0.0,0.0,1.0,0.0,0.0,0.0,1.0,0.047900390625,-0.076640625,10.0219592285,0.1,0.0,0.0,0.0,0.1,0.0,0.0,0.0,0.1
1446038736567311669,258,1446038736564419031,robocape,39.3294323086,4.67696643479,3.79466306121,0.0,10.0,0.0,0.0,0.0,10.0,0.0,0.0,0.0,10.0,0.00492684801665,0.0207726565026,0.0067910607797,1.0,0.0,0.0,0.0,1.0,0.0,0.0,0.0,1.0,0.0443078613281,-0.0730480957031,10.0459094238,0.1,0.0,0.0,0.0,0.1,0.0,0.0,0.0,0.1
1446038736600875585,259,1446038736597841024,robocape,39.4664663599,4.70942658782,3.84705833362,0.0,10.0,0.0,0.0,0.0,10.0,0.0,0.0,0.0,10.0,0.00426105774413,0.0207726565026,0.00692421883421,1.0,0.0,0.0,0.0,1.0,0.0,0.0,0.0,1.0,0.0299377441406,-0.067060546875,10.0459094238,0.1,0.0,0.0,0.0,0.1,0.0,0.0,0.0,0.1
1446038736634886294,260,1446038736631697893,robocape,39.6042582116,4.74098529199,3.90005640957,0.0,10.0,0.0,0.0,0.0,10.0,0.0,0.0,0.0,10.0,0.00412789968962,0.0205063403936,0.00732369299772,1.0,0.0,0.0,0.0,1.0,0.0,0.0,0.0,1.0,0.0359252929688,-0.0826281738281,10.0159716797,0.1,0.0,0.0,0.0,0.1,0.0,0.0,0.0,0.1
1446038736667551377,261,1446038736664572000,robocape,39.7440372811,4.77162029727,3.95163780083,0.0,10.0,0.0,0.0,0.0,10.0,0.0,0.0,0.0,10.0,0.00479368996214,0.0195742340121,0.00692421883421,1.0,0.0,0.0,0.0,1.0,0.0,0.0,0.0,1.0,0.0514929199219,-0.0778381347656,10.039921875,0.1,0.0,0.0,0.0,0.1,0.0,0.0,0.0,0.1
1446038736701072210,262,1446038736697701930,robocape,39.8850675012,4.80264925789,4.00423048972,0.0,10.0,0.0,0.0,0.0,10.0,0.0,0.0,0.0,10.0,0.00492684801665,0.0199737081756,0.00705737688871,1.0,0.0,0.0,0.0,1.0,0.0,0.0,0.0,1.0,0.0443078613281,-0.0969982910156,10.0387243652,0.1,0.0,0.0,0.0,0.1,0.0,0.0,0.0,0.1
1446038736734793627,263,1446038736731657981,robocape,40.0291791451,4.83479737993,4.05810588238,0.0,10.0,0.0,0.0,0.0,10.0,0.0,0.0,0.0,10.0,0.00612527050718,0.0207726565026,0.00705737688871,1.0,0.0,0.0,0.0,1.0,0.0,0.0,0.0,1.0,0.0299377441406,-0.0850231933594,10.0495019531,0.1,0.0,0.0,0.0,0.1,0.0,0.0,0.0,0.1
1446038736767538335,264,1446038736764552116,robocape,40.1758307989,4.86755394383,4.11151912026,0.0,10.0,0.0,0.0,0.0,10.0,0.0,0.0,0.0,10.0,0.00705737688871,0.0207726565026,0.00652474467069,1.0,0.0,0.0,0.0,1.0,0.0,0.0,0.0,1.0,0.0359252929688,-0.0826281738281,10.0231567383,0.1,0.0,0.0,0.0,0.1,0.0,0.0,0.0,0.1
1446038736806933669,265,1446038736803833007,robocape,40.322888178,4.89959968023,4.16571978001,0.0,10.0,0.0,0.0,0.0,10.0,0.0,0.0,0.0,10.0,0.0066579027252,0.0206394984481,0.00692421883421,1.0,0.0,0.0,0.0,1.0,0.0,0.0,0.0,1.0,0.0311352539063,-0.0706530761719,10.0327368164,0.1,0.0,0.0,0.0,0.1,0.0,0.0,0.0,0.1
1446038736834726127,266,1446038736831619977,robocape,40.4678196578,4.93142460969,4.21981126935,0.0,10.0,0.0,0.0,0.0,10.0,0.0,0.0,0.0,10.0,0.00479368996214,0.0203731823391,0.0067910607797,1.0,0.0,0.0,0.0,1.0,0.0,0.0,0.0,1.0,0.0299377441406,-0.0814306640625,10.0423168945,0.1,0.0,0.0,0.0,0.1,0.0,0.0,0.0,0.1
1446038736867672252,267,1446038736864761114,robocape,40.613563546,4.96393859139,4.27420600771,0.0,10.0,0.0,0.0,0.0,10.0,0.0,0.0,0.0,10.0,0.00466053190764,0.0206394984481,0.00652474467069,1.0,0.0,0.0,0.0,1.0,0.0,0.0,0.0,1.0,0.0443078613281,-0.0898132324219,10.0471069336,0.1,0.0,0.0,0.0,0.1,0.0,0.0,0.0,0.1
1446038736901623419,268,1446038736898447990,robocape,40.7612751968,4.99477989816,4.32889010512,0.0,10.0,0.0,0.0,0.0,10.0,0.0,0.0,0.0,10.0,0.00519316412565,0.0199737081756,0.00705737688871,1.0,0.0,0.0,0.0,1.0,0.0,0.0,0.0,1.0,0.0562829589844,-0.0886157226563,10.0674645996,0.1,0.0,0.0,0.0,0.1,0.0,0.0,0.0,0.1
1446038736934588377,269,1446038736931616067,robocape,40.9097488388,5.02658735213,4.38277860013,0.0,10.0,0.0,0.0,0.0,10.0,0.0,0.0,0.0,10.0,0.00506000607115,0.0199737081756,0.00625842856169,1.0,0.0,0.0,0.0,1.0,0.0,0.0,0.0,1.0,0.0347277832031,-0.0838256835938,10.0255517578,0.1,0.0,0.0,0.0,0.1,0.0,0.0,0.0,0.1
1446038736967564544,270,1446038736964648962,robocape,41.0603411639,5.05866822541,4.43898291442,0.0,10.0,0.0,0.0,0.0,10.0,0.0,0.0,0.0,10.0,0.00559263828917,0.0207726565026,0.00692421883421,1.0,0.0,0.0,0.0,1.0,0.0,0.0,0.0,1.0,0.0323327636719,-0.0814306640625,10.0267492676,0.1,0.0,0.0,0.0,0.1,0.0,0.0,0.0,0.1
1446038737001049210,271,1446038736997833013,robocape,41.2126588254,5.09010163619,4.49468735211,0.0,10.0,0.0,0.0,0.0,10.0,0.0,0.0,0.0,10.0,0.00599211245268,0.0202400242846,0.0067910607797,1.0,0.0,0.0,0.0,1.0,0.0,0.0,0.0,1.0,0.0419128417969,-0.0706530761719,10.0363293457,0.1,0.0,0.0,0.0,0.1,0.0,0.0,0.0,0.1
1446038737034509419,272,1446038737031542062,robocape,41.3665596143,5.12259075018,4.5510485029,0.0,10.0,0.0,0.0,0.0,10.0,0.0,0.0,0.0,10.0,0.00625842856169,0.0207726565026,0.00652474467069,1.0,0.0,0.0,0.0,1.0,0.0,0.0,0.0,1.0,0.0299377441406,-0.0646655273438,10.0435144043,0.1,0.0,0.0,0.0,0.1,0.0,0.0,0.0,0.1
1446038737067514835,273,1446038737064574956,robocape,41.5203165648,5.15418775869,4.60842355467,0.0,10.0,0.0,0.0,0.0,10.0,0.0,0.0,0.0,10.0,0.00545948023466,0.0206394984481,0.00705737688871,1.0,0.0,0.0,0.0,1.0,0.0,0.0,0.0,1.0,0.0443078613281,-0.0754431152344,10.0315393066,0.1,0.0,0.0,0.0,0.1,0.0,0.0,0.0,0.1
1446038737100895835,274,1446038737097661972,robocape,41.6742863235,5.18534662354,4.66550828489,0.0,10.0,0.0,0.0,0.0,10.0,0.0,0.0,0.0,10.0,0.00492684801665,0.0202400242846,0.00692421883421,1.0,0.0,0.0,0.0,1.0,0.0,0.0,0.0,1.0,0.0419128417969,-0.076640625,10.0387243652,0.1,0.0,0.0,0.0,0.1,0.0,0.0,0.0,0.1
1446038737134583127,275,1446038737131551027,robocape,41.8285943791,5.21506892085,4.72380755097,0.0,10.0,0.0,0.0,0.0,10.0,0.0,0.0,0.0,10.0,0.00439421579863,0.0199737081756,0.00772316716123,1.0,0.0,0.0,0.0,1.0,0.0,0.0,0.0,1.0,0.0419128417969,-0.0730480957031,10.0303417969,0.1,0.0,0.0,0.0,0.1,0.0,0.0,0.0,0.1
1446038737167550419,276,1446038737164510011,robocape,41.9857787526,5.2461164995,4.7816565193,0.0,10.0,0.0,0.0,0.0,10.0,0.0,0.0,0.0,10.0,0.00545948023466,0.0202400242846,0.00692421883421,1.0,0.0,0.0,0.0,1.0,0.0,0.0,0.0,1.0,0.047900390625,-0.0922082519531,10.0279467773,0.1,0.0,0.0,0.0,0.1,0.0,0.0,0.0,0.1
1446038737200975377,277,1446038737197731018,robocape,42.144380254,5.2780194725,4.84003288943,0.0,10.0,0.0,0.0,0.0,10.0,0.0,0.0,0.0,10.0,0.00559263828917,0.0206394984481,0.0066579027252,1.0,0.0,0.0,0.0,1.0,0.0,0.0,0.0,1.0,0.0347277832031,-0.0742456054688,10.0363293457,0.1,0.0,0.0,0.0,0.1,0.0,0.0,0.0,0.1
1446038737234498836,278,1446038737231475114,robocape,42.3042608172,5.30973377112,4.89972909467,0.0,10.0,0.0,0.0,0.0,10.0,0.0,0.0,0.0,10.0,0.00559263828917,0.0209058145571,0.00705737688871,1.0,0.0,0.0,0.0,1.0,0.0,0.0,0.0,1.0,0.0395178222656,-0.0922082519531,10.0530944824,0.1,0.0,0.0,0.0,0.1,0.0,0.0,0.0,0.1
1446038737267422586,279,1446038737264430999,robocape,42.4657521876,5.34207439036,4.95907553216,0.0,10.0,0.0,0.0,0.0,10.0,0.0,0.0,0.0,10.0,0.00585895439817,0.0209058145571,0.00652474467069,1.0,0.0,0.0,0.0,1.0,0.0,0.0,0.0,1.0,0.0275427246094,-0.0694555664063,10.0339343262,0.1,0.0,0.0,0.0,0.1,0.0,0.0,0.0,0.1
1446038737301268127,280,1446038737297995090,robocape,42.6285569348,5.37330993804,5.01961380194,0.0,10.0,0.0,0.0,0.0,10.0,0.0,0.0,0.0,10.0,0.00585895439817,0.0207726565026,0.00719053494321,1.0,0.0,0.0,0.0,1.0,0.0,0.0,0.0,1.0,0.0383203125,-0.0694555664063,10.0231567383,0.1,0.0,0.0,0.0,0.1,0.0,0.0,0.0,0.1
1446038737334445669,281,1446038737331407070,robocape,42.7907911221,5.40428944265,5.07972527126,0.0,10.0,0.0,0.0,0.0,10.0,0.0,0.0,0.0,10.0,0.00479368996214,0.0203731823391,0.00692421883421,1.0,0.0,0.0,0.0,1.0,0.0,0.0,0.0,1.0,0.0395178222656,-0.0826281738281,10.0255517578,0.1,0.0,0.0,0.0,0.1,0.0,0.0,0.0,0.1
1446038737367459919,282,1446038737364512920,robocape,42.9546080209,5.43506980412,5.14152708651,0.0,10.0,0.0,0.0,0.0,10.0,0.0,0.0,0.0,10.0,0.00492684801665,0.0207726565026,0.00745685105222,1.0,0.0,0.0,0.0,1.0,0.0,0.0,0.0,1.0,0.0275427246094,-0.0802331542969,10.0650695801,0.1,0.0,0.0,0.0,0.1,0.0,0.0,0.0,0.1
1446038737401336627,283,1446038737397702932,robocape,43.119853207,5.46574300392,5.20267502408,0.0,10.0,0.0,0.0,0.0,10.0,0.0,0.0,0.0,10.0,0.00506000607115,0.0203731823391,0.00705737688871,1.0,0.0,0.0,0.0,1.0,0.0,0.0,0.0,1.0,0.0335302734375,-0.0922082519531,10.0483044434,0.1,0.0,0.0,0.0,0.1,0.0,0.0,0.0,0.1
1446038737434766252,284,1446038737431404113,robocape,43.2857361997,5.49671747924,5.26426392601,0.0,10.0,0.0,0.0,0.0,10.0,0.0,0.0,0.0,10.0,0.00466053190764,0.0205063403936,0.00692421883421,1.0,0.0,0.0,0.0,1.0,0.0,0.0,0.0,1.0,0.0383203125,-0.0838256835938,10.0578845215,0.1,0.0,0.0,0.0,0.1,0.0,0.0,0.0,0.1
1446038737467515502,285,1446038737464607954,robocape,43.4538051375,5.52869448186,5.32624031324,0.0,10.0,0.0,0.0,0.0,10.0,0.0,0.0,0.0,10.0,0.00519316412565,0.0209058145571,0.00652474467069,1.0,0.0,0.0,0.0,1.0,0.0,0.0,0.0,1.0,0.0407153320313,-0.0814306640625,10.0578845215,0.1,0.0,0.0,0.0,0.1,0.0,0.0,0.0,0.1
1446038737500995252,286,1446038737497916936,robocape,43.6234672061,5.56024967514,5.38903529055,0.0,10.0,0.0,0.0,0.0,10.0,0.0,0.0,0.0,10.0,0.00532632218016,0.0209058145571,0.0067910607797,1.0,0.0,0.0,0.0,1.0,0.0,0.0,0.0,1.0,0.0383203125,-0.0754431152344,10.0327368164,0.1,0.0,0.0,0.0,0.1,0.0,0.0,0.0,0.1
1446038737534863669,287,1446038737531418085,robocape,43.7958108304,5.59045030413,5.4521044241,0.0,10.0,0.0,0.0,0.0,10.0,0.0,0.0,0.0,10.0,0.00612527050718,0.0203731823391,0.00719053494321,1.0,0.0,0.0,0.0,1.0,0.0,0.0,0.0,1.0,0.0371228027344,-0.076640625,10.0435144043,0.1,0.0,0.0,0.0,0.1,0.0,0.0,0.0,0.1
1446038737567518211,288,1446038737564605951,robocape,43.9690777418,5.62273997804,5.51559889817,0.0,10.0,0.0,0.0,0.0,10.0,0.0,0.0,0.0,10.0,0.00585895439817,0.0211721306661,0.00639158661619,1.0,0.0,0.0,0.0,1.0,0.0,0.0,0.0,1.0,0.0335302734375,-0.0898132324219,10.0483044434,0.1,0.0,0.0,0.0,0.1,0.0,0.0,0.0,0.1
1446038737600793211,289,1446038737597671985,robocape,44.1424160322,5.65298041789,5.57909827255,0.0,10.0,0.0,0.0,0.0,10.0,0.0,0.0,0.0,10.0,0.00506000607115,0.0202400242846,0.00692421883421,1.0,0.0,0.0,0.0,1.0,0.0,0.0,0.0,1.0,0.0311352539063,-0.0874182128906,10.0447119141,0.1,0.0,0.0,0.0,0.1,0.0,0.0,0.0,0.1
1446038737634869169,290,1446038737631443977,robocape,44.3168553106,5.68421166535,5.64197273833,0.0,10.0,0.0,0.0,0.0,10.0,0.0,0.0,0.0,10.0,0.00492684801665,0.0202400242846,0.00612527050718,1.0,0.0,0.0,0.0,1.0,0.0,0.0,0.0,1.0,0.0299377441406,-0.0718505859375,10.0351318359,0.1,0.0,0.0,0.0,0.1,0.0,0.0,0.0,0.1
1446038737667563336,291,1446038737664568901,robocape,44.492760346,5.71464964233,5.7056928015,0.0,10.0,0.0,0.0,0.0,10.0,0.0,0.0,0.0,10.0,0.00492684801665,0.0201068662301,0.00652474467069,1.0,0.0,0.0,0.0,1.0,0.0,0.0,0.0,1.0,0.0323327636719,-0.0886157226563,10.0159716797,0.1,0.0,0.0,0.0,0.1,0.0,0.0,0.0,0.1
1446038737700971127,292,1446038737697765111,robocape,44.6700999905,5.74518481999,5.76971046026,0.0,10.0,0.0,0.0,0.0,10.0,0.0,0.0,0.0,10.0,0.00492684801665,0.0201068662301,0.00639158661619,1.0,0.0,0.0,0.0,1.0,0.0,0.0,0.0,1.0,0.0502954101563,-0.086220703125,10.0590820312,0.1,0.0,0.0,0.0,0.1,0.0,0.0,0.0,0.1
1446038737734862752,293,1446038737731425046,robocape,44.8507491442,5.77579768517,5.83542668051,0.0,10.0,0.0,0.0,0.0,10.0,0.0,0.0,0.0,10.0,0.00599211245268,0.0206394984481,0.0067910607797,1.0,0.0,0.0,0.0,1.0,0.0,0.0,0.0,1.0,0.0359252929688,-0.0730480957031,10.0303417969,0.1,0.0,0.0,0.0,0.1,0.0,0.0,0.0,0.1
1446038737767542877,294,1446038737764544010,robocape,45.0319996747,5.8066896805,5.90130548945,0.0,10.0,0.0,0.0,0.0,10.0,0.0,0.0,0.0,10.0,0.00545948023466,0.0206394984481,0.00652474467069,1.0,0.0,0.0,0.0,1.0,0.0,0.0,0.0,1.0,0.0407153320313,-0.0874182128906,10.024354248,0.1,0.0,0.0,0.0,0.1,0.0,0.0,0.0,0.1
1446038737806930919,295,1446038737803692102,robocape,45.2154569009,5.83675811124,5.9680310384,0.0,10.0,0.0,0.0,0.0,10.0,0.0,0.0,0.0,10.0,0.00585895439817,0.0205063403936,0.00692421883421,1.0,0.0,0.0,0.0,1.0,0.0,0.0,0.0,1.0,0.0395178222656,-0.0826281738281,10.0279467773,0.1,0.0,0.0,0.0,0.1,0.0,0.0,0.0,0.1
1446038737834841044,296,1446038737831267118,robocape,45.3995925588,5.86637648348,6.03529196087,0.0,10.0,0.0,0.0,0.0,10.0,0.0,0.0,0.0,10.0,0.00532632218016,0.0203731823391,0.00705737688871,1.0,0.0,0.0,0.0,1.0,0.0,0.0,0.0,1.0,0.0419128417969,-0.0610729980469,10.0435144043,0.1,0.0,0.0,0.0,0.1,0.0,0.0,0.0,0.1
1446038737867498836,297,1446038737864542961,robocape,45.5842423948,5.89607872637,6.10364388583,0.0,10.0,0.0,0.0,0.0,10.0,0.0,0.0,0.0,10.0,0.00466053190764,0.0206394984481,0.00719053494321,1.0,0.0,0.0,0.0,1.0,0.0,0.0,0.0,1.0,0.0347277832031,-0.0910107421875,10.019564209,0.1,0.0,0.0,0.0,0.1,0.0,0.0,0.0,0.1
1446038737901055419,298,1446038737897717952,robocape,45.7703725016,5.92550857396,6.17125358474,0.0,10.0,0.0,0.0,0.0,10.0,0.0,0.0,0.0,10.0,0.00466053190764,0.0201068662301,0.0067910607797,1.0,0.0,0.0,0.0,1.0,0.0,0.0,0.0,1.0,0.0407153320313,-0.0946032714844,10.0291442871,0.1,0.0,0.0,0.0,0.1,0.0,0.0,0.0,0.1
1446038737934792128,299,1446038737931337118,robocape,45.9593607511,5.95428262242,6.2387980176,0.0,10.0,0.0,0.0,0.0,10.0,0.0,0.0,0.0,10.0,0.00545948023466,0.0197073920666,0.0067910607797,1.0,0.0,0.0,0.0,1.0,0.0,0.0,0.0,1.0,0.0431103515625,-0.0874182128906,10.0171691895,0.1,0.0,0.0,0.0,0.1,0.0,0.0,0.0,0.1
1446038737968273669,300,1446038737965167999,robocape,46.1508802362,5.98310380711,6.30738709818,0.0,10.0,0.0,0.0,0.0,10.0,0.0,0.0,0.0,10.0,0.00599211245268,0.0199737081756,0.00692421883421,1.0,0.0,0.0,0.0,1.0,0.0,0.0,0.0,1.0,0.047900390625,-0.0826281738281,10.0375268555,0.1,0.0,0.0,0.0,0.1,0.0,0.0,0.0,0.1
1446038738000717544,301,1446038737997715950,robocape,46.344738355,6.01268793111,6.3770529608,0.0,10.0,0.0,0.0,0.0,10.0,0.0,0.0,0.0,10.0,0.00639158661619,0.0205063403936,0.0067910607797,1.0,0.0,0.0,0.0,1.0,0.0,0.0,0.0,1.0,0.0431103515625,-0.0778381347656,10.024354248,0.1,0.0,0.0,0.0,0.1,0.0,0.0,0.0,0.1
1446038738034880419,302,1446038738031505107,robocape,46.5393991045,6.04145040804,6.44692239761,0.0,10.0,0.0,0.0,0.0,10.0,0.0,0.0,0.0,10.0,0.00585895439817,0.0201068662301,0.00692421883421,1.0,0.0,0.0,0.0,1.0,0.0,0.0,0.0,1.0,0.0443078613281,-0.076640625,10.0566870117,0.1,0.0,0.0,0.0,0.1,0.0,0.0,0.0,0.1
1446038738067340169,303,1446038738064421892,robocape,46.7358143374,6.07078644591,6.51808752328,0.0,10.0,0.0,0.0,0.0,10.0,0.0,0.0,0.0,10.0,0.00585895439817,0.0206394984481,0.00692421883421,1.0,0.0,0.0,0.0,1.0,0.0,0.0,0.0,1.0,0.0311352539063,-0.0742456054688,10.0459094238,0.1,0.0,0.0,0.0,0.1,0.0,0.0,0.0,0.1
1446038738100665419,304,1446038738097667932,robocape,46.932003312,6.09930762394,6.58950472806,0.0,10.0,0.0,0.0,0.0,10.0,0.0,0.0,0.0,10.0,0.00466053190764,0.0202400242846,0.00705737688871,1.0,0.0,0.0,0.0,1.0,0.0,0.0,0.0,1.0,0.0275427246094,-0.067060546875,10.0111816406,0.1,0.0,0.0,0.0,0.1,0.0,0.0,0.0,0.1
1446038738139779253,305,1446038738136379957,robocape,47.1302634624,6.12791617629,6.66021969694,0.0,10.0,0.0,0.0,0.0,10.0,0.0,0.0,0.0,10.0,0.00492684801665,0.0198405501211,0.00652474467069,1.0,0.0,0.0,0.0,1.0,0.0,0.0,0.0,1.0,0.0227526855469,-0.0754431152344,10.0183666992,0.1,0.0,0.0,0.0,0.1,0.0,0.0,0.0,0.1
1446038738167510961,306,1446038738164525985,robocape,47.3304526844,6.15541053429,6.73345956941,0.0,10.0,0.0,0.0,0.0,10.0,0.0,0.0,0.0,10.0,0.00492684801665,0.0202400242846,0.00759000910673,1.0,0.0,0.0,0.0,1.0,0.0,0.0,0.0,1.0,0.0395178222656,-0.0802331542969,10.0674645996,0.1,0.0,0.0,0.0,0.1,0.0,0.0,0.0,0.1
1446038738200876419,307,1446038738197765111,robocape,47.5330141099,6.18422015997,6.80659762549,0.0,10.0,0.0,0.0,0.0,10.0,0.0,0.0,0.0,10.0,0.00532632218016,0.0205063403936,0.0067910607797,1.0,0.0,0.0,0.0,1.0,0.0,0.0,0.0,1.0,0.0359252929688,-0.0682580566406,10.0578845215,0.1,0.0,0.0,0.0,0.1,0.0,0.0,0.0,0.1
1446038738234243294,308,1446038738231235980,robocape,47.737360732,6.21308960099,6.879800472,0.0,10.0,0.0,0.0,0.0,10.0,0.0,0.0,0.0,10.0,0.00532632218016,0.0203731823391,0.00652474467069,1.0,0.0,0.0,0.0,1.0,0.0,0.0,0.0,1.0,0.028740234375,-0.0826281738281,10.0447119141,0.1,0.0,0.0,0.0,0.1,0.0,0.0,0.0,0.1
1446038738267482961,309,1446038738264491081,robocape,47.943774122,6.24216908805,6.95361770994,0.0,10.0,0.0,0.0,0.0,10.0,0.0,0.0,0.0,10.0,0.00545948023466,0.0205063403936,0.00639158661619,1.0,0.0,0.0,0.0,1.0,0.0,0.0,0.0,1.0,0.0347277832031,-0.0826281738281,10.0411193848,0.1,0.0,0.0,0.0,0.1,0.0,0.0,0.0,0.1
1446038738300948211,310,1446038738297816991,robocape,48.1525240235,6.26910063601,7.02811298111,0.0,10.0,0.0,0.0,0.0,10.0,0.0,0.0,0.0,10.0,0.00572579634367,0.0198405501211,0.00719053494321,1.0,0.0,0.0,0.0,1.0,0.0,0.0,0.0,1.0,0.0239501953125,-0.0730480957031,10.0231567383,0.1,0.0,0.0,0.0,0.1,0.0,0.0,0.0,0.1
1446038738334179836,311,1446038738331197977,robocape,48.3625876664,6.29674430982,7.10383657379,0.0,10.0,0.0,0.0,0.0,10.0,0.0,0.0,0.0,10.0,0.00532632218016,0.0203731823391,0.00705737688871,1.0,0.0,0.0,0.0,1.0,0.0,0.0,0.0,1.0,0.0371228027344,-0.0898132324219,10.0590820312,0.1,0.0,0.0,0.0,0.1,0.0,0.0,0.0,0.1
1446038738367445836,312,1446038738364468097,robocape,48.5734623568,6.32374836009,7.17929777151,0.0,10.0,0.0,0.0,0.0,10.0,0.0,0.0,0.0,10.0,0.00466053190764,0.0198405501211,0.00692421883421,1.0,0.0,0.0,0.0,1.0,0.0,0.0,0.0,1.0,0.0359252929688,-0.0742456054688,10.0207617188,0.1,0.0,0.0,0.0,0.1,0.0,0.0,0.0,0.1
1446038738400735128,313,1446038738397661924,robocape,48.7875495555,6.35183742915,7.25523822616,0.0,10.0,0.0,0.0,0.0,10.0,0.0,0.0,0.0,10.0,0.00545948023466,0.0202400242846,0.00639158661619,1.0,0.0,0.0,0.0,1.0,0.0,0.0,0.0,1.0,0.0335302734375,-0.0778381347656,10.0327368164,0.1,0.0,0.0,0.0,0.1,0.0,0.0,0.0,0.1
1446038738434120294,314,1446038738431205034,robocape,49.0037710479,6.3783814206,7.33336293924,0.0,10.0,0.0,0.0,0.0,10.0,0.0,0.0,0.0,10.0,0.00545948023466,0.0203731823391,0.00745685105222,1.0,0.0,0.0,0.0,1.0,0.0,0.0,0.0,1.0,0.0407153320313,-0.086220703125,10.0423168945,0.1,0.0,0.0,0.0,0.1,0.0,0.0,0.0,0.1
1446038738467572961,315,1446038738464643955,robocape,49.2230796985,6.40508060457,7.41212456623,0.0,10.0,0.0,0.0,0.0,10.0,0.0,0.0,0.0,10.0,0.00612527050718,0.0205063403936,0.00732369299772,1.0,0.0,0.0,0.0,1.0,0.0,0.0,0.0,1.0,0.0395178222656,-0.0838256835938,10.0135766602,0.1,0.0,0.0,0.0,0.1,0.0,0.0,0.0,0.1
1446038738500833794,316,1446038738497813940,robocape,49.4448958511,6.43174355808,7.4917286772,0.0,10.0,0.0,0.0,0.0,10.0,0.0,0.0,0.0,10.0,0.00639158661619,0.0206394984481,0.00732369299772,1.0,0.0,0.0,0.0,1.0,0.0,0.0,0.0,1.0,0.0467028808594,-0.076640625,10.0614770508,0.1,0.0,0.0,0.0,0.1,0.0,0.0,0.0,0.1
1446038738534202128,317,1446038738531254053,robocape,49.6679079562,6.45810691868,7.57113266024,0.0,10.0,0.0,0.0,0.0,10.0,0.0,0.0,0.0,10.0,0.00585895439817,0.0202400242846,0.00705737688871,1.0,0.0,0.0,0.0,1.0,0.0,0.0,0.0,1.0,0.0467028808594,-0.0754431152344,10.0459094238,0.1,0.0,0.0,0.0,0.1,0.0,0.0,0.0,0.1
1446038738567951795,318,1446038738564938068,robocape,49.8917480759,6.48522621764,7.65080701175,0.0,10.0,0.0,0.0,0.0,10.0,0.0,0.0,0.0,10.0,0.00506000607115,0.0203731823391,0.00652474467069,1.0,0.0,0.0,0.0,1.0,0.0,0.0,0.0,1.0,0.0407153320313,-0.0730480957031,10.0171691895,0.1,0.0,0.0,0.0,0.1,0.0,0.0,0.0,0.1
1446038738600781170,319,1446038738597659111,robocape,50.1169654391,6.51172794205,7.73190115578,0.0,10.0,0.0,0.0,0.0,10.0,0.0,0.0,0.0,10.0,0.00452737385313,0.0205063403936,0.00692421883421,1.0,0.0,0.0,0.0,1.0,0.0,0.0,0.0,1.0,0.0323327636719,-0.0778381347656,10.0291442871,0.1,0.0,0.0,0.0,0.1,0.0,0.0,0.0,0.1
1446038738634139628,320,1446038738631197929,robocape,50.3439080843,6.53824893483,7.81319585226,0.0,10.0,0.0,0.0,0.0,10.0,0.0,0.0,0.0,10.0,0.00426105774413,0.0203731823391,0.0066579027252,1.0,0.0,0.0,0.0,1.0,0.0,0.0,0.0,1.0,0.0431103515625,-0.0778381347656,10.0411193848,0.1,0.0,0.0,0.0,0.1,0.0,0.0,0.0,0.1
1446038738667524003,321,1446038738664536952,robocape,50.5731126057,6.56360069953,7.89565943052,0.0,10.0,0.0,0.0,0.0,10.0,0.0,0.0,0.0,10.0,0.00426105774413,0.0202400242846,0.00719053494321,1.0,0.0,0.0,0.0,1.0,0.0,0.0,0.0,1.0,0.0431103515625,-0.0838256835938,10.0518969727,0.1,0.0,0.0,0.0,0.1,0.0,0.0,0.0,0.1
1446038738700913003,322,1446038738697735071,robocape,50.8063618623,6.58916574582,7.9777168826,0.0,10.0,0.0,0.0,0.0,10.0,0.0,0.0,0.0,10.0,0.00545948023466,0.0199737081756,0.0066579027252,1.0,0.0,0.0,0.0,1.0,0.0,0.0,0.0,1.0,0.0395178222656,-0.0826281738281,10.055489502,0.1,0.0,0.0,0.0,0.1,0.0,0.0,0.0,0.1
1446038738734262586,323,1446038738731240034,robocape,51.0431373869,6.61513591867,8.0628813674,0.0,10.0,0.0,0.0,0.0,10.0,0.0,0.0,0.0,10.0,0.00612527050718,0.0211721306661,0.00719053494321,1.0,0.0,0.0,0.0,1.0,0.0,0.0,0.0,1.0,0.0467028808594,-0.086220703125,10.0435144043,0.1,0.0,0.0,0.0,0.1,0.0,0.0,0.0,0.1
1446038738767824086,324,1446038738764787912,robocape,51.2830393866,6.64092177078,8.14804606913,0.0,10.0,0.0,0.0,0.0,10.0,0.0,0.0,0.0,10.0,0.0066579027252,0.0209058145571,0.00692421883421,1.0,0.0,0.0,0.0,1.0,0.0,0.0,0.0,1.0,0.028740234375,-0.0826281738281,10.0183666992,0.1,0.0,0.0,0.0,0.1,0.0,0.0,0.0,0.1
1446038738807758961,325,1446038738804712057,robocape,51.5240219331,6.66567136658,8.23303973499,0.0,10.0,0.0,0.0,0.0,10.0,0.0,0.0,0.0,10.0,0.00585895439817,0.0202400242846,0.00692421883421,1.0,0.0,0.0,0.0,1.0,0.0,0.0,0.0,1.0,0.0347277832031,-0.0898132324219,10.0375268555,0.1,0.0,0.0,0.0,0.1,0.0,0.0,0.0,0.1
1446038738834395295,326,1446038738831418037,robocape,51.767774746,6.69030305704,8.32062240259,0.0,10.0,0.0,0.0,0.0,10.0,0.0,0.0,0.0,10.0,0.00599211245268,0.0210389726116,0.00745685105222,1.0,0.0,0.0,0.0,1.0,0.0,0.0,0.0,1.0,0.0335302734375,-0.076640625,10.0590820312,0.1,0.0,0.0,0.0,0.1,0.0,0.0,0.0,0.1
1446038738867564586,327,1446038738864583015,robocape,52.0130982217,6.7156691599,8.40824318653,0.0,10.0,0.0,0.0,0.0,10.0,0.0,0.0,0.0,10.0,0.00545948023466,0.0210389726116,0.0067910607797,1.0,0.0,0.0,0.0,1.0,0.0,0.0,0.0,1.0,0.0383203125,-0.0874182128906,10.0447119141,0.1,0.0,0.0,0.0,0.1,0.0,0.0,0.0,0.1
1446038738900975670,328,1446038738897670984,robocape,52.2610859707,6.73992568934,8.4960072916,0.0,10.0,0.0,0.0,0.0,10.0,0.0,0.0,0.0,10.0,0.00559263828917,0.0205063403936,0.00692421883421,1.0,0.0,0.0,0.0,1.0,0.0,0.0,0.0,1.0,0.0263452148438,-0.086220703125,10.039921875,0.1,0.0,0.0,0.0,0.1,0.0,0.0,0.0,0.1
1446038738942030795,329,1446038738938452005,robocape,52.5105163424,6.76348629987,8.58366490578,0.0,10.0,0.0,0.0,0.0,10.0,0.0,0.0,0.0,10.0,0.00492684801665,0.0199737081756,0.0067910607797,1.0,0.0,0.0,0.0,1.0,0.0,0.0,0.0,1.0,0.0359252929688,-0.0754431152344,10.0483044434,0.1,0.0,0.0,0.0,0.1,0.0,0.0,0.0,0.1
1446038738967551086,330,1446038738964651107,robocape,52.7617999767,6.78748753231,8.67354237345,0.0,10.0,0.0,0.0,0.0,10.0,0.0,0.0,0.0,10.0,0.00439421579863,0.0207726565026,0.00692421883421,1.0,0.0,0.0,0.0,1.0,0.0,0.0,0.0,1.0,0.0443078613281,-0.0814306640625,10.0578845215,0.1,0.0,0.0,0.0,0.1,0.0,0.0,0.0,0.1
1446038739000942545,331,1446038738997853994,robocape,53.0150264766,6.81093100027,8.76351960201,0.0,10.0,0.0,0.0,0.0,10.0,0.0,0.0,0.0,10.0,0.00399474163512,0.0203731823391,0.0067910607797,1.0,0.0,0.0,0.0,1.0,0.0,0.0,0.0,1.0,0.0371228027344,-0.0826281738281,10.0339343262,0.1,0.0,0.0,0.0,0.1,0.0,0.0,0.0,0.1
1446038739034374378,332,1446038739031131982,robocape,53.2706956975,6.83263433636,8.85414381312,0.0,10.0,0.0,0.0,0.0,10.0,0.0,0.0,0.0,10.0,0.00386158358061,0.0198405501211,0.00732369299772,1.0,0.0,0.0,0.0,1.0,0.0,0.0,0.0,1.0,0.0359252929688,-0.0898132324219,10.0339343262,0.1,0.0,0.0,0.0,0.1,0.0,0.0,0.0,0.1
1446038739067624753,333,1446038739064678907,robocape,53.5311149157,6.85521029456,8.94585919183,0.0,10.0,0.0,0.0,0.0,10.0,0.0,0.0,0.0,10.0,0.00519316412565,0.0203731823391,0.00692421883421,1.0,0.0,0.0,0.0,1.0,0.0,0.0,0.0,1.0,0.0371228027344,-0.0802331542969,10.0387243652,0.1,0.0,0.0,0.0,0.1,0.0,0.0,0.0,0.1
1446038739100766336,334,1446038739097712039,robocape,53.79693783,6.877777283,9.0383481399,0.0,10.0,0.0,0.0,0.0,10.0,0.0,0.0,0.0,10.0,0.00692421883421,0.0205063403936,0.0067910607797,1.0,0.0,0.0,0.0,1.0,0.0,0.0,0.0,1.0,0.0359252929688,-0.0838256835938,10.0303417969,0.1,0.0,0.0,0.0,0.1,0.0,0.0,0.0,0.1
1446038739134406336,335,1446038739131076097,robocape,54.0649370224,6.9002656301,9.13124514877,0.0,10.0,0.0,0.0,0.0,10.0,0.0,0.0,0.0,10.0,0.00652474467069,0.0203731823391,0.00652474467069,1.0,0.0,0.0,0.0,1.0,0.0,0.0,0.0,1.0,0.0311352539063,-0.076640625,10.0411193848,0.1,0.0,0.0,0.0,0.1,0.0,0.0,0.0,0.1
1446038739169038295,336,1446038739165859937,robocape,54.3344538549,6.92173376527,9.22591895453,0.0,10.0,0.0,0.0,0.0,10.0,0.0,0.0,0.0,10.0,0.00559263828917,0.0205063403936,0.00705737688871,1.0,0.0,0.0,0.0,1.0,0.0,0.0,0.0,1.0,0.0419128417969,-0.076640625,10.0363293457,0.1,0.0,0.0,0.0,0.1,0.0,0.0,0.0,0.1
1446038739200980753,337,1446038739197818994,robocape,54.6056321839,6.94183224671,9.32103502425,0.0,10.0,0.0,0.0,0.0,10.0,0.0,0.0,0.0,10.0,0.00479368996214,0.0199737081756,0.00732369299772,1.0,0.0,0.0,0.0,1.0,0.0,0.0,0.0,1.0,0.0407153320313,-0.0658630371094,10.0363293457,0.1,0.0,0.0,0.0,0.1,0.0,0.0,0.0,0.1
1446038739234352295,338,1446038739231040000,robocape,54.8801260218,6.96287855081,9.41671470043,0.0,10.0,0.0,0.0,0.0,10.0,0.0,0.0,0.0,10.0,0.00506000607115,0.0202400242846,0.0066579027252,1.0,0.0,0.0,0.0,1.0,0.0,0.0,0.0,1.0,0.0514929199219,-0.0778381347656,10.0423168945,0.1,0.0,0.0,0.0,0.1,0.0,0.0,0.0,0.1
1446038739267797753,339,1446038739264601945,robocape,55.1568574917,6.98326949042,9.51387325756,0.0,10.0,0.0,0.0,0.0,10.0,0.0,0.0,0.0,10.0,0.00452737385313,0.0203731823391,0.00692421883421,1.0,0.0,0.0,0.0,1.0,0.0,0.0,0.0,1.0,0.0383203125,-0.0790356445313,10.039921875,0.1,0.0,0.0,0.0,0.1,0.0,0.0,0.0,0.1
1446038739301043170,340,1446038739297882080,robocape,55.4372472284,7.00431263652,9.61213196058,0.0,10.0,0.0,0.0,0.0,10.0,0.0,0.0,0.0,10.0,0.00492684801665,0.0207726565026,0.00652474467069,1.0,0.0,0.0,0.0,1.0,0.0,0.0,0.0,1.0,0.0347277832031,-0.0850231933594,10.0483044434,0.1,0.0,0.0,0.0,0.1,0.0,0.0,0.0,0.1
1446038739342308962,341,1446038739338776111,robocape,55.7221957714,7.02408085811,9.71185081212,0.0,10.0,0.0,0.0,0.0,10.0,0.0,0.0,0.0,10.0,0.00585895439817,0.0207726565026,0.00705737688871,1.0,0.0,0.0,0.0,1.0,0.0,0.0,0.0,1.0,0.0335302734375,-0.0874182128906,10.0339343262,0.1,0.0,0.0,0.0,0.1,0.0,0.0,0.0,0.1
1446038739367415837,342,1446038739364360094,robocape,56.0113385094,7.0426212807,9.81270709462,0.0,10.0,0.0,0.0,0.0,10.0,0.0,0.0,0.0,10.0,0.00652474467069,0.0206394984481,0.00745685105222,1.0,0.0,0.0,0.0,1.0,0.0,0.0,0.0,1.0,0.0419128417969,-0.0814306640625,10.0435144043,0.1,0.0,0.0,0.0,0.1,0.0,0.0,0.0,0.1
1446038739401178337,343,1446038739398041009,robocape,56.3026184517,7.06099158523,9.9132028886,0.0,10.0,0.0,0.0,0.0,10.0,0.0,0.0,0.0,10.0,0.00585895439817,0.0201068662301,0.00692421883421,1.0,0.0,0.0,0.0,1.0,0.0,0.0,0.0,1.0,0.0335302734375,-0.0622705078125,10.0387243652,0.1,0.0,0.0,0.0,0.1,0.0,0.0,0.0,0.1
1446038739434385753,344,1446038739431150913,robocape,56.5968041953,7.07904307012,10.0149367203,0.0,10.0,0.0,0.0,0.0,10.0,0.0,0.0,0.0,10.0,0.00559263828917,0.0202400242846,0.00692421883421,1.0,0.0,0.0,0.0,1.0,0.0,0.0,0.0,1.0,0.0395178222656,-0.0790356445313,10.0327368164,0.1,0.0,0.0,0.0,0.1,0.0,0.0,0.0,0.1
1446038739467560920,345,1446038739464466094,robocape,56.8937291197,7.09683432118,10.1175871919,0.0,10.0,0.0,0.0,0.0,10.0,0.0,0.0,0.0,10.0,0.00519316412565,0.0202400242846,0.0067910607797,1.0,0.0,0.0,0.0,1.0,0.0,0.0,0.0,1.0,0.0359252929688,-0.0826281738281,10.0471069336,0.1,0.0,0.0,0.0,0.1,0.0,0.0,0.0,0.1
1446038739501025212,346,1446038739497951030,robocape,57.1929408631,7.11448308517,10.2223421017,0.0,10.0,0.0,0.0,0.0,10.0,0.0,0.0,0.0,10.0,0.00439421579863,0.0207726565026,0.00692421883421,1.0,0.0,0.0,0.0,1.0,0.0,0.0,0.0,1.0,0.0395178222656,-0.0898132324219,10.019564209,0.1,0.0,0.0,0.0,0.1,0.0,0.0,0.0,0.1
1446038739534286878,347,1446038739531073093,robocape,57.4961150108,7.13021973355,10.3268914468,0.0,10.0,0.0,0.0,0.0,10.0,0.0,0.0,0.0,10.0,0.00479368996214,0.0198405501211,0.00719053494321,1.0,0.0,0.0,0.0,1.0,0.0,0.0,0.0,1.0,0.0383203125,-0.067060546875,10.0291442871,0.1,0.0,0.0,0.0,0.1,0.0,0.0,0.0,0.1
1446038739567414920,348,1446038739564450025,robocape,57.80404953,7.1463172823,10.4333553831,0.0,10.0,0.0,0.0,0.0,10.0,0.0,0.0,0.0,10.0,0.00559263828917,0.0205063403936,0.00705737688871,1.0,0.0,0.0,0.0,1.0,0.0,0.0,0.0,1.0,0.0443078613281,-0.0778381347656,10.0267492676,0.1,0.0,0.0,0.0,0.1,0.0,0.0,0.0,0.1
1446038739600761295,349,1446038739597708940,robocape,58.1157203157,7.16167464213,10.5401097376,0.0,10.0,0.0,0.0,0.0,10.0,0.0,0.0,0.0,10.0,0.00572579634367,0.0201068662301,0.00692421883421,1.0,0.0,0.0,0.0,1.0,0.0,0.0,0.0,1.0,0.0514929199219,-0.0730480957031,10.0351318359,0.1,0.0,0.0,0.0,0.1,0.0,0.0,0.0,0.1
1446038739634286128,350,1446038739631026983,robocape,58.4322807385,7.17664616197,10.6486619429,0.0,10.0,0.0,0.0,0.0,10.0,0.0,0.0,0.0,10.0,0.00652474467069,0.0205063403936,0.00705737688871,1.0,0.0,0.0,0.0,1.0,0.0,0.0,0.0,1.0,0.0359252929688,-0.0814306640625,10.0518969727,0.1,0.0,0.0,0.0,0.1,0.0,0.0,0.0,0.1
1446038739667525420,351,1446038739664524078,robocape,58.7518453759,7.19108291398,10.7589561121,0.0,10.0,0.0,0.0,0.0,10.0,0.0,0.0,0.0,10.0,0.00599211245268,0.0207726565026,0.00719053494321,1.0,0.0,0.0,0.0,1.0,0.0,0.0,0.0,1.0,0.0383203125,-0.0694555664063,10.0351318359,0.1,0.0,0.0,0.0,0.1,0.0,0.0,0.0,0.1
1446038739700836420,352,1446038739697722911,robocape,59.07486363,7.20460488161,10.8708990751,0.0,10.0,0.0,0.0,0.0,10.0,0.0,0.0,0.0,10.0,0.00572579634367,0.0209058145571,0.00745685105222,1.0,0.0,0.0,0.0,1.0,0.0,0.0,0.0,1.0,0.0335302734375,-0.0706530761719,10.0219592285,0.1,0.0,0.0,0.0,0.1,0.0,0.0,0.0,0.1
1446038739734366878,353,1446038739730999946,robocape,59.3983742482,7.21729638547,10.9828886008,0.0,10.0,0.0,0.0,0.0,10.0,0.0,0.0,0.0,10.0,0.0034621094171,0.0202400242846,0.00719053494321,1.0,0.0,0.0,0.0,1.0,0.0,0.0,0.0,1.0,0.0467028808594,-0.0730480957031,10.0387243652,0.1,0.0,0.0,0.0,0.1,0.0,0.0,0.0,0.1
1446038739767529587,354,1446038739764494895,robocape,59.7258368225,7.22903122839,11.0965203524,0.0,10.0,0.0,0.0,0.0,10.0,0.0,0.0,0.0,10.0,0.0034621094171,0.0203731823391,0.00745685105222,1.0,0.0,0.0,0.0,1.0,0.0,0.0,0.0,1.0,0.0419128417969,-0.086220703125,10.0495019531,0.1,0.0,0.0,0.0,0.1,0.0,0.0,0.0,0.1
1446038739808121337,355,1446038739804719924,robocape,60.0582674539,7.24021712026,11.2114819259,0.0,10.0,0.0,0.0,0.0,10.0,0.0,0.0,0.0,10.0,0.00412789968962,0.0205063403936,0.00745685105222,1.0,0.0,0.0,0.0,1.0,0.0,0.0,0.0,1.0,0.0347277832031,-0.0946032714844,10.0291442871,0.1,0.0,0.0,0.0,0.1,0.0,0.0,0.0,0.1
1446038739834336628,356,1446038739830985069,robocape,60.3962929841,7.25057291434,11.3273086499,0.0,10.0,0.0,0.0,0.0,10.0,0.0,0.0,0.0,10.0,0.00519316412565,0.0203731823391,0.00745685105222,1.0,0.0,0.0,0.0,1.0,0.0,0.0,0.0,1.0,0.028740234375,-0.076640625,10.0435144043,0.1,0.0,0.0,0.0,0.1,0.0,0.0,0.0,0.1
1446038739867518087,357,1446038739864428997,robocape,60.7393591232,7.26129044649,11.443089292,0.0,10.0,0.0,0.0,0.0,10.0,0.0,0.0,0.0,10.0,0.00585895439817,0.0201068662301,0.0066579027252,1.0,0.0,0.0,0.0,1.0,0.0,0.0,0.0,1.0,0.0227526855469,-0.0814306640625,10.0423168945,0.1,0.0,0.0,0.0,0.1,0.0,0.0,0.0,0.1
1446038739900863878,358,1446038739897665023,robocape,61.0863204978,7.27083447562,11.5603914265,0.0,10.0,0.0,0.0,0.0,10.0,0.0,0.0,0.0,10.0,0.00559263828917,0.0201068662301,0.00692421883421,1.0,0.0,0.0,0.0,1.0,0.0,0.0,0.0,1.0,0.0347277832031,-0.0586779785156,10.0363293457,0.1,0.0,0.0,0.0,0.1,0.0,0.0,0.0,0.1
1446038739934673628,359,1446038739931344032,robocape,61.4381816043,7.2792728747,11.6788073304,0.0,10.0,0.0,0.0,0.0,10.0,0.0,0.0,0.0,10.0,0.00599211245268,0.0199737081756,0.00705737688871,1.0,0.0,0.0,0.0,1.0,0.0,0.0,0.0,1.0,0.0407153320313,-0.067060546875,10.0614770508,0.1,0.0,0.0,0.0,0.1,0.0,0.0,0.0,0.1
1446038739967514420,360,1446038739964390039,robocape,61.7934396998,7.28720900496,11.8001746881,0.0,10.0,0.0,0.0,0.0,10.0,0.0,0.0,0.0,10.0,0.00519316412565,0.0207726565026,0.00732369299772,1.0,0.0,0.0,0.0,1.0,0.0,0.0,0.0,1.0,0.0383203125,-0.076640625,10.060279541,0.1,0.0,0.0,0.0,0.1,0.0,0.0,0.0,0.1
1446038740000936504,361,1446038739997813940,robocape,62.1516890665,7.2945505847,11.92285502,0.0,10.0,0.0,0.0,0.0,10.0,0.0,0.0,0.0,10.0,0.00412789968962,0.0207726565026,0.00719053494321,1.0,0.0,0.0,0.0,1.0,0.0,0.0,0.0,1.0,0.0335302734375,-0.0634680175781,10.0387243652,0.1,0.0,0.0,0.0,0.1,0.0,0.0,0.0,0.1
1446038740034325962,362,1446038740031157016,robocape,62.5154433043,7.30035307774,12.0465688671,0.0,10.0,0.0,0.0,0.0,10.0,0.0,0.0,0.0,10.0,0.00479368996214,0.0205063403936,0.00745685105222,1.0,0.0,0.0,0.0,1.0,0.0,0.0,0.0,1.0,0.0359252929688,-0.0826281738281,10.0255517578,0.1,0.0,0.0,0.0,0.1,0.0,0.0,0.0,0.1
1446038740067375212,363,1446038740064425945,robocape,62.8845217173,7.3050273055,12.1699722094,0.0,10.0,0.0,0.0,0.0,10.0,0.0,0.0,0.0,10.0,0.00532632218016,0.0197073920666,0.00719053494321,1.0,0.0,0.0,0.0,1.0,0.0,0.0,0.0,1.0,0.0263452148438,-0.0922082519531,10.039921875,0.1,0.0,0.0,0.0,0.1,0.0,0.0,0.0,0.1
1446038740100835712,364,1446038740097759008,robocape,63.2589437674,7.30972172351,12.2947847394,0.0,10.0,0.0,0.0,0.0,10.0,0.0,0.0,0.0,10.0,0.00572579634367,0.0199737081756,0.0067910607797,1.0,0.0,0.0,0.0,1.0,0.0,0.0,0.0,1.0,0.0443078613281,-0.0934057617188,10.0590820312,0.1,0.0,0.0,0.0,0.1,0.0,0.0,0.0,0.1
1446038740134587962,365,1446038740131211996,robocape,63.639066367,7.31383720562,12.4221599676,0.0,10.0,0.0,0.0,0.0,10.0,0.0,0.0,0.0,10.0,0.00625842856169,0.0206394984481,0.00692421883421,1.0,0.0,0.0,0.0,1.0,0.0,0.0,0.0,1.0,0.0299377441406,-0.0754431152344,10.0459094238,0.1,0.0,0.0,0.0,0.1,0.0,0.0,0.0,0.1
1446038740167600504,366,1446038740164561033,robocape,64.0241487869,7.31733343062,12.5504961204,0.0,10.0,0.0,0.0,0.0,10.0,0.0,0.0,0.0,10.0,0.00625842856169,0.0205063403936,0.0066579027252,1.0,0.0,0.0,0.0,1.0,0.0,0.0,0.0,1.0,0.0383203125,-0.0802331542969,10.0483044434,0.1,0.0,0.0,0.0,0.1,0.0,0.0,0.0,0.1
1446038740200884879,367,1446038740197724103,robocape,64.4132418621,7.31948617031,12.6808178532,0.0,10.0,0.0,0.0,0.0,10.0,0.0,0.0,0.0,10.0,0.00545948023466,0.0206394984481,0.00692421883421,1.0,0.0,0.0,0.0,1.0,0.0,0.0,0.0,1.0,0.0347277832031,-0.0790356445313,10.0291442871,0.1,0.0,0.0,0.0,0.1,0.0,0.0,0.0,0.1
1446038740234340379,368,1446038740231183052,robocape,64.8062309121,7.32003125551,12.8127031196,0.0,10.0,0.0,0.0,0.0,10.0,0.0,0.0,0.0,10.0,0.00452737385313,0.0205063403936,0.00719053494321,1.0,0.0,0.0,0.0,1.0,0.0,0.0,0.0,1.0,0.0371228027344,-0.0742456054688,10.0387243652,0.1,0.0,0.0,0.0,0.1,0.0,0.0,0.0,0.1
1446038740267692962,369,1446038740264646053,robocape,65.2044328092,7.31930461239,12.9450325568,0.0,10.0,0.0,0.0,0.0,10.0,0.0,0.0,0.0,10.0,0.00452737385313,0.0199737081756,0.00705737688871,1.0,0.0,0.0,0.0,1.0,0.0,0.0,0.0,1.0,0.0347277832031,-0.0886157226563,10.0734521484,0.1,0.0,0.0,0.0,0.1,0.0,0.0,0.0,0.1
1446038740309738962,370,1446038740306318998,robocape,65.6096656679,7.31759387324,13.0789181997,0.0,10.0,0.0,0.0,0.0,10.0,0.0,0.0,0.0,10.0,0.00572579634367,0.0201068662301,0.00705737688871,1.0,0.0,0.0,0.0,1.0,0.0,0.0,0.0,1.0,0.0455053710938,-0.0826281738281,10.0566870117,0.1,0.0,0.0,0.0,0.1,0.0,0.0,0.0,0.1
1446038740335714795,371,1446038740332436084,robocape,66.0196927474,7.31588249703,13.2144336378,0.0,10.0,0.0,0.0,0.0,10.0,0.0,0.0,0.0,10.0,0.00519316412565,0.0203731823391,0.00652474467069,1.0,0.0,0.0,0.0,1.0,0.0,0.0,0.0,1.0,0.0371228027344,-0.0838256835938,10.0315393066,0.1,0.0,0.0,0.0,0.1,0.0,0.0,0.0,0.1
1446038740369390004,372,1446038740366178035,robocape,66.4362110349,7.31199234997,13.3510123487,0.0,10.0,0.0,0.0,0.0,10.0,0.0,0.0,0.0,10.0,0.00585895439817,0.0199737081756,0.00692421883421,1.0,0.0,0.0,0.0,1.0,0.0,0.0,0.0,1.0,0.0431103515625,-0.0742456054688,10.0123791504,0.1,0.0,0.0,0.0,0.1,0.0,0.0,0.0,0.1
1446038740402381754,373,1446038740399025917,robocape,66.8579666635,7.30765648568,13.4896983285,0.0,10.0,0.0,0.0,0.0,10.0,0.0,0.0,0.0,10.0,0.00545948023466,0.0203731823391,0.0066579027252,1.0,0.0,0.0,0.0,1.0,0.0,0.0,0.0,1.0,0.0562829589844,-0.0969982910156,10.0435144043,0.1,0.0,0.0,0.0,0.1,0.0,0.0,0.0,0.1
1446038740435624795,374,1446038740432391881,robocape,67.2845388778,7.30225181307,13.6305508087,0.0,10.0,0.0,0.0,0.0,10.0,0.0,0.0,0.0,10.0,0.00466053190764,0.0206394984481,0.0066579027252,1.0,0.0,0.0,0.0,1.0,0.0,0.0,0.0,1.0,0.0383203125,-0.0754431152344,10.0626745605,0.1,0.0,0.0,0.0,0.1,0.0,0.0,0.0,0.1
1446038740469101462,375,1446038740465949058,robocape,67.7165593647,7.29506196494,13.7732683979,0.0,10.0,0.0,0.0,0.0,10.0,0.0,0.0,0.0,10.0,0.00426105774413,0.0206394984481,0.00692421883421,1.0,0.0,0.0,0.0,1.0,0.0,0.0,0.0,1.0,0.0359252929688,-0.0910107421875,10.0459094238,0.1,0.0,0.0,0.0,0.1,0.0,0.0,0.0,0.1
1446038740502137504,376,1446038740498944044,robocape,68.155909345,7.28676261656,13.917392322,0.0,10.0,0.0,0.0,0.0,10.0,0.0,0.0,0.0,10.0,0.00519316412565,0.0206394984481,0.0067910607797,1.0,0.0,0.0,0.0,1.0,0.0,0.0,0.0,1.0,0.0383203125,-0.086220703125,10.039921875,0.1,0.0,0.0,0.0,0.1,0.0,0.0,0.0,0.1
1446038740535177004,377,1446038740531868934,robocape,68.6021541766,7.2759749082,14.0624350846,0.0,10.0,0.0,0.0,0.0,10.0,0.0,0.0,0.0,10.0,0.00572579634367,0.0201068662301,0.00719053494321,1.0,0.0,0.0,0.0,1.0,0.0,0.0,0.0,1.0,0.0443078613281,-0.0778381347656,10.0339343262,0.1,0.0,0.0,0.0,0.1,0.0,0.0,0.0,0.1
1446038740572609920,378,1446038740569288969,robocape,69.0544385805,7.26334535387,14.2096009786,0.0,10.0,0.0,0.0,0.0,10.0,0.0,0.0,0.0,10.0,0.00545948023466,0.0202400242846,0.00745685105222,1.0,0.0,0.0,0.0,1.0,0.0,0.0,0.0,1.0,0.0383203125,-0.0754431152344,10.0495019531,0.1,0.0,0.0,0.0,0.1,0.0,0.0,0.0,0.1
1446038740602283629,379,1446038740599154949,robocape,69.5135773842,7.25121000064,14.3579406248,0.0,10.0,0.0,0.0,0.0,10.0,0.0,0.0,0.0,10.0,0.00572579634367,0.0203731823391,0.00639158661619,1.0,0.0,0.0,0.0,1.0,0.0,0.0,0.0,1.0,0.0419128417969,-0.0814306640625,10.060279541,0.1,0.0,0.0,0.0,0.1,0.0,0.0,0.0,0.1
1446038740635247712,380,1446038740632055997,robocape,69.9797979219,7.23686705046,14.5098305938,0.0,10.0,0.0,0.0,0.0,10.0,0.0,0.0,0.0,10.0,0.00599211245268,0.0211721306661,0.00705737688871,1.0,0.0,0.0,0.0,1.0,0.0,0.0,0.0,1.0,0.0431103515625,-0.0634680175781,10.0339343262,0.1,0.0,0.0,0.0,0.1,0.0,0.0,0.0,0.1
1446038740668499171,381,1446038740665492057,robocape,70.4523770259,7.22018833461,14.6616131816,0.0,10.0,0.0,0.0,0.0,10.0,0.0,0.0,0.0,10.0,0.00572579634367,0.0201068662301,0.00705737688871,1.0,0.0,0.0,0.0,1.0,0.0,0.0,0.0,1.0,0.0383203125,-0.0730480957031,10.0339343262,0.1,0.0,0.0,0.0,0.1,0.0,0.0,0.0,0.1
1446038740701587837,382,1446038740698318004,robocape,70.9313978279,7.20215534022,14.8153739519,0.0,10.0,0.0,0.0,0.0,10.0,0.0,0.0,0.0,10.0,0.00532632218016,0.0202400242846,0.00692421883421,1.0,0.0,0.0,0.0,1.0,0.0,0.0,0.0,1.0,0.0323327636719,-0.0754431152344,10.0542919922,0.1,0.0,0.0,0.0,0.1,0.0,0.0,0.0,0.1
1446038740734785837,383,1446038740731642961,robocape,71.4175344279,7.18279911093,14.971321137,0.0,10.0,0.0,0.0,0.0,10.0,0.0,0.0,0.0,10.0,0.00532632218016,0.0205063403936,0.0067910607797,1.0,0.0,0.0,0.0,1.0,0.0,0.0,0.0,1.0,0.0371228027344,-0.086220703125,10.0495019531,0.1,0.0,0.0,0.0,0.1,0.0,0.0,0.0,0.1
1446038740768230546,384,1446038740765228033,robocape,71.9103979124,7.16058467911,15.1292237151,0.0,10.0,0.0,0.0,0.0,10.0,0.0,0.0,0.0,10.0,0.00492684801665,0.0203731823391,0.00732369299772,1.0,0.0,0.0,0.0,1.0,0.0,0.0,0.0,1.0,0.0443078613281,-0.0814306640625,10.0207617188,0.1,0.0,0.0,0.0,0.1,0.0,0.0,0.0,0.1
1446038740803496837,385,1446038740800204038,robocape,72.4113176034,7.13733009282,15.288081623,0.0,10.0,0.0,0.0,0.0,10.0,0.0,0.0,0.0,10.0,0.00545948023466,0.0201068662301,0.0067910607797,1.0,0.0,0.0,0.0,1.0,0.0,0.0,0.0,1.0,0.0431103515625,-0.0778381347656,10.0291442871,0.1,0.0,0.0,0.0,0.1,0.0,0.0,0.0,0.1
1446038740834921421,386,1446038740831860065,robocape,72.9202832189,7.11242192864,15.4478579881,0.0,10.0,0.0,0.0,0.0,10.0,0.0,0.0,0.0,10.0,0.00585895439817,0.0197073920666,0.00652474467069,1.0,0.0,0.0,0.0,1.0,0.0,0.0,0.0,1.0,0.0359252929688,-0.0730480957031,10.0351318359,0.1,0.0,0.0,0.0,0.1,0.0,0.0,0.0,0.1
1446038740868548254,387,1446038740865410089,robocape,73.4374147507,7.0849977887,15.6120026511,0.0,10.0,0.0,0.0,0.0,10.0,0.0,0.0,0.0,10.0,0.00612527050718,0.0209058145571,0.00719053494321,1.0,0.0,0.0,0.0,1.0,0.0,0.0,0.0,1.0,0.0526904296875,-0.0754431152344,10.0542919922,0.1,0.0,0.0,0.0,0.1,0.0,0.0,0.0,0.1
1446038740902041004,388,1446038740898801088,robocape,73.9624491104,7.05558425929,15.7774962976,0.0,10.0,0.0,0.0,0.0,10.0,0.0,0.0,0.0,10.0,0.00612527050718,0.0206394984481,0.00705737688871,1.0,0.0,0.0,0.0,1.0,0.0,0.0,0.0,1.0,0.0311352539063,-0.0730480957031,10.0387243652,0.1,0.0,0.0,0.0,0.1,0.0,0.0,0.0,0.1
1446038740935715462,389,1446038740932406902,robocape,74.4950732263,7.024103349,15.9444257862,0.0,10.0,0.0,0.0,0.0,10.0,0.0,0.0,0.0,10.0,0.00572579634367,0.0203731823391,0.00692421883421,1.0,0.0,0.0,0.0,1.0,0.0,0.0,0.0,1.0,0.0514929199219,-0.076640625,10.0483044434,0.1,0.0,0.0,0.0,0.1,0.0,0.0,0.0,0.1
