%time,field.header.seq,field.header.stamp,field.header.frame_id,field.orientation.x,field.orientation.y,field.orientation.z,field.orientation.w,field.orientation_covariance0,field.orientation_covariance1,field.orientation_covariance2,field.orientation_covariance3,field.orientation_covariance4,field.orientation_covariance5,field.orientation_covariance6,field.orientation_covariance7,field.orientation_covariance8,field.angular_velocity.x,field.angular_velocity.y,field.angular_velocity.z,field.angular_velocity_covariance0,field.angular_velocity_covariance1,field.angular_velocity_covariance2,field.angular_velocity_covariance3,field.angular_velocity_covariance4,field.angular_velocity_covariance5,field.angular_velocity_covariance6,field.angular_velocity_covariance7,field.angular_velocity_covariance8,field.linear_acceleration.x,field.linear_acceleration.y,field.linear_acceleration.z,field.linear_acceleration_covariance0,field.linear_acceleration_covariance1,field.linear_acceleration_covariance2,field.linear_acceleration_covariance3,field.linear_acceleration_covariance4,field.linear_acceleration_covariance5,field.linear_acceleration_covariance6,field.linear_acceleration_covariance7,field.linear_acceleration_covariance8
1446038392964580880,1,1446038392961057901,robocape,-2.04399701532,-11.4315679613,-89.9955083826,0.0,10.0,0.0,0.0,0.0,10.0,0.0,0.0,0.0,10.0,-0.325837759371,-0.0115847507418,-0.520248518947,1.0,0.0,0.0,0.0,1.0,0.0,0.0,0.0,1.0,0.205971679688,0.97716796875,9.58846069336,0.1,0.0,0.0,0.0,0.1,0.0,0.0,0.0,0.1
1446038392997597130,2,1446038392994426965,robocape,-2.11999574548,-11.4185779108,-91.4421925164,0.0,10.0,0.0,0.0,0.0,10.0,0.0,0.0,0.0,10.0,-0.180695479962,0.0399474163512,-0.665124482247,1.0,0.0,0.0,0.0,1.0,0.0,0.0,0.0,1.0,0.707728271484,-0.482596435547,9.83874023438,0.1,0.0,0.0,0.0,0.1,0.0,0.0,0.0,0.1
1446038393031157088,3,1446038393027832984,robocape,-2.09986279984,-11.0733949783,-93.0251198639,0.0,10.0,0.0,0.0,0.0,10.0,0.0,0.0,0.0,10.0,-0.146473859954,0.21345236137,-0.766724077834,1.0,0.0,0.0,0.0,1.0,0.0,0.0,0.0,1.0,1.08733886719,1.2992980957,9.83395019531,0.1,0.0,0.0,0.0,0.1,0.0,0.0,0.0,0.1
1446038393064308005,4,1446038393060972929,robocape,-2.2724428826,-10.2506245589,-94.5429829696,0.0,10.0,0.0,0.0,0.0,10.0,0.0,0.0,0.0,10.0,-0.225037112112,0.467251613254,-0.65780078925,1.0,0.0,0.0,0.0,1.0,0.0,0.0,0.0,1.0,0.5748046875,1.05021606445,10.1165625,0.1,0.0,0.0,0.0,0.1,0.0,0.0,0.0,0.1
1446038393097510588,5,1446038393094393014,robocape,-2.47717423932,-9.10732280664,-95.9740432648,0.0,10.0,0.0,0.0,0.0,10.0,0.0,0.0,0.0,10.0,-0.212253938879,0.638759187456,-0.523311154201,1.0,0.0,0.0,0.0,1.0,0.0,0.0,0.0,1.0,0.0754431152344,0.559237060547,10.0111816406,0.1,0.0,0.0,0.0,0.1,0.0,0.0,0.0,0.1
1446038393131057130,6,1446038393127736091,robocape,-2.70378175213,-7.76236576201,-97.3779854787,0.0,10.0,0.0,0.0,0.0,10.0,0.0,0.0,0.0,10.0,-0.203199191173,0.745285631059,-0.464721610219,1.0,0.0,0.0,0.0,1.0,0.0,0.0,0.0,1.0,-0.377215576172,0.468226318359,10.2518811035,0.1,0.0,0.0,0.0,0.1,0.0,0.0,0.0,0.1
1446038393164215671,7,1446038393161021947,robocape,-2.98805736818,-6.35266559907,-98.7514347771,0.0,10.0,0.0,0.0,0.0,10.0,0.0,0.0,0.0,10.0,-0.213319203315,0.779107776903,-0.413722075344,1.0,0.0,0.0,0.0,1.0,0.0,0.0,0.0,1.0,-1.23822509766,0.393980712891,10.1836230469,0.1,0.0,0.0,0.0,0.1,0.0,0.0,0.0,0.1
1446038393197447005,8,1446038393194341897,robocape,-3.64003929434,-5.31151386213,-99.9094964011,0.0,10.0,0.0,0.0,0.0,10.0,0.0,0.0,0.0,10.0,-0.37044570763,0.584297543163,-0.177766002763,1.0,0.0,0.0,0.0,1.0,0.0,0.0,0.0,1.0,-1.7591418457,1.08733886719,10.0339343262,0.1,0.0,0.0,0.0,0.1,0.0,0.0,0.0,0.1
1446038393231158380,9,1446038393227809906,robocape,-4.5774528148,-4.69076328213,-100.956735544,0.0,10.0,0.0,0.0,0.0,10.0,0.0,0.0,0.0,10.0,-0.501739549371,0.364320437123,-0.0599211245268,1.0,0.0,0.0,0.0,1.0,0.0,0.0,0.0,1.0,-1.58789794922,-0.343685302734,10.0183666992,0.1,0.0,0.0,0.0,0.1,0.0,0.0,0.0,0.1
1446038393264347172,10,1446038393261207103,robocape,-5.28587666994,-4.31651877782,-102.104321911,0.0,10.0,0.0,0.0,0.0,10.0,0.0,0.0,0.0,10.0,-0.386025200007,0.242880291415,-0.173371786964,1.0,0.0,0.0,0.0,1.0,0.0,0.0,0.0,1.0,-1.52083740234,-0.910107421875,10.6003564453,0.1,0.0,0.0,0.0,0.1,0.0,0.0,0.0,0.1
1446038393297535505,11,1446038393294526100,robocape,-5.86009838206,-4.05317080071,-103.324025546,0.0,10.0,0.0,0.0,0.0,10.0,0.0,0.0,0.0,10.0,-0.317715118046,0.192280230704,-0.245942926669,1.0,0.0,0.0,0.0,1.0,0.0,0.0,0.0,1.0,-2.069296875,-1.14841186523,10.9524243164,0.1,0.0,0.0,0.0,0.1,0.0,0.0,0.0,0.1
1446038393332170963,12,1446038393328646898,robocape,-6.29922623216,-3.98431141545,-104.424974782,0.0,10.0,0.0,0.0,0.0,10.0,0.0,0.0,0.0,10.0,-0.231162382619,0.0846885226645,-0.0704406108326,1.0,0.0,0.0,0.0,1.0,0.0,0.0,0.0,1.0,-2.12198730469,-1.48131958008,10.8326733398,0.1,0.0,0.0,0.0,0.1,0.0,0.0,0.0,0.1
1446038393363992422,13,1446038393361040115,robocape,-6.34879383232,-4.15141176621,-105.576668465,0.0,10.0,0.0,0.0,0.0,10.0,0.0,0.0,0.0,10.0,-0.0306263525359,-0.0342216200075,-0.116513297691,1.0,0.0,0.0,0.0,1.0,0.0,0.0,0.0,1.0,-1.64537841797,-1.78309204102,10.4686303711,0.1,0.0,0.0,0.0,0.1,0.0,0.0,0.0,0.1
1446038393397788047,14,1446038393394706964,robocape,-6.04832896799,-4.45224642076,-106.773717659,0.0,10.0,0.0,0.0,0.0,10.0,0.0,0.0,0.0,10.0,0.148071756608,-0.102265385859,-0.143011750537,1.0,0.0,0.0,0.0,1.0,0.0,0.0,0.0,1.0,-1.28373046875,-0.00718505859375,9.9980090332,0.1,0.0,0.0,0.0,0.1,0.0,0.0,0.0,0.1
1446038393431323088,15,1446038393427963972,robocape,-6.21267955911,-4.83919882483,-107.886175471,0.0,10.0,0.0,0.0,0.0,10.0,0.0,0.0,0.0,10.0,-0.0884169481906,-0.151933340189,-0.0320910911355,1.0,0.0,0.0,0.0,1.0,0.0,0.0,0.0,1.0,-0.997525634766,0.458646240234,9.75850708008,0.1,0.0,0.0,0.0,0.1,0.0,0.0,0.0,0.1
1446038393464046005,16,1446038393461011886,robocape,-6.64800113821,-5.31241785265,-108.963983501,0.0,10.0,0.0,0.0,0.0,10.0,0.0,0.0,0.0,10.0,-0.226901324875,-0.19600865623,0.0175768631945,1.0,0.0,0.0,0.0,1.0,0.0,0.0,0.0,1.0,-0.615520019531,-0.202379150391,9.86388793945,0.1,0.0,0.0,0.0,0.1,0.0,0.0,0.0,0.1
1446038393497326005,17,1446038393494394063,robocape,-7.31498177974,-5.79176032127,-109.996039463,0.0,10.0,0.0,0.0,0.0,10.0,0.0,0.0,0.0,10.0,-0.34088461953,-0.19867181732,0.0960069572974,1.0,0.0,0.0,0.0,1.0,0.0,0.0,0.0,1.0,-0.7280859375,-0.170046386719,9.79203735352,0.1,0.0,0.0,0.0,0.1,0.0,0.0,0.0,0.1
1446038393532083297,18,1446038393528640031,robocape,-8.14074411452,-6.15976354713,-110.961700866,0.0,10.0,0.0,0.0,0.0,10.0,0.0,0.0,0.0,10.0,-0.409061543436,-0.14367754081,0.234225017872,1.0,0.0,0.0,0.0,1.0,0.0,0.0,0.0,1.0,-0.954415283203,-0.680185546875,9.60043579102,0.1,0.0,0.0,0.0,0.1,0.0,0.0,0.0,0.1
1446038393564180088,19,1446038393560996055,robocape,-9.00604986546,-6.53033945355,-111.874901323,0.0,10.0,0.0,0.0,0.0,10.0,0.0,0.0,0.0,10.0,-0.415053655889,-0.148471230772,0.345545151438,1.0,0.0,0.0,0.0,1.0,0.0,0.0,0.0,1.0,-1.57592285156,0.201181640625,8.77774658203,0.1,0.0,0.0,0.0,0.1,0.0,0.0,0.0,0.1
1446038393597336630,20,1446038393594400882,robocape,-10.0299637612,-6.96369238792,-112.760603868,0.0,10.0,0.0,0.0,0.0,10.0,0.0,0.0,0.0,10.0,-0.48869006003,-0.18122811218,0.387623096661,1.0,0.0,0.0,0.0,1.0,0.0,0.0,0.0,1.0,-1.29211303711,-0.0898132324219,8.38496337891,0.1,0.0,0.0,0.0,0.1,0.0,0.0,0.0,0.1
1446038393631907297,21,1446038393628402948,robocape,-10.9151338635,-7.43227991886,-113.687823606,0.0,10.0,0.0,0.0,0.0,10.0,0.0,0.0,0.0,10.0,-0.416118920325,-0.193212337085,0.35566516358,1.0,0.0,0.0,0.0,1.0,0.0,0.0,0.0,1.0,-1.67052612305,-1.58430541992,8.23647216797,0.1,0.0,0.0,0.0,0.1,0.0,0.0,0.0,0.1
1446038393670952922,22,1446038393667956113,robocape,-10.8554236797,-7.93175905436,-114.84575175,0.0,10.0,0.0,0.0,0.0,10.0,0.0,0.0,0.0,10.0,0.0471379512944,-0.18242653467,0.126633309833,1.0,0.0,0.0,0.0,1.0,0.0,0.0,0.0,1.0,-1.37953125,-1.43820922852,7.76225830078,0.1,0.0,0.0,0.0,0.1,0.0,0.0,0.0,0.1
1446038393697236672,23,1446038393694310903,robocape,-10.3746980599,-8.41685779781,-116.132754342,0.0,10.0,0.0,0.0,0.0,10.0,0.0,0.0,0.0,10.0,0.247274507214,-0.161920194277,0.0175768631945,1.0,0.0,0.0,0.0,1.0,0.0,0.0,0.0,1.0,-1.07775878906,-1.04782104492,7.44372070313,0.1,0.0,0.0,0.0,0.1,0.0,0.0,0.0,0.1
1446038393731708172,24,1446038393728396892,robocape,-9.48645523719,-8.77467531801,-117.564184376,0.0,10.0,0.0,0.0,0.0,10.0,0.0,0.0,0.0,10.0,0.436625260718,-0.0860201032096,-0.0940095864798,1.0,0.0,0.0,0.0,1.0,0.0,0.0,0.0,1.0,-0.768801269531,-0.265847167969,7.21260131836,0.1,0.0,0.0,0.0,0.1,0.0,0.0,0.0,0.1
1446038393764348922,25,1446038393761121988,robocape,-8.69702073829,-8.85544245584,-119.02623118,0.0,10.0,0.0,0.0,0.0,10.0,0.0,0.0,0.0,10.0,0.38256309059,0.051798483202,-0.0482032157304,1.0,0.0,0.0,0.0,1.0,0.0,0.0,0.0,1.0,-0.608334960938,0.667012939453,7.58263183594,0.1,0.0,0.0,0.0,0.1,0.0,0.0,0.0,0.1
1446038393797306380,26,1446038393794441938,robocape,-8.30072611652,-8.57842501948,-120.479514261,0.0,10.0,0.0,0.0,0.0,10.0,0.0,0.0,0.0,10.0,0.183491799106,0.229830802074,0.0382163616426,1.0,0.0,0.0,0.0,1.0,0.0,0.0,0.0,1.0,-0.829874267578,0.556842041016,7.40180786133,0.1,0.0,0.0,0.0,0.1,0.0,0.0,0.0,0.1
1446038393832077422,27,1446038393828663110,robocape,-8.04478266276,-8.11297455344,-121.97263274,0.0,10.0,0.0,0.0,0.0,10.0,0.0,0.0,0.0,10.0,0.107591708039,0.326503549644,0.0250337142467,1.0,0.0,0.0,0.0,1.0,0.0,0.0,0.0,1.0,-1.48012207031,0.577199707031,7.25571166992,0.1,0.0,0.0,0.0,0.1,0.0,0.0,0.0,0.1
1446038393864342505,28,1446038393861129045,robocape,-8.07343134604,-7.59867582796,-123.495533551,0.0,10.0,0.0,0.0,0.0,10.0,0.0,0.0,0.0,10.0,-0.0454068965859,0.35300200249,-0.0299605622634,1.0,0.0,0.0,0.0,1.0,0.0,0.0,0.0,1.0,-1.94954589844,0.470621337891,7.56466918945,0.1,0.0,0.0,0.0,0.1,0.0,0.0,0.0,0.1
1446038393897270505,29,1446038393894403934,robocape,-7.95840700887,-7.12731566314,-125.108475974,0.0,10.0,0.0,0.0,0.0,10.0,0.0,0.0,0.0,10.0,0.016644756813,0.337688826222,-0.171907048365,1.0,0.0,0.0,0.0,1.0,0.0,0.0,0.0,1.0,-2.08246948242,-0.791553955078,7.47964599609,0.1,0.0,0.0,0.0,0.1,0.0,0.0,0.0,0.1
1446038393931583880,30,1446038393928258895,robocape,-7.4163460979,-6.90283483149,-126.868396086,0.0,10.0,0.0,0.0,0.0,10.0,0.0,0.0,0.0,10.0,0.210922358334,0.222773425185,-0.477637941506,1.0,0.0,0.0,0.0,1.0,0.0,0.0,0.0,1.0,-3.12550048828,-0.829874267578,8.01373535156,0.1,0.0,0.0,0.0,0.1,0.0,0.0,0.0,0.1
1446038393964418380,31,1446038393961252927,robocape,-6.67513991719,-7.37498570334,-128.690852425,0.0,10.0,0.0,0.0,0.0,10.0,0.0,0.0,0.0,10.0,0.289485610492,-0.136620163921,-0.747016685767,1.0,0.0,0.0,0.0,1.0,0.0,0.0,0.0,1.0,-3.53145629883,-0.525706787109,8.35622314453,0.1,0.0,0.0,0.0,0.1,0.0,0.0,0.0,0.1
1446038393997282422,32,1446038393994384050,robocape,-5.63465076536,-8.29166358983,-130.581822813,0.0,10.0,0.0,0.0,0.0,10.0,0.0,0.0,0.0,10.0,0.418116291142,-0.374307291211,-0.933171645964,1.0,0.0,0.0,0.0,1.0,0.0,0.0,0.0,1.0,-2.96024414063,-0.601149902344,9.59444824219,0.1,0.0,0.0,0.0,0.1,0.0,0.0,0.0,0.1
1446038394031683422,33,1446038394028366088,robocape,-4.8498358254,-9.31066306482,-132.481452209,0.0,10.0,0.0,0.0,0.0,10.0,0.0,0.0,0.0,10.0,0.262987157645,-0.442084740953,-0.981508019749,1.0,0.0,0.0,0.0,1.0,0.0,0.0,0.0,1.0,-2.08246948242,0.519719238281,10.6578369141,0.1,0.0,0.0,0.0,0.1,0.0,0.0,0.0,0.1
1446038394064523380,34,1446038394061386108,robocape,-4.69044546992,-10.1424353725,-134.329036404,0.0,10.0,0.0,0.0,0.0,10.0,0.0,0.0,0.0,10.0,-0.0692421883421,-0.355132531362,-0.878710001672,1.0,0.0,0.0,0.0,1.0,0.0,0.0,0.0,1.0,-0.119750976563,0.182021484375,11.1236682129,0.1,0.0,0.0,0.0,0.1,0.0,0.0,0.0,0.1
1446038394097229339,35,1446038394094290971,robocape,-4.8755138491,-10.4421566247,-136.141700518,0.0,10.0,0.0,0.0,0.0,10.0,0.0,0.0,0.0,10.0,-0.236488704799,-0.0793622004844,-0.663260269484,1.0,0.0,0.0,0.0,1.0,0.0,0.0,0.0,1.0,0.726888427734,-0.698148193359,11.4218481445,0.1,0.0,0.0,0.0,0.1,0.0,0.0,0.0,0.1
1446038394131739380,36,1446038394128422021,robocape,-4.86098318829,-9.85040167642,-137.982182407,0.0,10.0,0.0,0.0,0.0,10.0,0.0,0.0,0.0,10.0,-0.100933805314,0.384560461407,-0.355931479689,1.0,0.0,0.0,0.0,1.0,0.0,0.0,0.0,1.0,0.261057128906,-2.54590576172,12.5223596191,0.1,0.0,0.0,0.0,0.1,0.0,0.0,0.0,0.1
1446038394164479672,37,1446038394161348104,robocape,-4.60171854004,-8.88926670369,-139.849397191,0.0,10.0,0.0,0.0,0.0,10.0,0.0,0.0,0.0,10.0,0.0511326929295,0.571647527986,-0.18801917296,1.0,0.0,0.0,0.0,1.0,0.0,0.0,0.0,1.0,-1.25259521484,-0.930465087891,12.7702441406,0.1,0.0,0.0,0.0,0.1,0.0,0.0,0.0,0.1
1446038394197395672,38,1446038394194474935,robocape,-4.51629525198,-7.99992494245,-141.696621343,0.0,10.0,0.0,0.0,0.0,10.0,0.0,0.0,0.0,10.0,-0.0230363434292,0.528238002217,-0.11265171411,1.0,0.0,0.0,0.0,1.0,0.0,0.0,0.0,1.0,-2.01780395508,-0.9580078125,12.451706543,0.1,0.0,0.0,0.0,0.1,0.0,0.0,0.0,0.1
1446038394231691047,39,1446038394228513002,robocape,-4.20303480381,-7.41630557787,-143.561100064,0.0,10.0,0.0,0.0,0.0,10.0,0.0,0.0,0.0,10.0,0.100800647259,0.364187279068,-0.124502780961,1.0,0.0,0.0,0.0,1.0,0.0,0.0,0.0,1.0,-2.55428833008,-0.76640625,12.8109594727,0.1,0.0,0.0,0.0,0.1,0.0,0.0,0.0,0.1
1446038394264006797,40,1446038394261109113,robocape,-3.58669568607,-7.13923263621,-145.446856167,0.0,10.0,0.0,0.0,0.0,10.0,0.0,0.0,0.0,10.0,0.260989786828,0.197473394829,-0.126500151779,1.0,0.0,0.0,0.0,1.0,0.0,0.0,0.0,1.0,-1.89206542969,-0.692160644531,12.4600891113,0.1,0.0,0.0,0.0,0.1,0.0,0.0,0.0,0.1
1446038394297431922,41,1446038394294567108,robocape,-2.85439218968,-6.97728310795,-147.35314569,0.0,10.0,0.0,0.0,0.0,10.0,0.0,0.0,0.0,10.0,0.321044069409,0.129562787032,-0.127964890378,1.0,0.0,0.0,0.0,1.0,0.0,0.0,0.0,1.0,-0.461041259766,0.0922082519531,11.7272131348,0.1,0.0,0.0,0.0,0.1,0.0,0.0,0.0,0.1
1446038394331601380,42,1446038394328447103,robocape,-2.2022651164,-6.67669279825,-149.259557902,0.0,10.0,0.0,0.0,0.0,10.0,0.0,0.0,0.0,10.0,0.288686662165,0.193079179031,0.00279631914458,1.0,0.0,0.0,0.0,1.0,0.0,0.0,0.0,1.0,1.1148815918,0.408350830078,10.9248815918,0.1,0.0,0.0,0.0,0.1,0.0,0.0,0.0,0.1
1446038394364003255,43,1446038394361021995,robocape,-1.84655736794,-6.2349652427,-151.150192802,0.0,10.0,0.0,0.0,0.0,10.0,0.0,0.0,0.0,10.0,0.147405966336,0.260856628773,0.17590179,1.0,0.0,0.0,0.0,1.0,0.0,0.0,0.0,1.0,1.49329467773,1.42982666016,10.7823779297,0.1,0.0,0.0,0.0,0.1,0.0,0.0,0.0,0.1
1446038394398712964,44,1446038394395567893,robocape,-1.87734144814,-5.6981323938,-153.033429362,0.0,10.0,0.0,0.0,0.0,10.0,0.0,0.0,0.0,10.0,-0.0451405804768,0.308527212286,0.277368227532,1.0,0.0,0.0,0.0,1.0,0.0,0.0,0.0,1.0,1.07296875,1.36156860352,10.918894043,0.1,0.0,0.0,0.0,0.1,0.0,0.0,0.0,0.1
1446038394431364922,45,1446038394428230047,robocape,-2.05885046095,-5.15857148457,-154.933496751,0.0,10.0,0.0,0.0,0.0,10.0,0.0,0.0,0.0,10.0,-0.120774355435,0.309193002558,0.280963495003,1.0,0.0,0.0,0.0,1.0,0.0,0.0,0.0,1.0,0.409548339844,0.530496826172,11.1260632324,0.1,0.0,0.0,0.0,0.1,0.0,0.0,0.0,0.1
1446038394464455922,46,1446038394461289882,robocape,-1.96749054413,-4.66390730734,-156.87288569,0.0,10.0,0.0,0.0,0.0,10.0,0.0,0.0,0.0,10.0,0.0209058145571,0.283360339984,0.222773425185,1.0,0.0,0.0,0.0,1.0,0.0,0.0,0.0,1.0,-0.117355957031,-0.257464599609,11.3931079102,0.1,0.0,0.0,0.0,0.1,0.0,0.0,0.0,0.1
1446038394497165464,47,1446038394494302988,robocape,-1.58230918047,-4.30266355348,-158.839126213,0.0,10.0,0.0,0.0,0.0,10.0,0.0,0.0,0.0,10.0,0.176301264163,0.208791829462,0.241815026979,1.0,0.0,0.0,0.0,1.0,0.0,0.0,0.0,1.0,-0.652642822266,0.786763916016,11.8709143066,0.1,0.0,0.0,0.0,0.1,0.0,0.0,0.0,0.1
1446038394531514464,48,1446038394528369903,robocape,-1.16498721188,-4.23594445947,-160.814841617,0.0,10.0,0.0,0.0,0.0,10.0,0.0,0.0,0.0,10.0,0.19454391763,0.0503337446025,0.309991950885,1.0,0.0,0.0,0.0,1.0,0.0,0.0,0.0,1.0,-1.76512939453,0.292192382813,12.3092028809,0.1,0.0,0.0,0.0,0.1,0.0,0.0,0.0,0.1
1446038394564251714,49,1446038394560970067,robocape,-0.636132591999,-4.68444408609,-162.814928711,0.0,10.0,0.0,0.0,0.0,10.0,0.0,0.0,0.0,10.0,0.241415552816,-0.222373951022,0.160455455677,1.0,0.0,0.0,0.0,1.0,0.0,0.0,0.0,1.0,-2.35190917969,0.705333251953,12.0445532227,0.1,0.0,0.0,0.0,0.1,0.0,0.0,0.0,0.1
1446038394597433297,50,1446038394594460010,robocape,-0.138030709829,-5.29058121141,-164.840921256,0.0,10.0,0.0,0.0,0.0,10.0,0.0,0.0,0.0,10.0,0.210656042225,-0.308793528395,-0.0376837294246,1.0,0.0,0.0,0.0,1.0,0.0,0.0,0.0,1.0,-1.95912597656,1.36037109375,11.3452075195,0.1,0.0,0.0,0.0,0.1,0.0,0.0,0.0,0.1
1446038394632407255,51,1446038394628331899,robocape,0.0865841382407,-5.7017072586,-166.874546508,0.0,10.0,0.0,0.0,0.0,10.0,0.0,0.0,0.0,10.0,0.0600542825813,-0.209590777789,-0.0985369603329,1.0,0.0,0.0,0.0,1.0,0.0,0.0,0.0,1.0,-1.13883178711,0.560434570312,10.9117089844,0.1,0.0,0.0,0.0,0.1,0.0,0.0,0.0,0.1
1446038394670877797,52,1446038394667876958,robocape,0.171787663039,-5.47862778423,-168.918326413,0.0,10.0,0.0,0.0,0.0,10.0,0.0,0.0,0.0,10.0,-0.016378440704,0.119842249054,-0.195342865957,1.0,0.0,0.0,0.0,1.0,0.0,0.0,0.0,1.0,-0.493374023438,0.959205322266,11.3176647949,0.1,0.0,0.0,0.0,0.1,0.0,0.0,0.0,0.1
1446038394697333922,53,1446038394694381952,robocape,0.0779571381767,-4.9920067183,-170.963539551,0.0,10.0,0.0,0.0,0.0,10.0,0.0,0.0,0.0,10.0,-0.106792759712,0.257261361302,-0.229963960128,1.0,0.0,0.0,0.0,1.0,0.0,0.0,0.0,1.0,-1.19391723633,0.628692626953,11.5559692383,0.1,0.0,0.0,0.0,0.1,0.0,0.0,0.0,0.1
1446038394732729256,54,1446038394728266000,robocape,-0.00236580515778,-4.47643621978,-173.015410743,0.0,10.0,0.0,0.0,0.0,10.0,0.0,0.0,0.0,10.0,-0.0890827384632,0.272840853679,-0.116646455745,1.0,0.0,0.0,0.0,1.0,0.0,0.0,0.0,1.0,-1.67531616211,0.511336669922,11.6254248047,0.1,0.0,0.0,0.0,0.1,0.0,0.0,0.0,0.1
1446038394764166464,55,1446038394761091947,robocape,-0.0275539834629,-4.30399140534,-175.073509704,0.0,10.0,0.0,0.0,0.0,10.0,0.0,0.0,0.0,10.0,-0.050200586548,0.0932106381528,0.0876179998636,1.0,0.0,0.0,0.0,1.0,0.0,0.0,0.0,1.0,-1.89446044922,0.331710205078,11.5463891602,0.1,0.0,0.0,0.0,0.1,0.0,0.0,0.0,0.1
1446038394797312964,56,1446038394794401884,robocape,-0.112934996169,-4.39701837522,-177.133516447,0.0,10.0,0.0,0.0,0.0,10.0,0.0,0.0,0.0,10.0,-0.0770985135578,-0.0455400546404,0.237420811181,1.0,0.0,0.0,0.0,1.0,0.0,0.0,0.0,1.0,-1.73998168945,0.477806396484,10.8566235352,0.1,0.0,0.0,0.0,0.1,0.0,0.0,0.0,0.1
1446038394831587589,57,1446038394828151941,robocape,-0.236506327377,-4.5696359412,-179.195156628,0.0,10.0,0.0,0.0,0.0,10.0,0.0,0.0,0.0,10.0,-0.0986701183874,-0.0870853676456,0.234491333981,1.0,0.0,0.0,0.0,1.0,0.0,0.0,0.0,1.0,-1.41665405273,0.225131835938,10.2578686523,0.1,0.0,0.0,0.0,0.1,0.0,0.0,0.0,0.1
1446038394863921256,58,1446038394860912084,robocape,-0.305169511012,-4.68472415979,178.739792704,0.0,10.0,0.0,0.0,0.0,10.0,0.0,0.0,0.0,10.0,-0.0701742947236,-0.0575242795457,0.249804510249,1.0,0.0,0.0,0.0,1.0,0.0,0.0,0.0,1.0,-0.969982910156,-0.0275427246094,9.93933105469,0.1,0.0,0.0,0.0,0.1,0.0,0.0,0.0,0.1
1446038394897411922,59,1446038394894500970,robocape,-0.242229534912,-4.62815530989,176.670124772,0.0,10.0,0.0,0.0,0.0,10.0,0.0,0.0,0.0,10.0,-0.000399474163512,0.0306263525359,0.256462412975,1.0,0.0,0.0,0.0,1.0,0.0,0.0,0.0,1.0,-1.07177124023,-0.240699462891,10.0004040527,0.1,0.0,0.0,0.0,0.1,0.0,0.0,0.0,0.1
1446038394931289464,60,1446038394928175926,robocape,-0.0494956085475,-4.45175908169,174.598897586,0.0,10.0,0.0,0.0,0.0,10.0,0.0,0.0,0.0,10.0,0.0685763980695,0.0908137931717,0.244345030015,1.0,0.0,0.0,0.0,1.0,0.0,0.0,0.0,1.0,-1.39749389648,-0.141306152344,10.1105749512,0.1,0.0,0.0,0.0,0.1,0.0,0.0,0.0,0.1
1446038394964378297,61,1446038394961157083,robocape,0.148705036611,-5.01548966541,172.53076739,0.0,10.0,0.0,0.0,0.0,10.0,0.0,0.0,0.0,10.0,0.0647148144889,-0.299339306525,0.214517625806,1.0,0.0,0.0,0.0,1.0,0.0,0.0,0.0,1.0,-4.90619750977,0.547261962891,11.8278039551,0.1,0.0,0.0,0.0,0.1,0.0,0.0,0.0,0.1
1446038394997279256,62,1446038394994398117,robocape,0.192827866964,-5.6051515455,170.474472133,0.0,10.0,0.0,0.0,0.0,10.0,0.0,0.0,0.0,10.0,-0.0202400242846,-0.314386166684,0.213052887206,1.0,0.0,0.0,0.0,1.0,0.0,0.0,0.0,1.0,-0.395178222656,0.17244140625,9.35015625,0.1,0.0,0.0,0.0,0.1,0.0,0.0,0.0,0.1
1446038395031446172,63,1446038395028335094,robocape,0.394621121214,-6.41750800093,168.414571828,0.0,10.0,0.0,0.0,0.0,10.0,0.0,0.0,0.0,10.0,0.0524642734746,-0.434494731846,0.145408595518,1.0,0.0,0.0,0.0,1.0,0.0,0.0,0.0,1.0,-2.27526855469,-0.359252929688,9.14538208008,0.1,0.0,0.0,0.0,0.1,0.0,0.0,0.0,0.1
1446038395064090381,64,1446038395061144113,robocape,0.893949318471,-7.15922314797,166.342868809,0.0,10.0,0.0,0.0,0.0,10.0,0.0,0.0,0.0,10.0,0.202000768683,-0.404001537365,0.13954964112,1.0,0.0,0.0,0.0,1.0,0.0,0.0,0.0,1.0,-2.17467773438,0.473016357422,10.1560803223,0.1,0.0,0.0,0.0,0.1,0.0,0.0,0.0,0.1
1446038395097428131,65,1446038395094482898,robocape,1.26564903785,-7.99834654705,164.2838247,0.0,10.0,0.0,0.0,0.0,10.0,0.0,0.0,0.0,10.0,0.132492264231,-0.460194236366,0.196274972339,1.0,0.0,0.0,0.0,1.0,0.0,0.0,0.0,1.0,-0.935255126953,1.04422851562,10.096204834,0.1,0.0,0.0,0.0,0.1,0.0,0.0,0.0,0.1
1446038395131130631,66,1446038395128035068,robocape,1.45960473846,-8.83972368239,162.245476577,0.0,10.0,0.0,0.0,0.0,10.0,0.0,0.0,0.0,10.0,0.0344879361165,-0.465121084382,0.203066033119,1.0,0.0,0.0,0.0,1.0,0.0,0.0,0.0,1.0,-0.3065625,0.934057617188,10.2003881836,0.1,0.0,0.0,0.0,0.1,0.0,0.0,0.0,0.1
1446038395164254839,67,1446038395161323070,robocape,1.5755865394,-9.47477166536,160.229289264,0.0,10.0,0.0,0.0,0.0,10.0,0.0,0.0,0.0,10.0,-0.0109189604693,-0.360325695488,0.183624957161,1.0,0.0,0.0,0.0,1.0,0.0,0.0,0.0,1.0,-0.219144287109,1.11967163086,10.5620361328,0.1,0.0,0.0,0.0,0.1,0.0,0.0,0.0,0.1
1446038395197485631,68,1446038395194540023,robocape,1.56952064604,-9.89312357996,158.241699346,0.0,10.0,0.0,0.0,0.0,10.0,0.0,0.0,0.0,10.0,-0.0806937810294,-0.248739245813,0.128364364542,1.0,0.0,0.0,0.0,1.0,0.0,0.0,0.0,1.0,0.0155676269531,0.350870361328,10.3907922363,0.1,0.0,0.0,0.0,0.1,0.0,0.0,0.0,0.1
1446038395231252839,69,1446038395228214025,robocape,1.65736987593,-10.2023383858,156.266511782,0.0,10.0,0.0,0.0,0.0,10.0,0.0,0.0,0.0,10.0,-0.033555829735,-0.19454391763,0.119975407108,1.0,0.0,0.0,0.0,1.0,0.0,0.0,0.0,1.0,0.256267089844,0.0718505859375,10.1297351074,0.1,0.0,0.0,0.0,0.1,0.0,0.0,0.0,0.1
1446038395263921839,70,1446038395261015892,robocape,1.851108745,-10.4747932725,154.298433968,0.0,10.0,0.0,0.0,0.0,10.0,0.0,0.0,0.0,10.0,0.0167779148675,-0.178964425253,0.0773648296668,1.0,0.0,0.0,0.0,1.0,0.0,0.0,0.0,1.0,-0.086220703125,0.207169189453,9.82197509766,0.1,0.0,0.0,0.0,0.1,0.0,0.0,0.0,0.1
1446038395297592006,71,1446038395294708967,robocape,2.16050959996,-10.8335186241,152.332471742,0.0,10.0,0.0,0.0,0.0,10.0,0.0,0.0,0.0,10.0,0.0721716655411,-0.229031853747,0.0470047932399,1.0,0.0,0.0,0.0,1.0,0.0,0.0,0.0,1.0,-0.110170898438,0.319735107422,10.0411193848,0.1,0.0,0.0,0.0,0.1,0.0,0.0,0.0,0.1
1446038395331394214,72,1446038395328138113,robocape,2.54380488257,-11.2628748351,150.359343055,0.0,10.0,0.0,0.0,0.0,10.0,0.0,0.0,0.0,10.0,0.0942759025888,-0.271376115079,-0.0866858934821,1.0,0.0,0.0,0.0,1.0,0.0,0.0,0.0,1.0,0.317340087891,0.759221191406,10.0447119141,0.1,0.0,0.0,0.0,0.1,0.0,0.0,0.0,0.1
1446038395363876714,73,1446038395361015081,robocape,2.85998103737,-11.6384155768,148.406333103,0.0,10.0,0.0,0.0,0.0,10.0,0.0,0.0,0.0,10.0,0.0525974315291,-0.247940297486,-0.131693315904,1.0,0.0,0.0,0.0,1.0,0.0,0.0,0.0,1.0,0.130528564453,0.801134033203,10.1680554199,0.1,0.0,0.0,0.0,0.1,0.0,0.0,0.0,0.1
1446038395397425964,74,1446038395394511938,robocape,3.06892155314,-11.9581200973,146.487641332,0.0,10.0,0.0,0.0,0.0,10.0,0.0,0.0,0.0,10.0,-0.00266316109008,-0.222240792967,-0.116513297691,1.0,0.0,0.0,0.0,1.0,0.0,0.0,0.0,1.0,-0.209564208984,0.835861816406,10.1740429688,0.1,0.0,0.0,0.0,0.1,0.0,0.0,0.0,0.1
1446038395431185964,75,1446038395428112030,robocape,3.15613223745,-12.1870599715,144.611701707,0.0,10.0,0.0,0.0,0.0,10.0,0.0,0.0,0.0,10.0,-0.0628506017259,-0.176700738327,-0.0905474770627,1.0,0.0,0.0,0.0,1.0,0.0,0.0,0.0,1.0,-0.0167651367188,0.560434570312,10.1165625,0.1,0.0,0.0,0.0,0.1,0.0,0.0,0.0,0.1
1446038395464058173,76,1446038395461067914,robocape,3.15156726566,-12.3421310272,142.780785032,0.0,10.0,0.0,0.0,0.0,10.0,0.0,0.0,0.0,10.0,-0.104395914731,-0.139017008902,-0.0463390029674,1.0,0.0,0.0,0.0,1.0,0.0,0.0,0.0,1.0,-0.0922082519531,0.367635498047,9.886640625,0.1,0.0,0.0,0.0,0.1,0.0,0.0,0.0,0.1
1446038395497407464,77,1446038395494515895,robocape,3.14455006334,-12.4833887362,140.981164892,0.0,10.0,0.0,0.0,0.0,10.0,0.0,0.0,0.0,10.0,-0.101599595587,-0.133024896449,-0.0183758115215,1.0,0.0,0.0,0.0,1.0,0.0,0.0,0.0,1.0,-0.165256347656,-0.067060546875,9.91418334961,0.1,0.0,0.0,0.0,0.1,0.0,0.0,0.0,0.1
1446038395531748881,78,1446038395528312921,robocape,3.34388354129,-12.7129146306,139.162781868,0.0,10.0,0.0,0.0,0.0,10.0,0.0,0.0,0.0,10.0,-0.00466053190764,-0.182826008834,-0.0920122156622,1.0,0.0,0.0,0.0,1.0,0.0,0.0,0.0,1.0,-0.484991455078,-0.567619628906,9.47349975586,0.1,0.0,0.0,0.0,0.1,0.0,0.0,0.0,0.1
1446038395564151881,79,1446038395561026096,robocape,3.9524016613,-13.2797990889,137.264578519,0.0,10.0,0.0,0.0,0.0,10.0,0.0,0.0,0.0,10.0,0.18389127327,-0.368315178758,-0.228099747365,1.0,0.0,0.0,0.0,1.0,0.0,0.0,0.0,1.0,-0.831071777344,-0.488583984375,9.49744995117,0.1,0.0,0.0,0.0,0.1,0.0,0.0,0.0,0.1
1446038395597642423,80,1446038395594522953,robocape,4.21623378506,-12.6881795517,135.558653055,0.0,10.0,0.0,0.0,0.0,10.0,0.0,0.0,0.0,10.0,0.0448742643678,0.239151865889,-0.0641821822709,1.0,0.0,0.0,0.0,1.0,0.0,0.0,0.0,1.0,3.1458581543,2.13156738281,11.9595300293,0.1,0.0,0.0,0.0,0.1,0.0,0.0,0.0,0.1
1446038395631264964,81,1446038395628226995,robocape,4.24126419624,-12.2884350812,133.923132732,0.0,10.0,0.0,0.0,0.0,10.0,0.0,0.0,0.0,10.0,-0.0593884923088,0.140215431393,0.0482032157304,1.0,0.0,0.0,0.0,1.0,0.0,0.0,0.0,1.0,0.129331054688,0.641865234375,10.5584436035,0.1,0.0,0.0,0.0,0.1,0.0,0.0,0.0,0.1
1446038395671607256,82,1446038395668401002,robocape,4.16033656462,-12.0143600673,132.311748747,0.0,10.0,0.0,0.0,0.0,10.0,0.0,0.0,0.0,10.0,-0.114649084928,0.0756337749583,0.0276968753368,1.0,0.0,0.0,0.0,1.0,0.0,0.0,0.0,1.0,0.0886157226563,0.833466796875,10.2183508301,0.1,0.0,0.0,0.0,0.1,0.0,0.0,0.0,0.1
1446038395697298506,83,1446038395694367885,robocape,4.04749280211,-11.7801097681,130.729496359,0.0,10.0,0.0,0.0,0.0,10.0,0.0,0.0,0.0,10.0,-0.128231206487,0.0560595409462,0.0288952978274,1.0,0.0,0.0,0.0,1.0,0.0,0.0,0.0,1.0,0.156873779297,0.341290283203,10.0854272461,0.1,0.0,0.0,0.0,0.1,0.0,0.0,0.0,0.1
1446038395731178089,84,1446038395728199958,robocape,3.93735338488,-11.543893847,129.174918345,0.0,10.0,0.0,0.0,0.0,10.0,0.0,0.0,0.0,10.0,-0.124103306798,0.0583232278727,0.0260989786828,1.0,0.0,0.0,0.0,1.0,0.0,0.0,0.0,1.0,0.36404296875,0.166453857422,9.84951782227,0.1,0.0,0.0,0.0,0.1,0.0,0.0,0.0,0.1
1446038395764222048,85,1446038395761113882,robocape,3.84952237243,-11.2869850899,127.643782442,0.0,10.0,0.0,0.0,0.0,10.0,0.0,0.0,0.0,10.0,-0.110920659402,0.0703074527781,0.0126500151779,1.0,0.0,0.0,0.0,1.0,0.0,0.0,0.0,1.0,0.774788818359,0.243094482422,9.93813354492,0.1,0.0,0.0,0.0,0.1,0.0,0.0,0.0,0.1
1446038395797390964,86,1446038395794507980,robocape,3.85622974663,-11.1046358727,126.118105378,0.0,10.0,0.0,0.0,0.0,10.0,0.0,0.0,0.0,10.0,-0.0623179695079,0.0311589847539,-0.00958737992429,1.0,0.0,0.0,0.0,1.0,0.0,0.0,0.0,1.0,0.0946032714844,-0.213156738281,9.91418334961,0.1,0.0,0.0,0.0,0.1,0.0,0.0,0.0,0.1
1446038395831598923,87,1446038395827841997,robocape,3.93345250078,-10.8276232739,124.627275595,0.0,10.0,0.0,0.0,0.0,10.0,0.0,0.0,0.0,10.0,-0.0194410759576,0.0809600971384,0.0031957933081,1.0,0.0,0.0,0.0,1.0,0.0,0.0,0.0,1.0,-0.265847167969,-0.483793945313,9.71180419922,0.1,0.0,0.0,0.0,0.1,0.0,0.0,0.0,0.1
1446038395863959964,88,1446038395860908031,robocape,4.07196535618,-10.4669254123,123.17023863,0.0,10.0,0.0,0.0,0.0,10.0,0.0,0.0,0.0,10.0,0.0186421276306,0.125035413179,0.0111852765783,1.0,0.0,0.0,0.0,1.0,0.0,0.0,0.0,1.0,-0.0335302734375,-0.0251477050781,10.1021923828,0.1,0.0,0.0,0.0,0.1,0.0,0.0,0.0,0.1
1446038395897287423,89,1446038395894399881,robocape,4.23828803484,-10.1638184659,121.730672852,0.0,10.0,0.0,0.0,0.0,10.0,0.0,0.0,0.0,10.0,0.0355532005526,0.0946753767523,0.000932106381528,1.0,0.0,0.0,0.0,1.0,0.0,0.0,0.0,1.0,0.178428955078,0.245489501953,10.3428918457,0.1,0.0,0.0,0.0,0.1,0.0,0.0,0.0,0.1
1446038395931178839,90,1446038395927777051,robocape,4.40933606031,-9.95978223705,120.317088898,0.0,10.0,0.0,0.0,0.0,10.0,0.0,0.0,0.0,10.0,0.0424774193868,0.0424774193868,0.0146473859954,1.0,0.0,0.0,0.0,1.0,0.0,0.0,0.0,1.0,-0.0395178222656,0.502954101562,10.1668579102,0.1,0.0,0.0,0.0,0.1,0.0,0.0,0.0,0.1
1446038395964044714,91,1446038395960952043,robocape,4.54772679606,-9.77773303729,118.925591191,0.0,10.0,0.0,0.0,0.0,10.0,0.0,0.0,0.0,10.0,0.0266316109008,0.0308926686449,0.000399474163512,1.0,0.0,0.0,0.0,1.0,0.0,0.0,0.0,1.0,0.36404296875,0.55564453125,10.0578845215,0.1,0.0,0.0,0.0,0.1,0.0,0.0,0.0,0.1
1446038395997320214,92,1446038395994415998,robocape,4.59904471104,-9.61292124082,117.570235753,0.0,10.0,0.0,0.0,0.0,10.0,0.0,0.0,0.0,10.0,-0.0154463343225,0.0227700273202,0.0067910607797,1.0,0.0,0.0,0.0,1.0,0.0,0.0,0.0,1.0,0.414338378906,0.319735107422,10.0255517578,0.1,0.0,0.0,0.0,0.1,0.0,0.0,0.0,0.1
1446038396031372048,93,1446038396027959108,robocape,4.59361641047,-9.45755262917,116.25035337,0.0,10.0,0.0,0.0,0.0,10.0,0.0,0.0,0.0,10.0,-0.0416784710597,0.0190416017941,0.016112124595,1.0,0.0,0.0,0.0,1.0,0.0,0.0,0.0,1.0,0.0838256835938,0.283809814453,10.0135766602,0.1,0.0,0.0,0.0,0.1,0.0,0.0,0.0,0.1
1446038396063975548,94,1446038396060995101,robocape,4.55800154171,-9.30215357585,114.95814018,0.0,10.0,0.0,0.0,0.0,10.0,0.0,0.0,0.0,10.0,-0.0556600667827,0.0202400242846,0.0137152796139,1.0,0.0,0.0,0.0,1.0,0.0,0.0,0.0,1.0,0.123343505859,0.298179931641,10.024354248,0.1,0.0,0.0,0.0,0.1,0.0,0.0,0.0,0.1
1446038396098791381,95,1446038396095787048,robocape,4.49457205374,-9.15018583603,113.695175567,0.0,10.0,0.0,0.0,0.0,10.0,0.0,0.0,0.0,10.0,-0.0680437658515,0.0198405501211,0.016112124595,1.0,0.0,0.0,0.0,1.0,0.0,0.0,0.0,1.0,0.288599853516,0.279019775391,10.019564209,0.1,0.0,0.0,0.0,0.1,0.0,0.0,0.0,0.1
1446038396131397298,96,1446038396127969026,robocape,4.40776721373,-9.0043175663,112.459354359,0.0,10.0,0.0,0.0,0.0,10.0,0.0,0.0,0.0,10.0,-0.0785632521573,0.0181094954125,0.016644756813,1.0,0.0,0.0,0.0,1.0,0.0,0.0,0.0,1.0,0.178428955078,0.243094482422,10.0339343262,0.1,0.0,0.0,0.0,0.1,0.0,0.0,0.0,0.1
1446038396171291506,97,1446038396168266057,robocape,4.29690205207,-8.86265375497,111.248396705,0.0,10.0,0.0,0.0,0.0,10.0,0.0,0.0,0.0,10.0,-0.0900148448447,0.01744370514,0.0138484376684,1.0,0.0,0.0,0.0,1.0,0.0,0.0,0.0,1.0,0.128133544922,0.129331054688,10.0171691895,0.1,0.0,0.0,0.0,0.1,0.0,0.0,0.0,0.1
1446038396197373548,98,1446038396194431066,robocape,4.22404097482,-8.72060088488,110.057731025,0.0,10.0,0.0,0.0,0.0,10.0,0.0,0.0,0.0,10.0,-0.0689758722331,0.0187752856851,0.0110521185238,1.0,0.0,0.0,0.0,1.0,0.0,0.0,0.0,1.0,0.203576660156,-0.0706530761719,10.0099841309,0.1,0.0,0.0,0.0,0.1,0.0,0.0,0.0,0.1
1446038396231182715,99,1446038396227899074,robocape,4.22914991693,-8.57509349922,108.883271452,0.0,10.0,0.0,0.0,0.0,10.0,0.0,0.0,0.0,10.0,-0.0270310850643,0.0211721306661,0.00625842856169,1.0,0.0,0.0,0.0,1.0,0.0,0.0,0.0,1.0,0.208366699219,-0.252674560547,10.0207617188,0.1,0.0,0.0,0.0,0.1,0.0,0.0,0.0,0.1
1446038396264138715,100,1446038396261059999,robocape,4.31332850271,-8.42626531247,107.727219256,0.0,10.0,0.0,0.0,0.0,10.0,0.0,0.0,0.0,10.0,0.0162452826495,0.0231695014837,0.00545948023466,1.0,0.0,0.0,0.0,1.0,0.0,0.0,0.0,1.0,0.216749267578,-0.228724365234,10.0207617188,0.1,0.0,0.0,0.0,0.1,0.0,0.0,0.0,0.1
1446038396297376131,101,1446038396294508934,robocape,4.46037563757,-8.27388958941,106.589489715,0.0,10.0,0.0,0.0,0.0,10.0,0.0,0.0,0.0,10.0,0.0511326929295,0.0250337142467,0.0033289513626,1.0,0.0,0.0,0.0,1.0,0.0,0.0,0.0,1.0,0.216749267578,-0.0730480957031,10.0063916016,0.1,0.0,0.0,0.0,0.1,0.0,0.0,0.0,0.1
1446038396331213298,102,1446038396327923059,robocape,4.62299555771,-8.11986488527,105.475936067,0.0,10.0,0.0,0.0,0.0,10.0,0.0,0.0,0.0,10.0,0.0619184953443,0.0260989786828,0.00612527050718,1.0,0.0,0.0,0.0,1.0,0.0,0.0,0.0,1.0,0.186811523438,0.188009033203,10.0279467773,0.1,0.0,0.0,0.0,0.1,0.0,0.0,0.0,0.1
1446038396363921423,103,1446038396360938072,robocape,4.74798714461,-7.96930175308,104.385541999,0.0,10.0,0.0,0.0,0.0,10.0,0.0,0.0,0.0,10.0,0.0440753160408,0.0247673981377,0.00386158358061,1.0,0.0,0.0,0.0,1.0,0.0,0.0,0.0,1.0,0.147293701172,0.320932617188,10.0255517578,0.1,0.0,0.0,0.0,0.1,0.0,0.0,0.0,0.1
1446038396397660423,104,1446038396394659996,robocape,4.79495221192,-7.82441345923,103.323791123,0.0,10.0,0.0,0.0,0.0,10.0,0.0,0.0,0.0,10.0,0.00532632218016,0.0229031853747,0.0067910607797,1.0,0.0,0.0,0.0,1.0,0.0,0.0,0.0,1.0,0.222736816406,0.358055419922,10.0650695801,0.1,0.0,0.0,0.0,0.1,0.0,0.0,0.0,0.1
1446038396430811340,105,1446038396427865982,robocape,4.77856141828,-7.68592759406,102.289215052,0.0,10.0,0.0,0.0,0.0,10.0,0.0,0.0,0.0,10.0,-0.0260989786828,0.0209058145571,0.00985369603329,1.0,0.0,0.0,0.0,1.0,0.0,0.0,0.0,1.0,0.180823974609,0.290994873047,10.0315393066,0.1,0.0,0.0,0.0,0.1,0.0,0.0,0.0,0.1
1446038396463885048,106,1446038396460951089,robocape,4.7294400441,-7.55193011736,101.276328285,0.0,10.0,0.0,0.0,0.0,10.0,0.0,0.0,0.0,10.0,-0.0422111032778,0.0198405501211,0.00865527354276,1.0,0.0,0.0,0.0,1.0,0.0,0.0,0.0,1.0,0.185614013672,0.0981958007813,10.0279467773,0.1,0.0,0.0,0.0,0.1,0.0,0.0,0.0,0.1
1446038396497244798,107,1446038396494357109,robocape,4.69463548886,-7.41927794465,100.28315518,0.0,10.0,0.0,0.0,0.0,10.0,0.0,0.0,0.0,10.0,-0.033555829735,0.0202400242846,0.00892158965177,1.0,0.0,0.0,0.0,1.0,0.0,0.0,0.0,1.0,0.209564208984,-0.0526904296875,10.0135766602,0.1,0.0,0.0,0.0,0.1,0.0,0.0,0.0,0.1
1446038396531253673,108,1446038396528119087,robocape,4.70340577717,-7.28555363501,99.3060168323,0.0,10.0,0.0,0.0,0.0,10.0,0.0,0.0,0.0,10.0,-0.00972053797879,0.0215716048296,0.00692421883421,1.0,0.0,0.0,0.0,1.0,0.0,0.0,0.0,1.0,0.222736816406,-0.137713623047,10.0159716797,0.1,0.0,0.0,0.0,0.1,0.0,0.0,0.0,0.1
1446038396564873256,109,1446038396561960935,robocape,4.77226954548,-7.1494606552,98.3442413246,0.0,10.0,0.0,0.0,0.0,10.0,0.0,0.0,0.0,10.0,0.0230363434292,0.0233026595382,0.00559263828917,1.0,0.0,0.0,0.0,1.0,0.0,0.0,0.0,1.0,0.203576660156,-0.0850231933594,10.0279467773,0.1,0.0,0.0,0.0,0.1,0.0,0.0,0.0,0.1
1446038396597295131,110,1446038396594356060,robocape,4.86920133478,-7.01249711053,97.3993373362,0.0,10.0,0.0,0.0,0.0,10.0,0.0,0.0,0.0,10.0,0.0391484680242,0.0242347659197,0.00452737385313,1.0,0.0,0.0,0.0,1.0,0.0,0.0,0.0,1.0,0.185614013672,0.028740234375,10.0207617188,0.1,0.0,0.0,0.0,0.1,0.0,0.0,0.0,0.1
1446038396631012090,111,1446038396628029108,robocape,4.95882695906,-6.876550549,96.4742043451,0.0,10.0,0.0,0.0,0.0,10.0,0.0,0.0,0.0,10.0,0.0368847810976,0.0243679239742,0.00532632218016,1.0,0.0,0.0,0.0,1.0,0.0,0.0,0.0,1.0,0.179626464844,0.202379150391,10.0435144043,0.1,0.0,0.0,0.0,0.1,0.0,0.0,0.0,0.1
1446038396670971465,112,1446038396667977094,robocape,4.99666842005,-6.74586286485,95.5713244036,0.0,10.0,0.0,0.0,0.0,10.0,0.0,0.0,0.0,10.0,0.0111852765783,0.0226368692657,0.00719053494321,1.0,0.0,0.0,0.0,1.0,0.0,0.0,0.0,1.0,0.196391601563,0.304167480469,9.99920654297,0.1,0.0,0.0,0.0,0.1,0.0,0.0,0.0,0.1
1446038396697319381,113,1446038396694396018,robocape,4.9961565382,-6.61800327793,94.6883226398,0.0,10.0,0.0,0.0,0.0,10.0,0.0,0.0,0.0,10.0,-0.00785632521573,0.0222373951022,0.00745685105222,1.0,0.0,0.0,0.0,1.0,0.0,0.0,0.0,1.0,0.189206542969,0.264649658203,10.024354248,0.1,0.0,0.0,0.0,0.1,0.0,0.0,0.0,0.1
1446038396734966215,114,1446038396731086015,robocape,4.96573750431,-6.49488856335,93.8243025223,0.0,10.0,0.0,0.0,0.0,10.0,0.0,0.0,0.0,10.0,-0.0226368692657,0.0209058145571,0.00798948327024,1.0,0.0,0.0,0.0,1.0,0.0,0.0,0.0,1.0,0.190404052734,0.107775878906,10.0411193848,0.1,0.0,0.0,0.0,0.1,0.0,0.0,0.0,0.1
1446038396764678340,115,1446038396761708021,robocape,4.94563692645,-6.37340499622,92.9768749521,0.0,10.0,0.0,0.0,0.0,10.0,0.0,0.0,0.0,10.0,-0.016378440704,0.0210389726116,0.00838895743375,1.0,0.0,0.0,0.0,1.0,0.0,0.0,0.0,1.0,0.197589111328,0.0119750976563,10.0279467773,0.1,0.0,0.0,0.0,0.1,0.0,0.0,0.0,0.1
1446038396797291215,116,1446038396794421911,robocape,4.95719377147,-6.25179921075,92.14292847,0.0,10.0,0.0,0.0,0.0,10.0,0.0,0.0,0.0,10.0,0.000932106381528,0.0218379209386,0.0067910607797,1.0,0.0,0.0,0.0,1.0,0.0,0.0,0.0,1.0,0.203576660156,-0.0443078613281,10.0279467773,0.1,0.0,0.0,0.0,0.1,0.0,0.0,0.0,0.1
1446038396830869048,117,1446038396827970027,robocape,5.00225429811,-6.12889331496,91.3232205014,0.0,10.0,0.0,0.0,0.0,10.0,0.0,0.0,0.0,10.0,0.0194410759576,0.0231695014837,0.00639158661619,1.0,0.0,0.0,0.0,1.0,0.0,0.0,0.0,1.0,0.205971679688,-0.0203576660156,10.0171691895,0.1,0.0,0.0,0.0,0.1,0.0,0.0,0.0,0.1
1446038396864066507,118,1446038396860974073,robocape,5.06764479657,-6.00632617954,90.5172708118,0.0,10.0,0.0,0.0,0.0,10.0,0.0,0.0,0.0,10.0,0.0310258266994,0.0235689756472,0.00532632218016,1.0,0.0,0.0,0.0,1.0,0.0,0.0,0.0,1.0,0.1916015625,0.0718505859375,10.039921875,0.1,0.0,0.0,0.0,0.1,0.0,0.0,0.0,0.1
1446038396897423173,119,1446038396894530057,robocape,5.1241481977,-5.88568703249,89.7277259673,0.0,10.0,0.0,0.0,0.0,10.0,0.0,0.0,0.0,10.0,0.0274305592278,0.0233026595382,0.00612527050718,1.0,0.0,0.0,0.0,1.0,0.0,0.0,0.0,1.0,0.184416503906,0.209564208984,10.0351318359,0.1,0.0,0.0,0.0,0.1,0.0,0.0,0.0,0.1
1446038396930901173,120,1446038396927954912,robocape,5.14419304177,-5.7670490425,88.9551204284,0.0,10.0,0.0,0.0,0.0,10.0,0.0,0.0,0.0,10.0,0.00918790576077,0.0231695014837,0.00652474467069,1.0,0.0,0.0,0.0,1.0,0.0,0.0,0.0,1.0,0.185614013672,0.257464599609,10.0207617188,0.1,0.0,0.0,0.0,0.1,0.0,0.0,0.0,0.1
1446038396964766965,121,1446038396961523056,robocape,5.11849948743,-5.65452580822,88.1994728035,0.0,10.0,0.0,0.0,0.0,10.0,0.0,0.0,0.0,10.0,-0.0141147537774,0.0210389726116,0.00732369299772,1.0,0.0,0.0,0.0,1.0,0.0,0.0,0.0,1.0,0.165256347656,0.216749267578,10.0063916016,0.1,0.0,0.0,0.0,0.1,0.0,0.0,0.0,0.1
1446038396997321757,122,1446038396994446039,robocape,5.08272461176,-5.5434434658,87.4594065733,0.0,10.0,0.0,0.0,0.0,10.0,0.0,0.0,0.0,10.0,-0.0187752856851,0.0213052887206,0.00838895743375,1.0,0.0,0.0,0.0,1.0,0.0,0.0,0.0,1.0,0.183218994141,0.0922082519531,10.0159716797,0.1,0.0,0.0,0.0,0.1,0.0,0.0,0.0,0.1
1446038397031376673,123,1446038397028198957,robocape,5.06183706054,-5.43366044799,86.7315870472,0.0,10.0,0.0,0.0,0.0,10.0,0.0,0.0,0.0,10.0,-0.0105194863058,0.0214384467751,0.00759000910673,1.0,0.0,0.0,0.0,1.0,0.0,0.0,0.0,1.0,0.203576660156,-0.00718505859375,10.0339343262,0.1,0.0,0.0,0.0,0.1,0.0,0.0,0.0,0.1
1446038397064732965,124,1446038397061465024,robocape,5.06965638843,-5.32238487507,86.0152059761,0.0,10.0,0.0,0.0,0.0,10.0,0.0,0.0,0.0,10.0,0.00506000607115,0.0229031853747,0.0066579027252,1.0,0.0,0.0,0.0,1.0,0.0,0.0,0.0,1.0,0.1916015625,-0.0167651367188,10.0255517578,0.1,0.0,0.0,0.0,0.1,0.0,0.0,0.0,0.1
1446038397097314007,125,1446038397094351053,robocape,5.10306820175,-5.21221348238,85.3095917472,0.0,10.0,0.0,0.0,0.0,10.0,0.0,0.0,0.0,10.0,0.0190416017941,0.0229031853747,0.00545948023466,1.0,0.0,0.0,0.0,1.0,0.0,0.0,0.0,1.0,0.192799072266,0.00838256835938,10.0099841309,0.1,0.0,0.0,0.0,0.1,0.0,0.0,0.0,0.1
1446038397130970215,126,1446038397127999067,robocape,5.1478337382,-5.10271681828,84.6163260548,0.0,10.0,0.0,0.0,0.0,10.0,0.0,0.0,0.0,10.0,0.0256995045193,0.0231695014837,0.00545948023466,1.0,0.0,0.0,0.0,1.0,0.0,0.0,0.0,1.0,0.192799072266,0.100590820313,10.0183666992,0.1,0.0,0.0,0.0,0.1,0.0,0.0,0.0,0.1
1446038397164250882,127,1446038397161284923,robocape,5.18095700389,-4.99517961336,83.9374798965,0.0,10.0,0.0,0.0,0.0,10.0,0.0,0.0,0.0,10.0,0.0203731823391,0.0229031853747,0.00692421883421,1.0,0.0,0.0,0.0,1.0,0.0,0.0,0.0,1.0,0.186811523438,0.195194091797,10.0075891113,0.1,0.0,0.0,0.0,0.1,0.0,0.0,0.0,0.1
1446038397197470423,128,1446038397194534063,robocape,5.17616935508,-4.89122607064,83.2715712374,0.0,10.0,0.0,0.0,0.0,10.0,0.0,0.0,0.0,10.0,0.000932106381528,0.0218379209386,0.00639158661619,1.0,0.0,0.0,0.0,1.0,0.0,0.0,0.0,1.0,0.184416503906,0.222736816406,10.0542919922,0.1,0.0,0.0,0.0,0.1,0.0,0.0,0.0,0.1
1446038397230923673,129,1446038397228040933,robocape,5.14769010169,-4.79025331759,82.6191421347,0.0,10.0,0.0,0.0,0.0,10.0,0.0,0.0,0.0,10.0,-0.0110521185238,0.0211721306661,0.00719053494321,1.0,0.0,0.0,0.0,1.0,0.0,0.0,0.0,1.0,0.189206542969,0.135318603516,10.0315393066,0.1,0.0,0.0,0.0,0.1,0.0,0.0,0.0,0.1
1446038397264089007,130,1446038397261184930,robocape,5.11459113716,-4.6911974814,81.9796268374,0.0,10.0,0.0,0.0,0.0,10.0,0.0,0.0,0.0,10.0,-0.0130494893414,0.0210389726116,0.00838895743375,1.0,0.0,0.0,0.0,1.0,0.0,0.0,0.0,1.0,0.1916015625,0.0598754882813,10.0075891113,0.1,0.0,0.0,0.0,0.1,0.0,0.0,0.0,0.1
1446038397297343715,131,1446038397294492006,robocape,5.09695657364,-4.59266747555,81.3498986138,0.0,10.0,0.0,0.0,0.0,10.0,0.0,0.0,0.0,10.0,-0.00466053190764,0.0214384467751,0.00759000910673,1.0,0.0,0.0,0.0,1.0,0.0,0.0,0.0,1.0,0.189206542969,0.01916015625,10.0279467773,0.1,0.0,0.0,0.0,0.1,0.0,0.0,0.0,0.1
1446038397331018965,132,1446038397328107118,robocape,5.09883347968,-4.49421906135,80.7289996968,0.0,10.0,0.0,0.0,0.0,10.0,0.0,0.0,0.0,10.0,0.00585895439817,0.0219710789932,0.00625842856169,1.0,0.0,0.0,0.0,1.0,0.0,0.0,0.0,1.0,0.189206542969,0.009580078125,10.0207617188,0.1,0.0,0.0,0.0,0.1,0.0,0.0,0.0,0.1
1446038397364031507,133,1446038397361136913,robocape,5.12025110143,-4.39478894415,80.1175142703,0.0,10.0,0.0,0.0,0.0,10.0,0.0,0.0,0.0,10.0,0.0165115987585,0.0230363434292,0.00559263828917,1.0,0.0,0.0,0.0,1.0,0.0,0.0,0.0,1.0,0.195194091797,0.0371228027344,10.0447119141,0.1,0.0,0.0,0.0,0.1,0.0,0.0,0.0,0.1
1446038397397495673,134,1446038397394599914,robocape,5.14734010108,-4.29598946065,79.5166146854,0.0,10.0,0.0,0.0,0.0,10.0,0.0,0.0,0.0,10.0,0.0199737081756,0.0233026595382,0.00585895439817,1.0,0.0,0.0,0.0,1.0,0.0,0.0,0.0,1.0,0.186811523438,0.107775878906,10.0219592285,0.1,0.0,0.0,0.0,0.1,0.0,0.0,0.0,0.1
1446038397430754257,135,1446038397427876949,robocape,5.16215501713,-4.20021919137,78.926797598,0.0,10.0,0.0,0.0,0.0,10.0,0.0,0.0,0.0,10.0,0.0139815957229,0.0223705531567,0.00639158661619,1.0,0.0,0.0,0.0,1.0,0.0,0.0,0.0,1.0,0.184416503906,0.167651367188,10.0315393066,0.1,0.0,0.0,0.0,0.1,0.0,0.0,0.0,0.1
1446038397464000257,136,1446038397460987091,robocape,5.15313229271,-4.10663454408,78.3487563724,0.0,10.0,0.0,0.0,0.0,10.0,0.0,0.0,0.0,10.0,0.00186421276306,0.0219710789932,0.00732369299772,1.0,0.0,0.0,0.0,1.0,0.0,0.0,0.0,1.0,0.185614013672,0.185614013672,10.0291442871,0.1,0.0,0.0,0.0,0.1,0.0,0.0,0.0,0.1
1446038397497552049,137,1446038397494602918,robocape,5.12689331953,-4.01492819639,77.7810966853,0.0,10.0,0.0,0.0,0.0,10.0,0.0,0.0,0.0,10.0,-0.00692421883421,0.0217047628841,0.00745685105222,1.0,0.0,0.0,0.0,1.0,0.0,0.0,0.0,1.0,0.186811523438,0.120948486328,10.0315393066,0.1,0.0,0.0,0.0,0.1,0.0,0.0,0.0,0.1
1446038397531207715,138,1446038397528131961,robocape,5.09874910818,-3.92501040606,77.222875016,0.0,10.0,0.0,0.0,0.0,10.0,0.0,0.0,0.0,10.0,-0.00772316716123,0.0214384467751,0.00745685105222,1.0,0.0,0.0,0.0,1.0,0.0,0.0,0.0,1.0,0.180823974609,0.0586779785156,10.0351318359,0.1,0.0,0.0,0.0,0.1,0.0,0.0,0.0,0.1
1446038397564249590,139,1446038397561090946,robocape,5.08285325928,-3.83422902053,76.6736052401,0.0,10.0,0.0,0.0,0.0,10.0,0.0,0.0,0.0,10.0,-0.00106526443603,0.0225037112112,0.00745685105222,1.0,0.0,0.0,0.0,1.0,0.0,0.0,0.0,1.0,0.190404052734,0.01916015625,10.0135766602,0.1,0.0,0.0,0.0,0.1,0.0,0.0,0.0,0.1
1446038397597352590,140,1446038397594300985,robocape,5.08807995932,-3.74440502095,76.1319904679,0.0,10.0,0.0,0.0,0.0,10.0,0.0,0.0,0.0,10.0,0.0102531701968,0.0225037112112,0.00692421883421,1.0,0.0,0.0,0.0,1.0,0.0,0.0,0.0,1.0,0.205971679688,0.0239501953125,10.0303417969,0.1,0.0,0.0,0.0,0.1,0.0,0.0,0.0,0.1
1446038397630875257,141,1446038397627562046,robocape,5.10404472035,-3.65417022077,75.5975196797,0.0,10.0,0.0,0.0,0.0,10.0,0.0,0.0,0.0,10.0,0.016112124595,0.0231695014837,0.00572579634367,1.0,0.0,0.0,0.0,1.0,0.0,0.0,0.0,1.0,0.189206542969,0.0838256835938,10.0291442871,0.1,0.0,0.0,0.0,0.1,0.0,0.0,0.0,0.1
1446038397670741215,142,1446038397667751073,robocape,5.11918359817,-3.56544137498,75.0716358518,0.0,10.0,0.0,0.0,0.0,10.0,0.0,0.0,0.0,10.0,0.0159789665405,0.0229031853747,0.00572579634367,1.0,0.0,0.0,0.0,1.0,0.0,0.0,0.0,1.0,0.192799072266,0.126936035156,10.0423168945,0.1,0.0,0.0,0.0,0.1,0.0,0.0,0.0,0.1
1446038397697577007,143,1446038397694634914,robocape,5.12310469434,-3.47858511976,74.5550812862,0.0,10.0,0.0,0.0,0.0,10.0,0.0,0.0,0.0,10.0,0.0103863282513,0.0225037112112,0.00625842856169,1.0,0.0,0.0,0.0,1.0,0.0,0.0,0.0,1.0,0.185614013672,0.170046386719,10.039921875,0.1,0.0,0.0,0.0,0.1,0.0,0.0,0.0,0.1
1446038397730944840,144,1446038397727634906,robocape,5.10728638542,-3.39396572114,74.0482126013,0.0,10.0,0.0,0.0,0.0,10.0,0.0,0.0,0.0,10.0,0.000266316109008,0.0219710789932,0.00705737688871,1.0,0.0,0.0,0.0,1.0,0.0,0.0,0.0,1.0,0.185614013672,0.136516113281,10.0267492676,0.1,0.0,0.0,0.0,0.1,0.0,0.0,0.0,0.1
1446038397764252299,145,1446038397761146068,robocape,5.08128855498,-3.31125619885,73.5498931885,0.0,10.0,0.0,0.0,0.0,10.0,0.0,0.0,0.0,10.0,-0.00492684801665,0.0215716048296,0.00732369299772,1.0,0.0,0.0,0.0,1.0,0.0,0.0,0.0,1.0,0.197589111328,0.086220703125,9.99920654297,0.1,0.0,0.0,0.0,0.1,0.0,0.0,0.0,0.1
1446038397797451424,146,1446038397794461965,robocape,5.06192206522,-3.22928557085,73.0588487414,0.0,10.0,0.0,0.0,0.0,10.0,0.0,0.0,0.0,10.0,-0.00133158054504,0.0217047628841,0.00705737688871,1.0,0.0,0.0,0.0,1.0,0.0,0.0,0.0,1.0,0.197589111328,0.0562829589844,10.0231567383,0.1,0.0,0.0,0.0,0.1,0.0,0.0,0.0,0.1
1446038397831029215,147,1446038397827729940,robocape,5.05494219819,-3.14672248767,72.5750074524,0.0,10.0,0.0,0.0,0.0,10.0,0.0,0.0,0.0,10.0,0.00532632218016,0.0225037112112,0.00692421883421,1.0,0.0,0.0,0.0,1.0,0.0,0.0,0.0,1.0,0.196391601563,0.0335302734375,10.060279541,0.1,0.0,0.0,0.0,0.1,0.0,0.0,0.0,0.1
1446038397864266382,148,1446038397861033916,robocape,5.06035825474,-3.06597938366,72.0975004928,0.0,10.0,0.0,0.0,0.0,10.0,0.0,0.0,0.0,10.0,0.0119842249054,0.0219710789932,0.00639158661619,1.0,0.0,0.0,0.0,1.0,0.0,0.0,0.0,1.0,0.193996582031,0.067060546875,10.0387243652,0.1,0.0,0.0,0.0,0.1,0.0,0.0,0.0,0.1
1446038397897417382,149,1446038397894352912,robocape,5.06958123792,-2.98493998384,71.6284343026,0.0,10.0,0.0,0.0,0.0,10.0,0.0,0.0,0.0,10.0,0.0142479118319,0.0226368692657,0.00732369299772,1.0,0.0,0.0,0.0,1.0,0.0,0.0,0.0,1.0,0.1916015625,0.111368408203,10.0351318359,0.1,0.0,0.0,0.0,0.1,0.0,0.0,0.0,0.1
1446038397930903424,150,1446038397927644014,robocape,5.07267940074,-2.90347355548,71.166107415,0.0,10.0,0.0,0.0,0.0,10.0,0.0,0.0,0.0,10.0,0.0111852765783,0.0233026595382,0.0067910607797,1.0,0.0,0.0,0.0,1.0,0.0,0.0,0.0,1.0,0.179626464844,0.158071289063,10.003996582,0.1,0.0,0.0,0.0,0.1,0.0,0.0,0.0,0.1
1446038397964259299,151,1446038397961065053,robocape,5.06154993563,-2.82501129422,70.7113047391,0.0,10.0,0.0,0.0,0.0,10.0,0.0,0.0,0.0,10.0,0.00386158358061,0.0222373951022,0.00705737688871,1.0,0.0,0.0,0.0,1.0,0.0,0.0,0.0,1.0,0.190404052734,0.150886230469,10.0231567383,0.1,0.0,0.0,0.0,0.1,0.0,0.0,0.0,0.1
1446038397997457049,152,1446038397994405031,robocape,5.0383530463,-2.7480026392,70.2634206705,0.0,10.0,0.0,0.0,0.0,10.0,0.0,0.0,0.0,10.0,-0.00239684498107,0.0219710789932,0.00692421883421,1.0,0.0,0.0,0.0,1.0,0.0,0.0,0.0,1.0,0.185614013672,0.116158447266,10.0387243652,0.1,0.0,0.0,0.0,0.1,0.0,0.0,0.0,0.1
1446038398031241507,153,1446038398027808904,robocape,5.01879102025,-2.67292381224,69.8223166712,0.0,10.0,0.0,0.0,0.0,10.0,0.0,0.0,0.0,10.0,-0.000399474163512,0.0214384467751,0.00719053494321,1.0,0.0,0.0,0.0,1.0,0.0,0.0,0.0,1.0,0.179626464844,0.0682580566406,10.003996582,0.1,0.0,0.0,0.0,0.1,0.0,0.0,0.0,0.1
1446038398064108174,154,1446038398061055898,robocape,5.00943653834,-2.59714593484,69.3875441094,0.0,10.0,0.0,0.0,0.0,10.0,0.0,0.0,0.0,10.0,0.00506000607115,0.0222373951022,0.00719053494321,1.0,0.0,0.0,0.0,1.0,0.0,0.0,0.0,1.0,0.201181640625,0.0443078613281,10.0027990723,0.1,0.0,0.0,0.0,0.1,0.0,0.0,0.0,0.1
1446038398097601424,155,1446038398094523906,robocape,5.00981203336,-2.52130280224,68.9580666243,0.0,10.0,0.0,0.0,0.0,10.0,0.0,0.0,0.0,10.0,0.0102531701968,0.0226368692657,0.00652474467069,1.0,0.0,0.0,0.0,1.0,0.0,0.0,0.0,1.0,0.1916015625,0.0778381347656,10.0327368164,0.1,0.0,0.0,0.0,0.1,0.0,0.0,0.0,0.1
1446038398130957341,156,1446038398127585887,robocape,5.01518717135,-2.44654326355,68.5355113462,0.0,10.0,0.0,0.0,0.0,10.0,0.0,0.0,0.0,10.0,0.0130494893414,0.0225037112112,0.00719053494321,1.0,0.0,0.0,0.0,1.0,0.0,0.0,0.0,1.0,0.196391601563,0.112565917969,10.0267492676,0.1,0.0,0.0,0.0,0.1,0.0,0.0,0.0,0.1
1446038398164297424,157,1446038398161341905,robocape,5.01503528163,-2.37227594713,68.1188578846,0.0,10.0,0.0,0.0,0.0,10.0,0.0,0.0,0.0,10.0,0.0102531701968,0.0226368692657,0.00692421883421,1.0,0.0,0.0,0.0,1.0,0.0,0.0,0.0,1.0,0.188009033203,0.135318603516,10.0291442871,0.1,0.0,0.0,0.0,0.1,0.0,0.0,0.0,0.1
1446038398197732632,158,1446038398194626092,robocape,5.00050864497,-2.29962740318,67.7088079065,0.0,10.0,0.0,0.0,0.0,10.0,0.0,0.0,0.0,10.0,0.00279631914458,0.0222373951022,0.00719053494321,1.0,0.0,0.0,0.0,1.0,0.0,0.0,0.0,1.0,0.196391601563,0.135318603516,10.0123791504,0.1,0.0,0.0,0.0,0.1,0.0,0.0,0.0,0.1
1446038398231075674,159,1446038398227732896,robocape,4.97855404313,-2.22930987134,67.3046292753,0.0,10.0,0.0,0.0,0.0,10.0,0.0,0.0,0.0,10.0,-0.00106526443603,0.0214384467751,0.00719053494321,1.0,0.0,0.0,0.0,1.0,0.0,0.0,0.0,1.0,0.196391601563,0.101788330078,10.0411193848,0.1,0.0,0.0,0.0,0.1,0.0,0.0,0.0,0.1
1446038398264280341,160,1446038398261367082,robocape,4.95883967141,-2.15947351566,66.9057439762,0.0,10.0,0.0,0.0,0.0,10.0,0.0,0.0,0.0,10.0,0.000133158054504,0.0215716048296,0.00692421883421,1.0,0.0,0.0,0.0,1.0,0.0,0.0,0.0,1.0,0.190404052734,0.0838256835938,10.0111816406,0.1,0.0,0.0,0.0,0.1,0.0,0.0,0.0,0.1
1446038398297700466,161,1446038398294637918,robocape,4.94818847111,-2.08928774283,66.5117513656,0.0,10.0,0.0,0.0,0.0,10.0,0.0,0.0,0.0,10.0,0.00492684801665,0.0221042370477,0.00652474467069,1.0,0.0,0.0,0.0,1.0,0.0,0.0,0.0,1.0,0.195194091797,0.0562829589844,10.0111816406,0.1,0.0,0.0,0.0,0.1,0.0,0.0,0.0,0.1
1446038398330849591,162,1446038398327651977,robocape,4.94574812693,-2.01903628407,66.1232490495,0.0,10.0,0.0,0.0,0.0,10.0,0.0,0.0,0.0,10.0,0.00932106381528,0.0225037112112,0.0066579027252,1.0,0.0,0.0,0.0,1.0,0.0,0.0,0.0,1.0,0.198786621094,0.0754431152344,10.0327368164,0.1,0.0,0.0,0.0,0.1,0.0,0.0,0.0,0.1
1446038398364170632,163,1446038398361071109,robocape,4.94590347105,-1.94950107584,65.7405560465,0.0,10.0,0.0,0.0,0.0,10.0,0.0,0.0,0.0,10.0,0.0107858024148,0.0225037112112,0.00705737688871,1.0,0.0,0.0,0.0,1.0,0.0,0.0,0.0,1.0,0.190404052734,0.112565917969,10.019564209,0.1,0.0,0.0,0.0,0.1,0.0,0.0,0.0,0.1
1446038398397821841,164,1446038398394381046,robocape,4.93784654952,-1.88037900023,65.3629499484,0.0,10.0,0.0,0.0,0.0,10.0,0.0,0.0,0.0,10.0,0.00652474467069,0.0226368692657,0.0067910607797,1.0,0.0,0.0,0.0,1.0,0.0,0.0,0.0,1.0,0.198786621094,0.135318603516,10.0016015625,0.1,0.0,0.0,0.0,0.1,0.0,0.0,0.0,0.1
1446038398431001549,165,1446038398427740097,robocape,4.92211100297,-1.81196565444,64.9906398611,0.0,10.0,0.0,0.0,0.0,10.0,0.0,0.0,0.0,10.0,0.00253000303558,0.0226368692657,0.0067910607797,1.0,0.0,0.0,0.0,1.0,0.0,0.0,0.0,1.0,0.201181640625,0.129331054688,10.0171691895,0.1,0.0,0.0,0.0,0.1,0.0,0.0,0.0,0.1
1446038398464421257,166,1446038398461139917,robocape,4.90153360616,-1.74576890401,64.6233239686,0.0,10.0,0.0,0.0,0.0,10.0,0.0,0.0,0.0,10.0,0.0,0.0218379209386,0.0067910607797,1.0,0.0,0.0,0.0,1.0,0.0,0.0,0.0,1.0,0.195194091797,0.0981958007813,10.0459094238,0.1,0.0,0.0,0.0,0.1,0.0,0.0,0.0,0.1
1446038398497405591,167,1446038398494374036,robocape,4.88421704103,-1.68049867529,64.2609919318,0.0,10.0,0.0,0.0,0.0,10.0,0.0,0.0,0.0,10.0,0.00173105470855,0.0217047628841,0.00692421883421,1.0,0.0,0.0,0.0,1.0,0.0,0.0,0.0,1.0,0.186811523438,0.0838256835938,10.0411193848,0.1,0.0,0.0,0.0,0.1,0.0,0.0,0.0,0.1
1446038398531195299,168,1446038398527863979,robocape,4.87448075201,-1.61427769593,63.9028658775,0.0,10.0,0.0,0.0,0.0,10.0,0.0,0.0,0.0,10.0,0.00572579634367,0.0225037112112,0.00652474467069,1.0,0.0,0.0,0.0,1.0,0.0,0.0,0.0,1.0,0.201181640625,0.0646655273438,10.0279467773,0.1,0.0,0.0,0.0,0.1,0.0,0.0,0.0,0.1
1446038398564119924,169,1446038398560993909,robocape,4.87045602109,-1.54972805805,63.549967397,0.0,10.0,0.0,0.0,0.0,10.0,0.0,0.0,0.0,10.0,0.00878843159726,0.0219710789932,0.00705737688871,1.0,0.0,0.0,0.0,1.0,0.0,0.0,0.0,1.0,0.198786621094,0.086220703125,9.99920654297,0.1,0.0,0.0,0.0,0.1,0.0,0.0,0.0,0.1
1446038398597518716,170,1446038398594409942,robocape,4.86659893334,-1.48525996984,63.2017169084,0.0,10.0,0.0,0.0,0.0,10.0,0.0,0.0,0.0,10.0,0.00892158965177,0.0222373951022,0.00705737688871,1.0,0.0,0.0,0.0,1.0,0.0,0.0,0.0,1.0,0.199984130859,0.113763427734,10.0327368164,0.1,0.0,0.0,0.0,0.1,0.0,0.0,0.0,0.1
1446038398630590674,171,1446038398627595901,robocape,4.85816664571,-1.42130386352,62.8571700052,0.0,10.0,0.0,0.0,0.0,10.0,0.0,0.0,0.0,10.0,0.00652474467069,0.0222373951022,0.00639158661619,1.0,0.0,0.0,0.0,1.0,0.0,0.0,0.0,1.0,0.1916015625,0.120948486328,10.0267492676,0.1,0.0,0.0,0.0,0.1,0.0,0.0,0.0,0.1
1446038398671062424,172,1446038398667793035,robocape,4.84104412725,-1.35830271877,62.518142384,0.0,10.0,0.0,0.0,0.0,10.0,0.0,0.0,0.0,10.0,0.00199737081756,0.0221042370477,0.00705737688871,1.0,0.0,0.0,0.0,1.0,0.0,0.0,0.0,1.0,0.1916015625,0.101788330078,10.0327368164,0.1,0.0,0.0,0.0,0.1,0.0,0.0,0.0,0.1
1446038398697402049,173,1446038398694329023,robocape,4.82292812189,-1.29510437949,62.1831588335,0.0,10.0,0.0,0.0,0.0,10.0,0.0,0.0,0.0,10.0,0.00146473859954,0.0225037112112,0.0067910607797,1.0,0.0,0.0,0.0,1.0,0.0,0.0,0.0,1.0,0.197589111328,0.076640625,10.0255517578,0.1,0.0,0.0,0.0,0.1,0.0,0.0,0.0,0.1
1446038398730554924,174,1446038398727662086,robocape,4.80735343616,-1.23348887799,61.852291538,0.0,10.0,0.0,0.0,0.0,10.0,0.0,0.0,0.0,10.0,0.00279631914458,0.0219710789932,0.0067910607797,1.0,0.0,0.0,0.0,1.0,0.0,0.0,0.0,1.0,0.189206542969,0.0730480957031,10.0327368164,0.1,0.0,0.0,0.0,0.1,0.0,0.0,0.0,0.1
1446038398764205257,175,1446038398761198043,robocape,4.79986396732,-1.1713922941,61.5255027356,0.0,10.0,0.0,0.0,0.0,10.0,0.0,0.0,0.0,10.0,0.00705737688871,0.0225037112112,0.0067910607797,1.0,0.0,0.0,0.0,1.0,0.0,0.0,0.0,1.0,0.195194091797,0.0814306640625,10.0339343262,0.1,0.0,0.0,0.0,0.1,0.0,0.0,0.0,0.1
1446038398797567299,176,1446038398794534921,robocape,4.7961389011,-1.10979699206,61.2025401575,0.0,10.0,0.0,0.0,0.0,10.0,0.0,0.0,0.0,10.0,0.00905474770627,0.0225037112112,0.0066579027252,1.0,0.0,0.0,0.0,1.0,0.0,0.0,0.0,1.0,0.189206542969,0.0946032714844,10.0375268555,0.1,0.0,0.0,0.0,0.1,0.0,0.0,0.0,0.1
1446038398830644549,177,1446038398827785015,robocape,4.79060130509,-1.04820093749,60.8834798722,0.0,10.0,0.0,0.0,0.0,10.0,0.0,0.0,0.0,10.0,0.00812264132474,0.0227700273202,0.00652474467069,1.0,0.0,0.0,0.0,1.0,0.0,0.0,0.0,1.0,0.197589111328,0.131726074219,10.0315393066,0.1,0.0,0.0,0.0,0.1,0.0,0.0,0.0,0.1
1446038398864145508,178,1446038398860958099,robocape,4.77917668851,-0.98848798583,60.5693137919,0.0,10.0,0.0,0.0,0.0,10.0,0.0,0.0,0.0,10.0,0.00506000607115,0.0221042370477,0.00719053494321,1.0,0.0,0.0,0.0,1.0,0.0,0.0,0.0,1.0,0.183218994141,0.122145996094,10.0506994629,0.1,0.0,0.0,0.0,0.1,0.0,0.0,0.0,0.1
1446038398897547758,179,1446038398894515991,robocape,4.76244577167,-0.929557563648,60.2590835103,0.0,10.0,0.0,0.0,0.0,10.0,0.0,0.0,0.0,10.0,0.00226368692657,0.0219710789932,0.00719053494321,1.0,0.0,0.0,0.0,1.0,0.0,0.0,0.0,1.0,0.176033935547,0.105380859375,10.0159716797,0.1,0.0,0.0,0.0,0.1,0.0,0.0,0.0,0.1
1446038398930579758,180,1446038398927660942,robocape,4.74626122323,-0.869840628421,59.9523354271,0.0,10.0,0.0,0.0,0.0,10.0,0.0,0.0,0.0,10.0,0.00253000303558,0.0226368692657,0.00692421883421,1.0,0.0,0.0,0.0,1.0,0.0,0.0,0.0,1.0,0.183218994141,0.0814306640625,10.003996582,0.1,0.0,0.0,0.0,0.1,0.0,0.0,0.0,0.1
1446038398964223216,181,1446038398960978984,robocape,4.73389677946,-0.810869002896,59.6491994357,0.0,10.0,0.0,0.0,0.0,10.0,0.0,0.0,0.0,10.0,0.00452737385313,0.0225037112112,0.00692421883421,1.0,0.0,0.0,0.0,1.0,0.0,0.0,0.0,1.0,0.201181640625,0.0754431152344,10.0411193848,0.1,0.0,0.0,0.0,0.1,0.0,0.0,0.0,0.1
1446038398997396924,182,1446038398994460105,robocape,4.72735140409,-0.752380745979,59.3497801008,0.0,10.0,0.0,0.0,0.0,10.0,0.0,0.0,0.0,10.0,0.00759000910673,0.0225037112112,0.00705737688871,1.0,0.0,0.0,0.0,1.0,0.0,0.0,0.0,1.0,0.199984130859,0.0778381347656,10.019564209,0.1,0.0,0.0,0.0,0.1,0.0,0.0,0.0,0.1
1446038399030786758,183,1446038399027836084,robocape,4.72205833125,-0.694351799117,59.0539076121,0.0,10.0,0.0,0.0,0.0,10.0,0.0,0.0,0.0,10.0,0.00825579937925,0.0225037112112,0.00705737688871,1.0,0.0,0.0,0.0,1.0,0.0,0.0,0.0,1.0,0.193996582031,0.102985839844,10.0183666992,0.1,0.0,0.0,0.0,0.1,0.0,0.0,0.0,0.1
1446038399064323466,184,1446038399060998916,robocape,4.7136958191,-0.636586701889,58.762188474,0.0,10.0,0.0,0.0,0.0,10.0,0.0,0.0,0.0,10.0,0.0066579027252,0.0226368692657,0.00745685105222,1.0,0.0,0.0,0.0,1.0,0.0,0.0,0.0,1.0,0.185614013672,0.112565917969,10.0255517578,0.1,0.0,0.0,0.0,0.1,0.0,0.0,0.0,0.1
1446038399097489424,185,1446038399094522953,robocape,4.70131600764,-0.579991394525,58.473344146,0.0,10.0,0.0,0.0,0.0,10.0,0.0,0.0,0.0,10.0,0.00452737385313,0.0222373951022,0.00705737688871,1.0,0.0,0.0,0.0,1.0,0.0,0.0,0.0,1.0,0.1916015625,0.111368408203,9.99561401367,0.1,0.0,0.0,0.0,0.1,0.0,0.0,0.0,0.1
1446038399130602216,186,1446038399127680063,robocape,4.68465095388,-0.523391322414,58.1883723445,0.0,10.0,0.0,0.0,0.0,10.0,0.0,0.0,0.0,10.0,0.00226368692657,0.0225037112112,0.00732369299772,1.0,0.0,0.0,0.0,1.0,0.0,0.0,0.0,1.0,0.178428955078,0.108973388672,10.0471069336,0.1,0.0,0.0,0.0,0.1,0.0,0.0,0.0,0.1
1446038399164300966,187,1446038399161218881,robocape,4.6705578114,-0.467506044778,57.9068334295,0.0,10.0,0.0,0.0,0.0,10.0,0.0,0.0,0.0,10.0,0.00359526747161,0.0223705531567,0.00745685105222,1.0,0.0,0.0,0.0,1.0,0.0,0.0,0.0,1.0,0.186811523438,0.0778381347656,10.0423168945,0.1,0.0,0.0,0.0,0.1,0.0,0.0,0.0,0.1
1446038399197464133,188,1446038399194408893,robocape,4.66106934809,-0.412512604215,57.6280342508,0.0,10.0,0.0,0.0,0.0,10.0,0.0,0.0,0.0,10.0,0.00599211245268,0.0221042370477,0.00719053494321,1.0,0.0,0.0,0.0,1.0,0.0,0.0,0.0,1.0,0.199984130859,0.0838256835938,10.0087866211,0.1,0.0,0.0,0.0,0.1,0.0,0.0,0.0,0.1
1446038399230559799,189,1446038399227644920,robocape,4.65441356796,-0.358090828275,57.3513906112,0.0,10.0,0.0,0.0,0.0,10.0,0.0,0.0,0.0,10.0,0.00745685105222,0.0219710789932,0.00652474467069,1.0,0.0,0.0,0.0,1.0,0.0,0.0,0.0,1.0,0.190404052734,0.0969982910156,10.0351318359,0.1,0.0,0.0,0.0,0.1,0.0,0.0,0.0,0.1
1446038399264714091,190,1446038399261624097,robocape,4.64751005934,-0.304091124134,57.0780903714,0.0,10.0,0.0,0.0,0.0,10.0,0.0,0.0,0.0,10.0,0.00732369299772,0.0219710789932,0.0066579027252,1.0,0.0,0.0,0.0,1.0,0.0,0.0,0.0,1.0,0.178428955078,0.108973388672,10.024354248,0.1,0.0,0.0,0.0,0.1,0.0,0.0,0.0,0.1
1446038399297475966,191,1446038399294502019,robocape,4.63756940959,-0.250046562961,56.8085499511,0.0,10.0,0.0,0.0,0.0,10.0,0.0,0.0,0.0,10.0,0.00572579634367,0.0222373951022,0.00705737688871,1.0,0.0,0.0,0.0,1.0,0.0,0.0,0.0,1.0,0.190404052734,0.108973388672,10.0387243652,0.1,0.0,0.0,0.0,0.1,0.0,0.0,0.0,0.1
1446038399330542091,192,1446038399327685117,robocape,4.62462507489,-0.196409310489,56.5420849351,0.0,10.0,0.0,0.0,0.0,10.0,0.0,0.0,0.0,10.0,0.00412789968962,0.0222373951022,0.00705737688871,1.0,0.0,0.0,0.0,1.0,0.0,0.0,0.0,1.0,0.179626464844,0.110170898438,10.0255517578,0.1,0.0,0.0,0.0,0.1,0.0,0.0,0.0,0.1
1446038399364628466,193,1446038399361603975,robocape,4.61047408839,-0.142109466081,56.2780953448,0.0,10.0,0.0,0.0,0.0,10.0,0.0,0.0,0.0,10.0,0.0034621094171,0.0227700273202,0.0066579027252,1.0,0.0,0.0,0.0,1.0,0.0,0.0,0.0,1.0,0.183218994141,0.086220703125,10.0315393066,0.1,0.0,0.0,0.0,0.1,0.0,0.0,0.0,0.1
1446038399404629841,194,1446038399401467084,robocape,4.59889530117,-0.0889929684283,56.0173218654,0.0,10.0,0.0,0.0,0.0,10.0,0.0,0.0,0.0,10.0,0.00479368996214,0.0223705531567,0.00692421883421,1.0,0.0,0.0,0.0,1.0,0.0,0.0,0.0,1.0,0.185614013672,0.0814306640625,10.0183666992,0.1,0.0,0.0,0.0,0.1,0.0,0.0,0.0,0.1
1446038399432355174,195,1446038399429019927,robocape,4.59114837431,-0.0365174166412,55.75953286,0.0,10.0,0.0,0.0,0.0,10.0,0.0,0.0,0.0,10.0,0.0067910607797,0.0222373951022,0.00705737688871,1.0,0.0,0.0,0.0,1.0,0.0,0.0,0.0,1.0,0.193996582031,0.086220703125,10.055489502,0.1,0.0,0.0,0.0,0.1,0.0,0.0,0.0,0.1
1446038399465876049,196,1446038399462629079,robocape,4.58343144099,0.0163676220269,55.5044191068,0.0,10.0,0.0,0.0,0.0,10.0,0.0,0.0,0.0,10.0,0.0067910607797,0.0226368692657,0.00692421883421,1.0,0.0,0.0,0.0,1.0,0.0,0.0,0.0,1.0,0.186811523438,0.0934057617188,10.0327368164,0.1,0.0,0.0,0.0,0.1,0.0,0.0,0.0,0.1
1446038399498901591,197,1446038399495635986,robocape,4.57525802363,0.0684737477156,55.2510588721,0.0,10.0,0.0,0.0,0.0,10.0,0.0,0.0,0.0,10.0,0.00652474467069,0.0223705531567,0.00625842856169,1.0,0.0,0.0,0.0,1.0,0.0,0.0,0.0,1.0,0.176033935547,0.100590820313,10.0447119141,0.1,0.0,0.0,0.0,0.1,0.0,0.0,0.0,0.1
1446038399531856425,198,1446038399528851985,robocape,4.56279156576,0.120084783878,55.0018855083,0.0,10.0,0.0,0.0,0.0,10.0,0.0,0.0,0.0,10.0,0.00426105774413,0.0223705531567,0.00719053494321,1.0,0.0,0.0,0.0,1.0,0.0,0.0,0.0,1.0,0.184416503906,0.117355957031,10.0327368164,0.1,0.0,0.0,0.0,0.1,0.0,0.0,0.0,0.1
1446038399565647133,199,1446038399562263011,robocape,4.54935624497,0.171533514208,54.7560123606,0.0,10.0,0.0,0.0,0.0,10.0,0.0,0.0,0.0,10.0,0.00372842552611,0.0225037112112,0.00759000910673,1.0,0.0,0.0,0.0,1.0,0.0,0.0,0.0,1.0,0.196391601563,0.0946032714844,10.0183666992,0.1,0.0,0.0,0.0,0.1,0.0,0.0,0.0,0.1
1446038399599303216,200,1446038399595890998,robocape,4.53650394993,0.222215382881,54.5117192278,0.0,10.0,0.0,0.0,0.0,10.0,0.0,0.0,0.0,10.0,0.00399474163512,0.0222373951022,0.00692421883421,1.0,0.0,0.0,0.0,1.0,0.0,0.0,0.0,1.0,0.193996582031,0.0790356445313,10.060279541,0.1,0.0,0.0,0.0,0.1,0.0,0.0,0.0,0.1
1446038399631525675,201,1446038399628460884,robocape,4.5262351482,0.272792909407,54.2701890078,0.0,10.0,0.0,0.0,0.0,10.0,0.0,0.0,0.0,10.0,0.00532632218016,0.0223705531567,0.00705737688871,1.0,0.0,0.0,0.0,1.0,0.0,0.0,0.0,1.0,0.208366699219,0.0838256835938,10.0363293457,0.1,0.0,0.0,0.0,0.1,0.0,0.0,0.0,0.1
1446038399667332633,202,1446038399664035081,robocape,4.51778616693,0.323562650023,54.0310074777,0.0,10.0,0.0,0.0,0.0,10.0,0.0,0.0,0.0,10.0,0.00625842856169,0.0226368692657,0.00692421883421,1.0,0.0,0.0,0.0,1.0,0.0,0.0,0.0,1.0,0.197589111328,0.0946032714844,10.0135766602,0.1,0.0,0.0,0.0,0.1,0.0,0.0,0.0,0.1
1446038399698921675,203,1446038399695667028,robocape,4.51089068364,0.373465991447,53.7946688044,0.0,10.0,0.0,0.0,0.0,10.0,0.0,0.0,0.0,10.0,0.00705737688871,0.0223705531567,0.00719053494321,1.0,0.0,0.0,0.0,1.0,0.0,0.0,0.0,1.0,0.201181640625,0.0946032714844,10.0171691895,0.1,0.0,0.0,0.0,0.1,0.0,0.0,0.0,0.1
1446038399732124008,204,1446038399729001045,robocape,4.50226399582,0.423840696266,53.5604631082,0.0,10.0,0.0,0.0,0.0,10.0,0.0,0.0,0.0,10.0,0.00612527050718,0.0227700273202,0.00692421883421,1.0,0.0,0.0,0.0,1.0,0.0,0.0,0.0,1.0,0.197589111328,0.116158447266,10.0111816406,0.1,0.0,0.0,0.0,0.1,0.0,0.0,0.0,0.1
1446038399765027550,205,1446038399761923074,robocape,4.49140909761,0.472645808317,53.3284189521,0.0,10.0,0.0,0.0,0.0,10.0,0.0,0.0,0.0,10.0,0.00492684801665,0.0221042370477,0.0067910607797,1.0,0.0,0.0,0.0,1.0,0.0,0.0,0.0,1.0,0.193996582031,0.105380859375,10.0530944824,0.1,0.0,0.0,0.0,0.1,0.0,0.0,0.0,0.1
1446038399798586300,206,1446038399795430898,robocape,4.47933905605,0.521332271065,53.0993947115,0.0,10.0,0.0,0.0,0.0,10.0,0.0,0.0,0.0,10.0,0.00426105774413,0.0222373951022,0.00719053494321,1.0,0.0,0.0,0.0,1.0,0.0,0.0,0.0,1.0,0.186811523438,0.102985839844,10.0267492676,0.1,0.0,0.0,0.0,0.1,0.0,0.0,0.0,0.1
1446038399831170841,207,1446038399828202962,robocape,4.46834907246,0.569260045871,52.8720491718,0.0,10.0,0.0,0.0,0.0,10.0,0.0,0.0,0.0,10.0,0.00479368996214,0.0219710789932,0.0067910607797,1.0,0.0,0.0,0.0,1.0,0.0,0.0,0.0,1.0,0.185614013672,0.100590820313,10.0147741699,0.1,0.0,0.0,0.0,0.1,0.0,0.0,0.0,0.1
1446038399864912841,208,1446038399861638069,robocape,4.45867536118,0.617320450094,52.6478328666,0.0,10.0,0.0,0.0,0.0,10.0,0.0,0.0,0.0,10.0,0.00545948023466,0.0222373951022,0.00732369299772,1.0,0.0,0.0,0.0,1.0,0.0,0.0,0.0,1.0,0.201181640625,0.086220703125,10.0423168945,0.1,0.0,0.0,0.0,0.1,0.0,0.0,0.0,0.1
1446038399898200925,209,1446038399894860029,robocape,4.45108571053,0.66440462213,52.4249835151,0.0,10.0,0.0,0.0,0.0,10.0,0.0,0.0,0.0,10.0,0.00652474467069,0.0218379209386,0.0067910607797,1.0,0.0,0.0,0.0,1.0,0.0,0.0,0.0,1.0,0.186811523438,0.0993933105469,10.0159716797,0.1,0.0,0.0,0.0,0.1,0.0,0.0,0.0,0.1
1446038399931428425,210,1446038399928338050,robocape,4.4430365429,0.71197801958,52.2042199111,0.0,10.0,0.0,0.0,0.0,10.0,0.0,0.0,0.0,10.0,0.00625842856169,0.0222373951022,0.0066579027252,1.0,0.0,0.0,0.0,1.0,0.0,0.0,0.0,1.0,0.180823974609,0.104183349609,10.0327368164,0.1,0.0,0.0,0.0,0.1,0.0,0.0,0.0,0.1
1446038399964907258,211,1446038399961647033,robocape,4.43427653272,0.759788050701,51.9854926556,0.0,10.0,0.0,0.0,0.0,10.0,0.0,0.0,0.0,10.0,0.00585895439817,0.0225037112112,0.00652474467069,1.0,0.0,0.0,0.0,1.0,0.0,0.0,0.0,1.0,0.184416503906,0.101788330078,10.0303417969,0.1,0.0,0.0,0.0,0.1,0.0,0.0,0.0,0.1
1446038399999252716,212,1446038399995821952,robocape,4.42252972561,0.808570074989,51.7690527958,0.0,10.0,0.0,0.0,0.0,10.0,0.0,0.0,0.0,10.0,0.00426105774413,0.0231695014837,0.00652474467069,1.0,0.0,0.0,0.0,1.0,0.0,0.0,0.0,1.0,0.189206542969,0.0981958007813,10.0231567383,0.1,0.0,0.0,0.0,0.1,0.0,0.0,0.0,0.1
1446038400032721050,213,1446038400029397964,robocape,4.41135264727,0.855529597926,51.5548329947,0.0,10.0,0.0,0.0,0.0,10.0,0.0,0.0,0.0,10.0,0.00452737385313,0.0223705531567,0.0066579027252,1.0,0.0,0.0,0.0,1.0,0.0,0.0,0.0,1.0,0.193996582031,0.0886157226563,10.0267492676,0.1,0.0,0.0,0.0,0.1,0.0,0.0,0.0,0.1
1446038400065615258,214,1446038400062345027,robocape,4.40099893418,0.901762805315,51.3420455624,0.0,10.0,0.0,0.0,0.0,10.0,0.0,0.0,0.0,10.0,0.00492684801665,0.0221042370477,0.00625842856169,1.0,0.0,0.0,0.0,1.0,0.0,0.0,0.0,1.0,0.193996582031,0.0946032714844,10.0339343262,0.1,0.0,0.0,0.0,0.1,0.0,0.0,0.0,0.1
1446038400098384883,215,1446038400095217943,robocape,4.39171792121,0.94745654844,51.1314972674,0.0,10.0,0.0,0.0,0.0,10.0,0.0,0.0,0.0,10.0,0.00545948023466,0.0219710789932,0.00639158661619,1.0,0.0,0.0,0.0,1.0,0.0,0.0,0.0,1.0,0.192799072266,0.0802331542969,10.0375268555,0.1,0.0,0.0,0.0,0.1,0.0,0.0,0.0,0.1
1446038400131458883,216,1446038400128408908,robocape,4.38299917983,0.993627166554,50.9232292568,0.0,10.0,0.0,0.0,0.0,10.0,0.0,0.0,0.0,10.0,0.00572579634367,0.0223705531567,0.00652474467069,1.0,0.0,0.0,0.0,1.0,0.0,0.0,0.0,1.0,0.184416503906,0.09580078125,10.0147741699,0.1,0.0,0.0,0.0,0.1,0.0,0.0,0.0,0.1
1446038400165732383,217,1446038400162586927,robocape,4.37408330387,1.03946201819,50.7177857776,0.0,10.0,0.0,0.0,0.0,10.0,0.0,0.0,0.0,10.0,0.00559263828917,0.0223705531567,0.00705737688871,1.0,0.0,0.0,0.0,1.0,0.0,0.0,0.0,1.0,0.189206542969,0.0898132324219,10.0279467773,0.1,0.0,0.0,0.0,0.1,0.0,0.0,0.0,0.1
1446038400199770050,218,1446038400196244001,robocape,4.36446291633,1.0865535609,50.5144116497,0.0,10.0,0.0,0.0,0.0,10.0,0.0,0.0,0.0,10.0,0.00519316412565,0.0231695014837,0.00705737688871,1.0,0.0,0.0,0.0,1.0,0.0,0.0,0.0,1.0,0.189206542969,0.101788330078,10.0075891113,0.1,0.0,0.0,0.0,0.1,0.0,0.0,0.0,0.1
1446038400232234842,219,1446038400229085922,robocape,4.3549006294,1.13165321273,50.3124358358,0.0,10.0,0.0,0.0,0.0,10.0,0.0,0.0,0.0,10.0,0.00519316412565,0.0222373951022,0.0067910607797,1.0,0.0,0.0,0.0,1.0,0.0,0.0,0.0,1.0,0.185614013672,0.0993933105469,10.0674645996,0.1,0.0,0.0,0.0,0.1,0.0,0.0,0.0,0.1
1446038400269812592,220,1446038400266588926,robocape,4.34463765794,1.17653851045,50.1119588492,0.0,10.0,0.0,0.0,0.0,10.0,0.0,0.0,0.0,10.0,0.00479368996214,0.0222373951022,0.00652474467069,1.0,0.0,0.0,0.0,1.0,0.0,0.0,0.0,1.0,0.190404052734,0.0934057617188,10.0495019531,0.1,0.0,0.0,0.0,0.1,0.0,0.0,0.0,0.1
1446038400298857175,221,1446038400295567035,robocape,4.33671639275,1.22090969203,49.9135223467,0.0,10.0,0.0,0.0,0.0,10.0,0.0,0.0,0.0,10.0,0.00599211245268,0.0221042370477,0.0066579027252,1.0,0.0,0.0,0.0,1.0,0.0,0.0,0.0,1.0,0.186811523438,0.0898132324219,10.0327368164,0.1,0.0,0.0,0.0,0.1,0.0,0.0,0.0,0.1
1446038400332069633,222,1446038400328962087,robocape,4.33011118709,1.26609174806,49.7165695225,0.0,10.0,0.0,0.0,0.0,10.0,0.0,0.0,0.0,10.0,0.0066579027252,0.0226368692657,0.00639158661619,1.0,0.0,0.0,0.0,1.0,0.0,0.0,0.0,1.0,0.177231445313,0.0946032714844,10.0135766602,0.1,0.0,0.0,0.0,0.1,0.0,0.0,0.0,0.1
1446038400367903758,223,1446038400364573955,robocape,4.32178597994,1.31124842884,49.5218945552,0.0,10.0,0.0,0.0,0.0,10.0,0.0,0.0,0.0,10.0,0.00572579634367,0.0227700273202,0.0066579027252,1.0,0.0,0.0,0.0,1.0,0.0,0.0,0.0,1.0,0.186811523438,0.0946032714844,10.0087866211,0.1,0.0,0.0,0.0,0.1,0.0,0.0,0.0,0.1
1446038400398130383,224,1446038400394994020,robocape,4.31174623504,1.35490117943,49.3289515885,0.0,10.0,0.0,0.0,0.0,10.0,0.0,0.0,0.0,10.0,0.00479368996214,0.0221042370477,0.0066579027252,1.0,0.0,0.0,0.0,1.0,0.0,0.0,0.0,1.0,0.190404052734,0.108973388672,10.0231567383,0.1,0.0,0.0,0.0,0.1,0.0,0.0,0.0,0.1
1446038400431248717,225,1446038400428049087,robocape,4.30101187412,1.39832081626,49.1377837855,0.0,10.0,0.0,0.0,0.0,10.0,0.0,0.0,0.0,10.0,0.00439421579863,0.0221042370477,0.0066579027252,1.0,0.0,0.0,0.0,1.0,0.0,0.0,0.0,1.0,0.190404052734,0.104183349609,10.024354248,0.1,0.0,0.0,0.0,0.1,0.0,0.0,0.0,0.1
1446038400465312550,226,1446038400462042093,robocape,4.29084672321,1.44154903815,48.947931578,0.0,10.0,0.0,0.0,0.0,10.0,0.0,0.0,0.0,10.0,0.00466053190764,0.0221042370477,0.00639158661619,1.0,0.0,0.0,0.0,1.0,0.0,0.0,0.0,1.0,0.190404052734,0.0910107421875,10.0363293457,0.1,0.0,0.0,0.0,0.1,0.0,0.0,0.0,0.1
1446038400497597383,227,1446038400494565963,robocape,4.28151536774,1.48447897214,48.7606258535,0.0,10.0,0.0,0.0,0.0,10.0,0.0,0.0,0.0,10.0,0.00506000607115,0.0221042370477,0.00692421883421,1.0,0.0,0.0,0.0,1.0,0.0,0.0,0.0,1.0,0.183218994141,0.0850231933594,10.0087866211,0.1,0.0,0.0,0.0,0.1,0.0,0.0,0.0,0.1
1446038400532274258,228,1446038400528929948,robocape,4.27351962071,1.52713488272,48.5756214023,0.0,10.0,0.0,0.0,0.0,10.0,0.0,0.0,0.0,10.0,0.00572579634367,0.0221042370477,0.00732369299772,1.0,0.0,0.0,0.0,1.0,0.0,0.0,0.0,1.0,0.199984130859,0.0981958007813,9.9980090332,0.1,0.0,0.0,0.0,0.1,0.0,0.0,0.0,0.1
1446038400566040425,229,1446038400562599897,robocape,4.26531546233,1.56941534673,48.3912114014,0.0,10.0,0.0,0.0,0.0,10.0,0.0,0.0,0.0,10.0,0.00559263828917,0.0219710789932,0.0066579027252,1.0,0.0,0.0,0.0,1.0,0.0,0.0,0.0,1.0,0.197589111328,0.0969982910156,10.0351318359,0.1,0.0,0.0,0.0,0.1,0.0,0.0,0.0,0.1
1446038400599180842,230,1446038400595839977,robocape,4.25768119517,1.61321606458,48.208970037,0.0,10.0,0.0,0.0,0.0,10.0,0.0,0.0,0.0,10.0,0.00585895439817,0.0229031853747,0.00692421883421,1.0,0.0,0.0,0.0,1.0,0.0,0.0,0.0,1.0,0.185614013672,0.107775878906,10.0099841309,0.1,0.0,0.0,0.0,0.1,0.0,0.0,0.0,0.1
1446038400632072008,231,1446038400628796100,robocape,4.24932774713,1.6553777811,48.0272017996,0.0,10.0,0.0,0.0,0.0,10.0,0.0,0.0,0.0,10.0,0.00545948023466,0.0221042370477,0.00625842856169,1.0,0.0,0.0,0.0,1.0,0.0,0.0,0.0,1.0,0.186811523438,0.110170898438,9.99202148437,0.1,0.0,0.0,0.0,0.1,0.0,0.0,0.0,0.1
1446038400668600175,232,1446038400665230989,robocape,4.24104990327,1.69799698693,47.8481354887,0.0,10.0,0.0,0.0,0.0,10.0,0.0,0.0,0.0,10.0,0.00545948023466,0.0225037112112,0.00692421883421,1.0,0.0,0.0,0.0,1.0,0.0,0.0,0.0,1.0,0.196391601563,0.0934057617188,10.019564209,0.1,0.0,0.0,0.0,0.1,0.0,0.0,0.0,0.1
1446038400698835258,233,1446038400695730924,robocape,4.23256711406,1.74071734861,47.6700218589,0.0,10.0,0.0,0.0,0.0,10.0,0.0,0.0,0.0,10.0,0.00532632218016,0.0226368692657,0.00652474467069,1.0,0.0,0.0,0.0,1.0,0.0,0.0,0.0,1.0,0.195194091797,0.0886157226563,10.0159716797,0.1,0.0,0.0,0.0,0.1,0.0,0.0,0.0,0.1
1446038400731945217,234,1446038400728667020,robocape,4.22415061697,1.78370023802,47.4939129388,0.0,10.0,0.0,0.0,0.0,10.0,0.0,0.0,0.0,10.0,0.00532632218016,0.0229031853747,0.0067910607797,1.0,0.0,0.0,0.0,1.0,0.0,0.0,0.0,1.0,0.202379150391,0.0969982910156,10.0411193848,0.1,0.0,0.0,0.0,0.1,0.0,0.0,0.0,0.1
1446038400765014675,235,1446038400761975049,robocape,4.21706204985,1.82620939493,47.3195112461,0.0,10.0,0.0,0.0,0.0,10.0,0.0,0.0,0.0,10.0,0.00599211245268,0.0227700273202,0.00692421883421,1.0,0.0,0.0,0.0,1.0,0.0,0.0,0.0,1.0,0.192799072266,0.0981958007813,10.0219592285,0.1,0.0,0.0,0.0,0.1,0.0,0.0,0.0,0.1
1446038400798717800,236,1446038400795449972,robocape,4.20901977669,1.86748891732,47.1467723952,0.0,10.0,0.0,0.0,0.0,10.0,0.0,0.0,0.0,10.0,0.00545948023466,0.0222373951022,0.00705737688871,1.0,0.0,0.0,0.0,1.0,0.0,0.0,0.0,1.0,0.188009033203,0.110170898438,10.0159716797,0.1,0.0,0.0,0.0,0.1,0.0,0.0,0.0,0.1
1446038400834488175,237,1446038400831073999,robocape,4.2018004167,1.90881006624,46.9757341851,0.0,10.0,0.0,0.0,0.0,10.0,0.0,0.0,0.0,10.0,0.00585895439817,0.0223705531567,0.00719053494321,1.0,0.0,0.0,0.0,1.0,0.0,0.0,0.0,1.0,0.195194091797,0.0993933105469,10.0159716797,0.1,0.0,0.0,0.0,0.1,0.0,0.0,0.0,0.1
1446038400864857592,238,1446038400861485958,robocape,4.19310971822,1.95048092668,46.8057758292,0.0,10.0,0.0,0.0,0.0,10.0,0.0,0.0,0.0,10.0,0.00506000607115,0.0226368692657,0.00692421883421,1.0,0.0,0.0,0.0,1.0,0.0,0.0,0.0,1.0,0.176033935547,0.0981958007813,10.003996582,0.1,0.0,0.0,0.0,0.1,0.0,0.0,0.0,0.1
1446038400897508675,239,1446038400894370079,robocape,4.18574569976,1.99069806039,46.637167228,0.0,10.0,0.0,0.0,0.0,10.0,0.0,0.0,0.0,10.0,0.00572579634367,0.0219710789932,0.00692421883421,1.0,0.0,0.0,0.0,1.0,0.0,0.0,0.0,1.0,0.185614013672,0.102985839844,10.0135766602,0.1,0.0,0.0,0.0,0.1,0.0,0.0,0.0,0.1
1446038400932022467,240,1446038400928896903,robocape,4.17818157119,2.03075025296,46.4697701968,0.0,10.0,0.0,0.0,0.0,10.0,0.0,0.0,0.0,10.0,0.00559263828917,0.0219710789932,0.0067910607797,1.0,0.0,0.0,0.0,1.0,0.0,0.0,0.0,1.0,0.176033935547,0.0934057617188,10.0159716797,0.1,0.0,0.0,0.0,0.1,0.0,0.0,0.0,0.1
1446038400965590217,241,1446038400962251901,robocape,4.17194144068,2.0716337669,46.3038261931,0.0,10.0,0.0,0.0,0.0,10.0,0.0,0.0,0.0,10.0,0.00625842856169,0.0225037112112,0.0067910607797,1.0,0.0,0.0,0.0,1.0,0.0,0.0,0.0,1.0,0.186811523438,0.0993933105469,10.0207617188,0.1,0.0,0.0,0.0,0.1,0.0,0.0,0.0,0.1
1446038400997851300,242,1446038400994704008,robocape,4.16600160889,2.11361889812,46.1391271772,0.0,10.0,0.0,0.0,0.0,10.0,0.0,0.0,0.0,10.0,0.00639158661619,0.0231695014837,0.0066579027252,1.0,0.0,0.0,0.0,1.0,0.0,0.0,0.0,1.0,0.208366699219,0.0826281738281,10.0087866211,0.1,0.0,0.0,0.0,0.1,0.0,0.0,0.0,0.1
1446038401031352509,243,1446038401028084039,robocape,4.15859822557,2.15388433782,45.9759317733,0.0,10.0,0.0,0.0,0.0,10.0,0.0,0.0,0.0,10.0,0.00559263828917,0.0223705531567,0.0067910607797,1.0,0.0,0.0,0.0,1.0,0.0,0.0,0.0,1.0,0.190404052734,0.112565917969,10.0339343262,0.1,0.0,0.0,0.0,0.1,0.0,0.0,0.0,0.1
1446038401065709467,244,1446038401062345981,robocape,4.14998093959,2.19424277495,45.813896726,0.0,10.0,0.0,0.0,0.0,10.0,0.0,0.0,0.0,10.0,0.00492684801665,0.0225037112112,0.0066579027252,1.0,0.0,0.0,0.0,1.0,0.0,0.0,0.0,1.0,0.190404052734,0.0886157226563,10.0375268555,0.1,0.0,0.0,0.0,0.1,0.0,0.0,0.0,0.1
1446038401098993342,245,1446038401095556974,robocape,4.14116031063,2.23471401814,45.6527795787,0.0,10.0,0.0,0.0,0.0,10.0,0.0,0.0,0.0,10.0,0.00479368996214,0.0226368692657,0.00639158661619,1.0,0.0,0.0,0.0,1.0,0.0,0.0,0.0,1.0,0.184416503906,0.0898132324219,10.0135766602,0.1,0.0,0.0,0.0,0.1,0.0,0.0,0.0,0.1
1446038401131927550,246,1446038401128875970,robocape,4.13244284136,2.27412030688,45.4944361334,0.0,10.0,0.0,0.0,0.0,10.0,0.0,0.0,0.0,10.0,0.00479368996214,0.0222373951022,0.00732369299772,1.0,0.0,0.0,0.0,1.0,0.0,0.0,0.0,1.0,0.182021484375,0.0874182128906,10.0255517578,0.1,0.0,0.0,0.0,0.1,0.0,0.0,0.0,0.1
1446038401164884009,247,1446038401161911964,robocape,4.12477009751,2.31395643437,45.3363244202,0.0,10.0,0.0,0.0,0.0,10.0,0.0,0.0,0.0,10.0,0.00532632218016,0.0225037112112,0.0066579027252,1.0,0.0,0.0,0.0,1.0,0.0,0.0,0.0,1.0,0.1916015625,0.101788330078,10.0267492676,0.1,0.0,0.0,0.0,0.1,0.0,0.0,0.0,0.1
1446038401198856925,248,1446038401195529937,robocape,4.11611750122,2.35394964142,45.1786531001,0.0,10.0,0.0,0.0,0.0,10.0,0.0,0.0,0.0,10.0,0.00479368996214,0.0226368692657,0.00612527050718,1.0,0.0,0.0,0.0,1.0,0.0,0.0,0.0,1.0,0.190404052734,0.100590820313,10.0626745605,0.1,0.0,0.0,0.0,0.1,0.0,0.0,0.0,0.1
1446038401232027717,249,1446038401228703022,robocape,4.10707138929,2.39337051586,45.0239634128,0.0,10.0,0.0,0.0,0.0,10.0,0.0,0.0,0.0,10.0,0.00452737385313,0.0225037112112,0.00719053494321,1.0,0.0,0.0,0.0,1.0,0.0,0.0,0.0,1.0,0.198786621094,0.0922082519531,10.019564209,0.1,0.0,0.0,0.0,0.1,0.0,0.0,0.0,0.1
1446038401265211842,250,1446038401262140035,robocape,4.09960076081,2.43289840863,44.8702961476,0.0,10.0,0.0,0.0,0.0,10.0,0.0,0.0,0.0,10.0,0.00532632218016,0.0226368692657,0.00705737688871,1.0,0.0,0.0,0.0,1.0,0.0,0.0,0.0,1.0,0.203576660156,0.0946032714844,10.0147741699,0.1,0.0,0.0,0.0,0.1,0.0,0.0,0.0,0.1
1446038401298477175,251,1446038401295284032,robocape,4.09244055994,2.47251600374,44.7178648244,0.0,10.0,0.0,0.0,0.0,10.0,0.0,0.0,0.0,10.0,0.00545948023466,0.0227700273202,0.00705737688871,1.0,0.0,0.0,0.0,1.0,0.0,0.0,0.0,1.0,0.186811523438,0.108973388672,10.0231567383,0.1,0.0,0.0,0.0,0.1,0.0,0.0,0.0,0.1
1446038401332368300,252,1446038401329082965,robocape,4.08404920738,2.5120263987,44.5660029134,0.0,10.0,0.0,0.0,0.0,10.0,0.0,0.0,0.0,10.0,0.00479368996214,0.0227700273202,0.0066579027252,1.0,0.0,0.0,0.0,1.0,0.0,0.0,0.0,1.0,0.179626464844,0.102985839844,10.0171691895,0.1,0.0,0.0,0.0,0.1,0.0,0.0,0.0,0.1
1446038401365486967,253,1446038401362211942,robocape,4.07622412875,2.55162855458,44.4153467809,0.0,10.0,0.0,0.0,0.0,10.0,0.0,0.0,0.0,10.0,0.00506000607115,0.0229031853747,0.0066579027252,1.0,0.0,0.0,0.0,1.0,0.0,0.0,0.0,1.0,0.195194091797,0.0946032714844,10.0135766602,0.1,0.0,0.0,0.0,0.1,0.0,0.0,0.0,0.1
1446038401398542134,254,1446038401395406961,robocape,4.06923794958,2.59025749463,44.2664707013,0.0,10.0,0.0,0.0,0.0,10.0,0.0,0.0,0.0,10.0,0.00545948023466,0.0225037112112,0.00705737688871,1.0,0.0,0.0,0.0,1.0,0.0,0.0,0.0,1.0,0.190404052734,0.0730480957031,10.0267492676,0.1,0.0,0.0,0.0,0.1,0.0,0.0,0.0,0.1
1446038401432047634,255,1446038401428920030,robocape,4.062285095,2.62954663817,44.1181488758,0.0,10.0,0.0,0.0,0.0,10.0,0.0,0.0,0.0,10.0,0.00545948023466,0.0229031853747,0.0066579027252,1.0,0.0,0.0,0.0,1.0,0.0,0.0,0.0,1.0,0.190404052734,0.0898132324219,10.0207617188,0.1,0.0,0.0,0.0,0.1,0.0,0.0,0.0,0.1
1446038401465972509,256,1446038401462835073,robocape,4.05491085138,2.66759445204,43.9717932738,0.0,10.0,0.0,0.0,0.0,10.0,0.0,0.0,0.0,10.0,0.00519316412565,0.0223705531567,0.00719053494321,1.0,0.0,0.0,0.0,1.0,0.0,0.0,0.0,1.0,0.189206542969,0.0993933105469,10.0255517578,0.1,0.0,0.0,0.0,0.1,0.0,0.0,0.0,0.1
1446038401498560884,257,1446038401495484113,robocape,4.04709512406,2.70471499247,43.8267469111,0.0,10.0,0.0,0.0,0.0,10.0,0.0,0.0,0.0,10.0,0.00492684801665,0.0219710789932,0.00732369299772,1.0,0.0,0.0,0.0,1.0,0.0,0.0,0.0,1.0,0.179626464844,0.09580078125,10.0087866211,0.1,0.0,0.0,0.0,0.1,0.0,0.0,0.0,0.1
1446038401532416384,258,1446038401529038906,robocape,4.03903807766,2.74306524931,43.6815838086,0.0,10.0,0.0,0.0,0.0,10.0,0.0,0.0,0.0,10.0,0.00479368996214,0.0226368692657,0.00652474467069,1.0,0.0,0.0,0.0,1.0,0.0,0.0,0.0,1.0,0.190404052734,0.102985839844,10.0303417969,0.1,0.0,0.0,0.0,0.1,0.0,0.0,0.0,0.1
1446038401565638175,259,1446038401562403917,robocape,4.0323052116,2.78076211479,43.537489935,0.0,10.0,0.0,0.0,0.0,10.0,0.0,0.0,0.0,10.0,0.00545948023466,0.0223705531567,0.00652474467069,1.0,0.0,0.0,0.0,1.0,0.0,0.0,0.0,1.0,0.193996582031,0.0934057617188,10.0171691895,0.1,0.0,0.0,0.0,0.1,0.0,0.0,0.0,0.1
1446038401598656092,260,1446038401595616102,robocape,4.02463089623,2.8180234677,43.3949232349,0.0,10.0,0.0,0.0,0.0,10.0,0.0,0.0,0.0,10.0,0.00492684801665,0.0222373951022,0.0067910607797,1.0,0.0,0.0,0.0,1.0,0.0,0.0,0.0,1.0,0.197589111328,0.105380859375,10.0231567383,0.1,0.0,0.0,0.0,0.1,0.0,0.0,0.0,0.1
1446038401632071842,261,1446038401629028081,robocape,4.01904083587,2.85590233883,43.2534623928,0.0,10.0,0.0,0.0,0.0,10.0,0.0,0.0,0.0,10.0,0.00599211245268,0.0226368692657,0.0067910607797,1.0,0.0,0.0,0.0,1.0,0.0,0.0,0.0,1.0,0.188009033203,0.0874182128906,10.0315393066,0.1,0.0,0.0,0.0,0.1,0.0,0.0,0.0,0.1
1446038401667830259,262,1446038401664721965,robocape,4.01295900383,2.89346145533,43.1121823419,0.0,10.0,0.0,0.0,0.0,10.0,0.0,0.0,0.0,10.0,0.00572579634367,0.0225037112112,0.00625842856169,1.0,0.0,0.0,0.0,1.0,0.0,0.0,0.0,1.0,0.199984130859,0.105380859375,10.0183666992,0.1,0.0,0.0,0.0,0.1,0.0,0.0,0.0,0.1
1446038401699141301,263,1446038401695930004,robocape,4.00670200755,2.9300662397,42.9725774539,0.0,10.0,0.0,0.0,0.0,10.0,0.0,0.0,0.0,10.0,0.00559263828917,0.0221042370477,0.0066579027252,1.0,0.0,0.0,0.0,1.0,0.0,0.0,0.0,1.0,0.193996582031,0.105380859375,10.0315393066,0.1,0.0,0.0,0.0,0.1,0.0,0.0,0.0,0.1
1446038401732330759,264,1446038401729176998,robocape,3.99976551185,2.96572039201,42.8346359857,0.0,10.0,0.0,0.0,0.0,10.0,0.0,0.0,0.0,10.0,0.00519316412565,0.0217047628841,0.00705737688871,1.0,0.0,0.0,0.0,1.0,0.0,0.0,0.0,1.0,0.189206542969,0.111368408203,10.0375268555,0.1,0.0,0.0,0.0,0.1,0.0,0.0,0.0,0.1
1446038401766218176,265,1446038401763227939,robocape,3.99440458097,3.00099127474,42.6976936215,0.0,10.0,0.0,0.0,0.0,10.0,0.0,0.0,0.0,10.0,0.00599211245268,0.0215716048296,0.00705737688871,1.0,0.0,0.0,0.0,1.0,0.0,0.0,0.0,1.0,0.184416503906,0.09580078125,10.0315393066,0.1,0.0,0.0,0.0,0.1,0.0,0.0,0.0,0.1
1446038401799040217,266,1446038401795840978,robocape,3.98882425605,3.03768772378,42.5614134148,0.0,10.0,0.0,0.0,0.0,10.0,0.0,0.0,0.0,10.0,0.00585895439817,0.0223705531567,0.0067910607797,1.0,0.0,0.0,0.0,1.0,0.0,0.0,0.0,1.0,0.199984130859,0.0910107421875,10.0075891113,0.1,0.0,0.0,0.0,0.1,0.0,0.0,0.0,0.1
1446038401832093217,267,1446038401829022884,robocape,3.98356720648,3.07472028541,42.4266025349,0.0,10.0,0.0,0.0,0.0,10.0,0.0,0.0,0.0,10.0,0.00599211245268,0.0226368692657,0.00705737688871,1.0,0.0,0.0,0.0,1.0,0.0,0.0,0.0,1.0,0.186811523438,0.101788330078,10.0291442871,0.1,0.0,0.0,0.0,0.1,0.0,0.0,0.0,0.1
1446038401865633009,268,1446038401862478017,robocape,3.97633236641,3.11086099675,42.2927529287,0.0,10.0,0.0,0.0,0.0,10.0,0.0,0.0,0.0,10.0,0.00492684801665,0.0222373951022,0.00705737688871,1.0,0.0,0.0,0.0,1.0,0.0,0.0,0.0,1.0,0.186811523438,0.0910107421875,10.0147741699,0.1,0.0,0.0,0.0,0.1,0.0,0.0,0.0,0.1
1446038401899216009,269,1446038401896219968,robocape,3.97087565498,3.14646165191,42.1587351238,0.0,10.0,0.0,0.0,0.0,10.0,0.0,0.0,0.0,10.0,0.00585895439817,0.0219710789932,0.00639158661619,1.0,0.0,0.0,0.0,1.0,0.0,0.0,0.0,1.0,0.180823974609,0.0946032714844,10.0267492676,0.1,0.0,0.0,0.0,0.1,0.0,0.0,0.0,0.1
1446038401931939259,270,1446038401928877115,robocape,3.9657330561,3.18242391556,42.0259365238,0.0,10.0,0.0,0.0,0.0,10.0,0.0,0.0,0.0,10.0,0.00599211245268,0.0222373951022,0.00652474467069,1.0,0.0,0.0,0.0,1.0,0.0,0.0,0.0,1.0,0.185614013672,0.0969982910156,10.0291442871,0.1,0.0,0.0,0.0,0.1,0.0,0.0,0.0,0.1
1446038401965458217,271,1446038401962168931,robocape,3.95915119354,3.21870881031,41.8947991071,0.0,10.0,0.0,0.0,0.0,10.0,0.0,0.0,0.0,10.0,0.00519316412565,0.0225037112112,0.00692421883421,1.0,0.0,0.0,0.0,1.0,0.0,0.0,0.0,1.0,0.183218994141,0.102985839844,10.0171691895,0.1,0.0,0.0,0.0,0.1,0.0,0.0,0.0,0.1
1446038401997903926,272,1446038401994852066,robocape,3.95412127121,3.25541107199,41.7641783846,0.0,10.0,0.0,0.0,0.0,10.0,0.0,0.0,0.0,10.0,0.00599211245268,0.0227700273202,0.0066579027252,1.0,0.0,0.0,0.0,1.0,0.0,0.0,0.0,1.0,0.190404052734,0.100590820313,10.039921875,0.1,0.0,0.0,0.0,0.1,0.0,0.0,0.0,0.1
1446038402031864009,273,1446038402028832912,robocape,3.94962209822,3.29076184106,41.6339757165,0.0,10.0,0.0,0.0,0.0,10.0,0.0,0.0,0.0,10.0,0.00625842856169,0.0221042370477,0.00639158661619,1.0,0.0,0.0,0.0,1.0,0.0,0.0,0.0,1.0,0.182021484375,0.102985839844,10.0459094238,0.1,0.0,0.0,0.0,0.1,0.0,0.0,0.0,0.1
1446038402064895384,274,1446038402061677932,robocape,3.94317708378,3.32694569347,41.5054356465,0.0,10.0,0.0,0.0,0.0,10.0,0.0,0.0,0.0,10.0,0.00519316412565,0.0226368692657,0.0067910607797,1.0,0.0,0.0,0.0,1.0,0.0,0.0,0.0,1.0,0.177231445313,0.101788330078,10.0375268555,0.1,0.0,0.0,0.0,0.1,0.0,0.0,0.0,0.1
1446038402097252051,275,1446038402094327926,robocape,3.93756533331,3.3627162066,41.3782296391,0.0,10.0,0.0,0.0,0.0,10.0,0.0,0.0,0.0,10.0,0.00559263828917,0.0225037112112,0.00705737688871,1.0,0.0,0.0,0.0,1.0,0.0,0.0,0.0,1.0,0.189206542969,0.100590820313,10.0339343262,0.1,0.0,0.0,0.0,0.1,0.0,0.0,0.0,0.1
1446038402130615259,276,1446038402127666950,robocape,3.93147259454,3.39713960306,41.251412179,0.0,10.0,0.0,0.0,0.0,10.0,0.0,0.0,0.0,10.0,0.00532632218016,0.0218379209386,0.0067910607797,1.0,0.0,0.0,0.0,1.0,0.0,0.0,0.0,1.0,0.188009033203,0.101788330078,10.0171691895,0.1,0.0,0.0,0.0,0.1,0.0,0.0,0.0,0.1
1446038402165912384,277,1446038402162319898,robocape,3.92472999853,3.43236366432,41.1266566234,0.0,10.0,0.0,0.0,0.0,10.0,0.0,0.0,0.0,10.0,0.00492684801665,0.0223705531567,0.00745685105222,1.0,0.0,0.0,0.0,1.0,0.0,0.0,0.0,1.0,0.184416503906,0.0898132324219,10.0471069336,0.1,0.0,0.0,0.0,0.1,0.0,0.0,0.0,0.1
1446038402198870801,278,1446038402195785045,robocape,3.91850095563,3.46729221751,41.0018674354,0.0,10.0,0.0,0.0,0.0,10.0,0.0,0.0,0.0,10.0,0.00519316412565,0.0222373951022,0.00692421883421,1.0,0.0,0.0,0.0,1.0,0.0,0.0,0.0,1.0,0.1916015625,0.0981958007813,10.0291442871,0.1,0.0,0.0,0.0,0.1,0.0,0.0,0.0,0.1
1446038402238357217,279,1446038402235130071,robocape,3.91336006092,3.50232072712,40.8783979714,0.0,10.0,0.0,0.0,0.0,10.0,0.0,0.0,0.0,10.0,0.00572579634367,0.0223705531567,0.00719053494321,1.0,0.0,0.0,0.0,1.0,0.0,0.0,0.0,1.0,0.188009033203,0.107775878906,10.0255517578,0.1,0.0,0.0,0.0,0.1,0.0,0.0,0.0,0.1
1446038402268264384,280,1446038402265193939,robocape,3.9067237179,3.53727118535,40.7553503276,0.0,10.0,0.0,0.0,0.0,10.0,0.0,0.0,0.0,10.0,0.00492684801665,0.0223705531567,0.00692421883421,1.0,0.0,0.0,0.0,1.0,0.0,0.0,0.0,1.0,0.177231445313,0.107775878906,10.0171691895,0.1,0.0,0.0,0.0,0.1,0.0,0.0,0.0,0.1
1446038402303404717,281,1446038402299767017,robocape,3.90142884822,3.57131200388,40.6335465421,0.0,10.0,0.0,0.0,0.0,10.0,0.0,0.0,0.0,10.0,0.00559263828917,0.0219710789932,0.00719053494321,1.0,0.0,0.0,0.0,1.0,0.0,0.0,0.0,1.0,0.182021484375,0.106578369141,10.0027990723,0.1,0.0,0.0,0.0,0.1,0.0,0.0,0.0,0.1
1446038402335758634,282,1446038402331307888,robocape,3.89590626967,3.60603845776,40.5121769504,0.0,10.0,0.0,0.0,0.0,10.0,0.0,0.0,0.0,10.0,0.00545948023466,0.0223705531567,0.00692421883421,1.0,0.0,0.0,0.0,1.0,0.0,0.0,0.0,1.0,0.186811523438,0.107775878906,10.0459094238,0.1,0.0,0.0,0.0,0.1,0.0,0.0,0.0,0.1
1446038402366409884,283,1446038402363140106,robocape,3.88995167977,3.64162634184,40.3921413158,0.0,10.0,0.0,0.0,0.0,10.0,0.0,0.0,0.0,10.0,0.00519316412565,0.0229031853747,0.00719053494321,1.0,0.0,0.0,0.0,1.0,0.0,0.0,0.0,1.0,0.190404052734,0.0922082519531,10.0315393066,0.1,0.0,0.0,0.0,0.1,0.0,0.0,0.0,0.1
1446038402404052134,284,1446038402400572061,robocape,3.88481670985,3.67607105305,40.2730859091,0.0,10.0,0.0,0.0,0.0,10.0,0.0,0.0,0.0,10.0,0.00559263828917,0.0223705531567,0.00732369299772,1.0,0.0,0.0,0.0,1.0,0.0,0.0,0.0,1.0,0.201181640625,0.101788330078,10.039921875,0.1,0.0,0.0,0.0,0.1,0.0,0.0,0.0,0.1
1446038402437405676,285,1446038402433363914,robocape,3.87970368224,3.71044442739,40.1543908619,0.0,10.0,0.0,0.0,0.0,10.0,0.0,0.0,0.0,10.0,0.00559263828917,0.0223705531567,0.00705737688871,1.0,0.0,0.0,0.0,1.0,0.0,0.0,0.0,1.0,0.170046386719,0.100590820313,10.0135766602,0.1,0.0,0.0,0.0,0.1,0.0,0.0,0.0,0.1
1446038402466758634,286,1446038402463150978,robocape,3.87688991565,3.74373802489,40.0359799668,0.0,10.0,0.0,0.0,0.0,10.0,0.0,0.0,0.0,10.0,0.0067910607797,0.0218379209386,0.0067910607797,1.0,0.0,0.0,0.0,1.0,0.0,0.0,0.0,1.0,0.1916015625,0.0167651367188,10.0351318359,0.1,0.0,0.0,0.0,0.1,0.0,0.0,0.0,0.1
1446038402503716968,287,1446038402496069908,robocape,4.02948691331,3.79791459043,39.7737429339,0.0,10.0,0.0,0.0,0.0,10.0,0.0,0.0,0.0,10.0,0.0928111639893,0.0263652947918,-0.0788295682663,1.0,0.0,0.0,0.0,1.0,0.0,0.0,0.0,1.0,0.137713623047,0.183218994141,10.0435144043,0.1,0.0,0.0,0.0,0.1,0.0,0.0,0.0,0.1
1446038402542924718,288,1446038402536936044,robocape,4.01446827579,3.83650329992,39.5719888404,0.0,10.0,0.0,0.0,0.0,10.0,0.0,0.0,0.0,10.0,0.0031957933081,0.0207726565026,-0.0442084740953,1.0,0.0,0.0,0.0,1.0,0.0,0.0,0.0,1.0,0.198786621094,0.576002197266,10.0303417969,0.1,0.0,0.0,0.0,0.1,0.0,0.0,0.0,0.1
1446038402570197884,289,1446038402567114114,robocape,3.93906300681,3.87435094236,39.3395636682,0.0,10.0,0.0,0.0,0.0,10.0,0.0,0.0,0.0,10.0,-0.0275637172823,0.0190416017941,-0.0632500758894,1.0,0.0,0.0,0.0,1.0,0.0,0.0,0.0,1.0,0.193996582031,0.734073486328,10.0279467773,0.1,0.0,0.0,0.0,0.1,0.0,0.0,0.0,0.1
1446038402602801343,290,1446038402599775075,robocape,3.74715343974,3.89986007439,39.1567823332,0.0,10.0,0.0,0.0,0.0,10.0,0.0,0.0,0.0,10.0,-0.0904143190082,0.0149137021044,-0.03488741028,1.0,0.0,0.0,0.0,1.0,0.0,0.0,0.0,1.0,0.170046386719,0.219144287109,9.99920654297,0.1,0.0,0.0,0.0,0.1,0.0,0.0,0.0,0.1
1446038402638594676,291,1446038402632672071,robocape,3.52652854515,3.92437426189,38.9398336189,0.0,10.0,0.0,0.0,0.0,10.0,0.0,0.0,0.0,10.0,-0.10466223084,0.0131826473959,-0.0556600667827,1.0,0.0,0.0,0.0,1.0,0.0,0.0,0.0,1.0,0.1149609375,0.371228027344,10.055489502,0.1,0.0,0.0,0.0,0.1,0.0,0.0,0.0,0.1
1446038402689406384,292,1446038402679536104,robocape,3.24206624952,3.93805992662,38.8317145916,0.0,10.0,0.0,0.0,0.0,10.0,0.0,0.0,0.0,10.0,-0.142079644156,0.0121173829599,0.00772316716123,1.0,0.0,0.0,0.0,1.0,0.0,0.0,0.0,1.0,0.192799072266,-0.209564208984,10.0147741699,0.1,0.0,0.0,0.0,0.1,0.0,0.0,0.0,0.1
1446038402724346468,293,1446038402715764999,robocape,3.13010725595,3.9683803571,38.6688463936,0.0,10.0,0.0,0.0,0.0,10.0,0.0,0.0,0.0,10.0,-0.0500674284935,0.0189084437396,-0.0246342400832,1.0,0.0,0.0,0.0,1.0,0.0,0.0,0.0,1.0,0.223934326172,-0.461041259766,10.003996582,0.1,0.0,0.0,0.0,0.1,0.0,0.0,0.0,0.1
1446038402752776218,294,1446038402749674081,robocape,3.09446949936,4.00231482291,38.5611417804,0.0,10.0,0.0,0.0,0.0,10.0,0.0,0.0,0.0,10.0,-0.0119842249054,0.0229031853747,0.00732369299772,1.0,0.0,0.0,0.0,1.0,0.0,0.0,0.0,1.0,0.258662109375,-0.544866943359,10.0075891113,0.1,0.0,0.0,0.0,0.1,0.0,0.0,0.0,0.1
1446038402790582301,295,1446038402783833980,robocape,3.21929491957,4.04544481816,38.4485727734,0.0,10.0,0.0,0.0,0.0,10.0,0.0,0.0,0.0,10.0,0.0724379816502,0.0275637172823,0.00426105774413,1.0,0.0,0.0,0.0,1.0,0.0,0.0,0.0,1.0,0.234711914063,-0.320932617188,10.0339343262,0.1,0.0,0.0,0.0,0.1,0.0,0.0,0.0,0.1
1446038402821372051,296,1446038402818304061,robocape,3.40625876654,4.09277384273,38.3314220829,0.0,10.0,0.0,0.0,0.0,10.0,0.0,0.0,0.0,10.0,0.105461179167,0.0295610880999,0.00119842249054,1.0,0.0,0.0,0.0,1.0,0.0,0.0,0.0,1.0,0.1916015625,-0.0047900390625,10.0387243652,0.1,0.0,0.0,0.0,0.1,0.0,0.0,0.0,0.1
1446038402855897801,297,1446038402846947908,robocape,3.5792152574,4.14069886114,38.2110323855,0.0,10.0,0.0,0.0,0.0,10.0,0.0,0.0,0.0,10.0,0.0985369603329,0.0296942461544,-0.00119842249054,1.0,0.0,0.0,0.0,1.0,0.0,0.0,0.0,1.0,0.192799072266,0.154478759766,10.0351318359,0.1,0.0,0.0,0.0,0.1,0.0,0.0,0.0,0.1
1446038402880544343,298,1446038402877461910,robocape,3.67151708223,4.17886379182,38.1059386953,0.0,10.0,0.0,0.0,0.0,10.0,0.0,0.0,0.0,10.0,0.0559263828917,0.0251668723012,0.00732369299772,1.0,0.0,0.0,0.0,1.0,0.0,0.0,0.0,1.0,0.152083740234,0.438288574219,10.0171691895,0.1,0.0,0.0,0.0,0.1,0.0,0.0,0.0,0.1
1446038402904777176,299,1446038402901566028,robocape,3.67914165965,4.21270864874,38.0011097616,0.0,10.0,0.0,0.0,0.0,10.0,0.0,0.0,0.0,10.0,0.0115847507418,0.0229031853747,0.00692421883421,1.0,0.0,0.0,0.0,1.0,0.0,0.0,0.0,1.0,0.159268798828,0.531694335938,10.0291442871,0.1,0.0,0.0,0.0,0.1,0.0,0.0,0.0,0.1
1446038402934732634,300,1446038402931730985,robocape,3.58402581372,4.23897728815,37.9368076069,0.0,10.0,0.0,0.0,0.0,10.0,0.0,0.0,0.0,10.0,-0.0438089999318,0.0206394984481,0.0300937203179,1.0,0.0,0.0,0.0,1.0,0.0,0.0,0.0,1.0,0.154478759766,0.579594726562,10.0135766602,0.1,0.0,0.0,0.0,0.1,0.0,0.0,0.0,0.1
1446038402972056384,301,1446038402967573881,robocape,3.36901799371,4.25098632729,37.9159370827,0.0,10.0,0.0,0.0,0.0,10.0,0.0,0.0,0.0,10.0,-0.108523814421,0.0149137021044,0.0552605926191,1.0,0.0,0.0,0.0,1.0,0.0,0.0,0.0,1.0,0.1916015625,-0.0323327636719,10.0111816406,0.1,0.0,0.0,0.0,0.1,0.0,0.0,0.0,0.1
1446038403002393301,302,1446038402999291896,robocape,3.27393224188,4.27621882326,37.8232511834,0.0,10.0,0.0,0.0,0.0,10.0,0.0,0.0,0.0,10.0,-0.0432763677138,0.0190416017941,0.0133158054504,1.0,0.0,0.0,0.0,1.0,0.0,0.0,0.0,1.0,0.214354248047,-0.298179931641,10.0123791504,0.1,0.0,0.0,0.0,0.1,0.0,0.0,0.0,0.1
1446038403035537968,303,1446038403032130956,robocape,3.25998909518,4.30745157463,37.730750028,0.0,10.0,0.0,0.0,0.0,10.0,0.0,0.0,0.0,10.0,-0.000798948327024,0.0222373951022,0.0131826473959,1.0,0.0,0.0,0.0,1.0,0.0,0.0,0.0,1.0,0.231119384766,-0.320932617188,10.0123791504,0.1,0.0,0.0,0.0,0.1,0.0,0.0,0.0,0.1
1446038403069102135,304,1446038403065603017,robocape,3.29165789979,4.33336024808,37.7173171176,0.0,10.0,0.0,0.0,0.0,10.0,0.0,0.0,0.0,10.0,0.0202400242846,0.0225037112112,0.0592553342543,1.0,0.0,0.0,0.0,1.0,0.0,0.0,0.0,1.0,0.231119384766,-0.529299316406,9.99321899414,0.1,0.0,0.0,0.0,0.1,0.0,0.0,0.0,0.1
1446038403103897968,305,1446038403100750923,robocape,3.42338306316,4.36885659338,37.6683521174,0.0,10.0,0.0,0.0,0.0,10.0,0.0,0.0,0.0,10.0,0.0741690363587,0.0262321367373,0.0384826777516,1.0,0.0,0.0,0.0,1.0,0.0,0.0,0.0,1.0,0.178428955078,0.186811523438,10.0734521484,0.1,0.0,0.0,0.0,0.1,0.0,0.0,0.0,0.1
1446038403136952301,306,1446038403133706092,robocape,3.56417248806,4.41402281085,37.5813157437,0.0,10.0,0.0,0.0,0.0,10.0,0.0,0.0,0.0,10.0,0.0805606229749,0.0298274042089,0.015845808486,1.0,0.0,0.0,0.0,1.0,0.0,0.0,0.0,1.0,0.220341796875,0.0455053710938,10.0051940918,0.1,0.0,0.0,0.0,0.1,0.0,0.0,0.0,0.1
1446038403168313968,307,1446038403165021896,robocape,3.69436798448,4.45679803408,37.4762815175,0.0,10.0,0.0,0.0,0.0,10.0,0.0,0.0,0.0,10.0,0.0759000910673,0.0278300333913,0.00506000607115,1.0,0.0,0.0,0.0,1.0,0.0,0.0,0.0,1.0,0.204774169922,-0.0239501953125,9.96088623047,0.1,0.0,0.0,0.0,0.1,0.0,0.0,0.0,0.1
1446038403203108593,308,1446038403199758052,robocape,3.69509233018,4.48583344633,37.4377926008,0.0,10.0,0.0,0.0,0.0,10.0,0.0,0.0,0.0,10.0,0.00559263828917,0.0234358175927,0.0434095257683,1.0,0.0,0.0,0.0,1.0,0.0,0.0,0.0,1.0,0.124541015625,0.754431152344,9.97525634766,0.1,0.0,0.0,0.0,0.1,0.0,0.0,0.0,0.1
1446038403234038968,309,1446038403230567932,robocape,3.68807226068,4.51909969828,37.3339301938,0.0,10.0,0.0,0.0,0.0,10.0,0.0,0.0,0.0,10.0,0.00399474163512,0.0229031853747,0.00506000607115,1.0,0.0,0.0,0.0,1.0,0.0,0.0,0.0,1.0,0.202379150391,0.156873779297,10.0231567383,0.1,0.0,0.0,0.0,0.1,0.0,0.0,0.0,0.1
1446038403268450593,310,1446038403264971971,robocape,3.5876939868,4.54370390793,37.2426906086,0.0,10.0,0.0,0.0,0.0,10.0,0.0,0.0,0.0,10.0,-0.0455400546404,0.0189084437396,0.0119842249054,1.0,0.0,0.0,0.0,1.0,0.0,0.0,0.0,1.0,0.199984130859,-0.0826281738281,9.9980090332,0.1,0.0,0.0,0.0,0.1,0.0,0.0,0.0,0.1
1446038403303492135,311,1446038403300304889,robocape,3.46922451434,4.5669478063,37.1840491413,0.0,10.0,0.0,0.0,0.0,10.0,0.0,0.0,0.0,10.0,-0.0564590151097,0.0195742340121,0.0306263525359,1.0,0.0,0.0,0.0,1.0,0.0,0.0,0.0,1.0,0.176033935547,-0.0790356445313,10.0566870117,0.1,0.0,0.0,0.0,0.1,0.0,0.0,0.0,0.1
1446038403333619551,312,1446038403330430984,robocape,3.37052763463,4.58899823338,37.1205175897,0.0,10.0,0.0,0.0,0.0,10.0,0.0,0.0,0.0,10.0,-0.0460726868584,0.0187752856851,0.0276968753368,1.0,0.0,0.0,0.0,1.0,0.0,0.0,0.0,1.0,0.252674560547,-0.281414794922,10.0459094238,0.1,0.0,0.0,0.0,0.1,0.0,0.0,0.0,0.1
1446038403366165385,313,1446038403362941980,robocape,3.37450327304,4.61938705475,37.0363735231,0.0,10.0,0.0,0.0,0.0,10.0,0.0,0.0,0.0,10.0,0.00852211548825,0.0223705531567,0.015579492377,1.0,0.0,0.0,0.0,1.0,0.0,0.0,0.0,1.0,0.207169189453,-0.05748046875,10.0231567383,0.1,0.0,0.0,0.0,0.1,0.0,0.0,0.0,0.1
1446038403398803301,314,1446038403395735025,robocape,3.41354123222,4.65164663935,36.9771955788,0.0,10.0,0.0,0.0,0.0,10.0,0.0,0.0,0.0,10.0,0.0259658206283,0.0243679239742,0.0298274042089,1.0,0.0,0.0,0.0,1.0,0.0,0.0,0.0,1.0,0.257464599609,-0.511336669922,9.99202148437,0.1,0.0,0.0,0.0,0.1,0.0,0.0,0.0,0.1
1446038403438381426,315,1446038403434465885,robocape,3.5059820445,4.68659126786,36.9052009992,0.0,10.0,0.0,0.0,0.0,10.0,0.0,0.0,0.0,10.0,0.0545948023466,0.0253000303558,0.0222373951022,1.0,0.0,0.0,0.0,1.0,0.0,0.0,0.0,1.0,0.167651367188,0.0562829589844,10.0854272461,0.1,0.0,0.0,0.0,0.1,0.0,0.0,0.0,0.1
1446038403469043260,316,1446038403465426921,robocape,3.6533269259,4.7276819899,36.8157953411,0.0,10.0,0.0,0.0,0.0,10.0,0.0,0.0,0.0,10.0,0.084289048501,0.0278300333913,0.0118510668509,1.0,0.0,0.0,0.0,1.0,0.0,0.0,0.0,1.0,0.144898681641,0.349672851562,10.0566870117,0.1,0.0,0.0,0.0,0.1,0.0,0.0,0.0,0.1
1446038403501848468,317,1446038403498385906,robocape,3.68600897156,4.75897447447,36.7442814704,0.0,10.0,0.0,0.0,0.0,10.0,0.0,0.0,0.0,10.0,0.0235689756472,0.0234358175927,0.0218379209386,1.0,0.0,0.0,0.0,1.0,0.0,0.0,0.0,1.0,0.223934326172,-0.105380859375,9.99202148437,0.1,0.0,0.0,0.0,0.1,0.0,0.0,0.0,0.1
1446038403534894718,318,1446038403531130075,robocape,3.73988803562,4.78654909196,36.69589227,0.0,10.0,0.0,0.0,0.0,10.0,0.0,0.0,0.0,10.0,0.033822145844,0.0225037112112,0.035153726389,1.0,0.0,0.0,0.0,1.0,0.0,0.0,0.0,1.0,0.149688720703,0.186811523438,9.98842895508,0.1,0.0,0.0,0.0,0.1,0.0,0.0,0.0,0.1
1446038403567607801,319,1446038403564090013,robocape,3.68883705328,4.81194062353,36.6462033429,0.0,10.0,0.0,0.0,0.0,10.0,0.0,0.0,0.0,10.0,-0.0211721306661,0.0213052887206,0.0339553038985,1.0,0.0,0.0,0.0,1.0,0.0,0.0,0.0,1.0,0.238304443359,-0.00359252929688,10.0351318359,0.1,0.0,0.0,0.0,0.1,0.0,0.0,0.0,0.1
1446038403600359843,320,1446038403596709012,robocape,3.63686174095,4.8360928701,36.5988111992,0.0,10.0,0.0,0.0,0.0,10.0,0.0,0.0,0.0,10.0,-0.0218379209386,0.0207726565026,0.035153726389,1.0,0.0,0.0,0.0,1.0,0.0,0.0,0.0,1.0,0.147293701172,0.312550048828,10.0447119141,0.1,0.0,0.0,0.0,0.1,0.0,0.0,0.0,0.1
1446038403635525010,321,1446038403632354974,robocape,3.63230817318,4.86723661001,36.5142984541,0.0,10.0,0.0,0.0,0.0,10.0,0.0,0.0,0.0,10.0,0.00452737385313,0.0229031853747,0.0134489635049,1.0,0.0,0.0,0.0,1.0,0.0,0.0,0.0,1.0,0.186811523438,-0.0550854492188,10.0303417969,0.1,0.0,0.0,0.0,0.1,0.0,0.0,0.0,0.1
1446038403675858551,322,1446038403666125059,robocape,3.63093693424,4.8969028919,36.4539002806,0.0,10.0,0.0,0.0,0.0,10.0,0.0,0.0,0.0,10.0,0.00519316412565,0.0231695014837,0.0271642431188,1.0,0.0,0.0,0.0,1.0,0.0,0.0,0.0,1.0,0.197589111328,0.0634680175781,10.019564209,0.1,0.0,0.0,0.0,0.1,0.0,0.0,0.0,0.1
1446038403703647760,323,1446038403700593948,robocape,3.6292439255,4.92810977486,36.3957834534,0.0,10.0,0.0,0.0,0.0,10.0,0.0,0.0,0.0,10.0,0.00492684801665,0.0241016078652,0.0282295075548,1.0,0.0,0.0,0.0,1.0,0.0,0.0,0.0,1.0,0.225131835938,-0.289797363281,9.96807128906,0.1,0.0,0.0,0.0,0.1,0.0,0.0,0.0,0.1
1446038403735388510,324,1446038403732361078,robocape,3.71814477604,4.96118144913,36.3104858136,0.0,10.0,0.0,0.0,0.0,10.0,0.0,0.0,0.0,10.0,0.0536626959651,0.0239684498107,0.0125168571234,1.0,0.0,0.0,0.0,1.0,0.0,0.0,0.0,1.0,0.182021484375,0.0874182128906,10.0255517578,0.1,0.0,0.0,0.0,0.1,0.0,0.0,0.0,0.1
1446038403768296427,325,1446038403765304088,robocape,3.78874525754,4.99659198583,36.2123225722,0.0,10.0,0.0,0.0,0.0,10.0,0.0,0.0,0.0,10.0,0.0447411063133,0.0246342400832,0.00466053190764,1.0,0.0,0.0,0.0,1.0,0.0,0.0,0.0,1.0,0.119750976563,0.240699462891,10.0123791504,0.1,0.0,0.0,0.0,0.1,0.0,0.0,0.0,0.1
1446038403801103427,326,1446038403798055887,robocape,3.81603740498,5.02971914101,36.117397232,0.0,10.0,0.0,0.0,0.0,10.0,0.0,0.0,0.0,10.0,0.0219710789932,0.0235689756472,0.00612527050718,1.0,0.0,0.0,0.0,1.0,0.0,0.0,0.0,1.0,0.21076171875,0.264649658203,10.0267492676,0.1,0.0,0.0,0.0,0.1,0.0,0.0,0.0,0.1
1446038403836239635,327,1446038403833103895,robocape,3.75646162909,5.05653501235,36.0554816952,0.0,10.0,0.0,0.0,0.0,10.0,0.0,0.0,0.0,10.0,-0.0250337142467,0.0217047628841,0.0247673981377,1.0,0.0,0.0,0.0,1.0,0.0,0.0,0.0,1.0,0.215551757813,0.384400634766,10.024354248,0.1,0.0,0.0,0.0,0.1,0.0,0.0,0.0,0.1
1446038403868063760,328,1446038403865077972,robocape,3.65359141351,5.07864735552,36.0165169748,0.0,10.0,0.0,0.0,0.0,10.0,0.0,0.0,0.0,10.0,-0.048869006003,0.0202400242846,0.0378168874791,1.0,0.0,0.0,0.0,1.0,0.0,0.0,0.0,1.0,0.164058837891,-0.158071289063,10.0075891113,0.1,0.0,0.0,0.0,0.1,0.0,0.0,0.0,0.1
1446038403902721552,329,1446038403899691104,robocape,3.56580187998,5.10319289179,35.9722311658,0.0,10.0,0.0,0.0,0.0,10.0,0.0,0.0,0.0,10.0,-0.0408795227327,0.0213052887206,0.034621094171,1.0,0.0,0.0,0.0,1.0,0.0,0.0,0.0,1.0,0.207169189453,-0.326920166016,10.0363293457,0.1,0.0,0.0,0.0,0.1,0.0,0.0,0.0,0.1
1446038403934351802,330,1446038403929620981,robocape,3.57839660061,5.13031946031,35.894565302,0.0,10.0,0.0,0.0,0.0,10.0,0.0,0.0,0.0,10.0,0.0131826473959,0.0213052887206,0.0154463343225,1.0,0.0,0.0,0.0,1.0,0.0,0.0,0.0,1.0,0.261057128906,-0.247884521484,10.0590820312,0.1,0.0,0.0,0.0,0.1,0.0,0.0,0.0,0.1
1446038403967755093,331,1446038403964517116,robocape,3.62674822182,5.15949705294,35.8477763233,0.0,10.0,0.0,0.0,0.0,10.0,0.0,0.0,0.0,10.0,0.0306263525359,0.0237021337017,0.033023197517,1.0,0.0,0.0,0.0,1.0,0.0,0.0,0.0,1.0,0.193996582031,0.0383203125,10.0506994629,0.1,0.0,0.0,0.0,0.1,0.0,0.0,0.0,0.1
1446038404001275218,332,1446038403997031927,robocape,3.72294070777,5.19253927689,35.7929186888,0.0,10.0,0.0,0.0,0.0,10.0,0.0,0.0,0.0,10.0,0.0561926990007,0.0254331884103,0.0282295075548,1.0,0.0,0.0,0.0,1.0,0.0,0.0,0.0,1.0,0.250279541016,-0.361647949219,9.98363891602,0.1,0.0,0.0,0.0,0.1,0.0,0.0,0.0,0.1
1446038404035943885,333,1446038404032432079,robocape,3.81783089983,5.22146860729,35.7439850117,0.0,10.0,0.0,0.0,0.0,10.0,0.0,0.0,0.0,10.0,0.0553937506736,0.0235689756472,0.0315584589174,1.0,0.0,0.0,0.0,1.0,0.0,0.0,0.0,1.0,0.144898681641,-0.0802331542969,10.003996582,0.1,0.0,0.0,0.0,0.1,0.0,0.0,0.0,0.1
1446038404067391302,334,1446038404063137054,robocape,3.91487295451,5.2532206978,35.6700463255,0.0,10.0,0.0,0.0,0.0,10.0,0.0,0.0,0.0,10.0,0.0577905956547,0.0239684498107,0.016911072922,1.0,0.0,0.0,0.0,1.0,0.0,0.0,0.0,1.0,0.220341796875,0.0898132324219,10.0063916016,0.1,0.0,0.0,0.0,0.1,0.0,0.0,0.0,0.1
1446038404104101927,335,1446038404100444078,robocape,4.01233413526,5.28323177035,35.5955304111,0.0,10.0,0.0,0.0,0.0,10.0,0.0,0.0,0.0,10.0,0.0581900698182,0.0230363434292,0.016378440704,1.0,0.0,0.0,0.0,1.0,0.0,0.0,0.0,1.0,0.195194091797,0.281414794922,10.0447119141,0.1,0.0,0.0,0.0,0.1,0.0,0.0,0.0,0.1
1446038404133484552,336,1446038404130194902,robocape,4.04122882068,5.3115505007,35.5347206196,0.0,10.0,0.0,0.0,0.0,10.0,0.0,0.0,0.0,10.0,0.0217047628841,0.0227700273202,0.0238352917562,1.0,0.0,0.0,0.0,1.0,0.0,0.0,0.0,1.0,0.171243896484,-0.0730480957031,10.0303417969,0.1,0.0,0.0,0.0,0.1,0.0,0.0,0.0,0.1
1446038404169294510,337,1446038404166143894,robocape,4.10578640794,5.34081818706,35.4711089308,0.0,10.0,0.0,0.0,0.0,10.0,0.0,0.0,0.0,10.0,0.0406132066237,0.0231695014837,0.0221042370477,1.0,0.0,0.0,0.0,1.0,0.0,0.0,0.0,1.0,0.190404052734,0.0047900390625,10.0303417969,0.1,0.0,0.0,0.0,0.1,0.0,0.0,0.0,0.1
1446038404203518593,338,1446038404200253963,robocape,4.13660435022,5.36598001945,35.4444655528,0.0,10.0,0.0,0.0,0.0,10.0,0.0,0.0,0.0,10.0,0.0213052887206,0.0227700273202,0.0431432096593,1.0,0.0,0.0,0.0,1.0,0.0,0.0,0.0,1.0,0.197589111328,0.147293701172,10.0111816406,0.1,0.0,0.0,0.0,0.1,0.0,0.0,0.0,0.1
1446038404236224677,339,1446038404232177972,robocape,4.24160723478,5.3988781373,35.3537645495,0.0,10.0,0.0,0.0,0.0,10.0,0.0,0.0,0.0,10.0,0.0632500758894,0.0238352917562,0.00625842856169,1.0,0.0,0.0,0.0,1.0,0.0,0.0,0.0,1.0,0.174836425781,0.116158447266,10.0483044434,0.1,0.0,0.0,0.0,0.1,0.0,0.0,0.0,0.1
1446038404268112510,340,1446038404264837980,robocape,4.34955275854,5.4296686449,35.2859521881,0.0,10.0,0.0,0.0,0.0,10.0,0.0,0.0,0.0,10.0,0.0639158661619,0.0238352917562,0.0191747598486,1.0,0.0,0.0,0.0,1.0,0.0,0.0,0.0,1.0,0.1916015625,0.119750976563,10.0506994629,0.1,0.0,0.0,0.0,0.1,0.0,0.0,0.0,0.1
1446038404305316177,341,1446038404302083969,robocape,4.46694318026,5.45709877426,35.2370784524,0.0,10.0,0.0,0.0,0.0,10.0,0.0,0.0,0.0,10.0,0.068176923906,0.0230363434292,0.0299605622634,1.0,0.0,0.0,0.0,1.0,0.0,0.0,0.0,1.0,0.176033935547,0.220341796875,10.0159716797,0.1,0.0,0.0,0.0,0.1,0.0,0.0,0.0,0.1
1446038404334567052,342,1446038404331434965,robocape,4.67147174031,5.49296118757,35.139660183,0.0,10.0,0.0,0.0,0.0,10.0,0.0,0.0,0.0,10.0,0.116380139636,0.0250337142467,0.00199737081756,1.0,0.0,0.0,0.0,1.0,0.0,0.0,0.0,1.0,0.171243896484,0.0886157226563,10.0183666992,0.1,0.0,0.0,0.0,0.1,0.0,0.0,0.0,0.1
1446038404370726677,343,1446038404367552042,robocape,4.91658789819,5.52875547115,35.0585067263,0.0,10.0,0.0,0.0,0.0,10.0,0.0,0.0,0.0,10.0,0.137285954194,0.0258326625738,0.0111852765783,1.0,0.0,0.0,0.0,1.0,0.0,0.0,0.0,1.0,0.185614013672,-0.281414794922,10.0267492676,0.1,0.0,0.0,0.0,0.1,0.0,0.0,0.0,0.1
1446038404399957177,344,1446038404396884918,robocape,5.17200344948,5.55660485906,35.0399341184,0.0,10.0,0.0,0.0,0.0,10.0,0.0,0.0,0.0,10.0,0.140215431393,0.0251668723012,0.0471379512944,1.0,0.0,0.0,0.0,1.0,0.0,0.0,0.0,1.0,0.190404052734,0.235909423828,10.0099841309,0.1,0.0,0.0,0.0,0.1,0.0,0.0,0.0,0.1
1446038404435779260,345,1446038404432354927,robocape,5.56039979333,5.59544412285,34.9489347274,0.0,10.0,0.0,0.0,0.0,10.0,0.0,0.0,0.0,10.0,0.213851835533,0.0268979270098,0.00585895439817,1.0,0.0,0.0,0.0,1.0,0.0,0.0,0.0,1.0,0.130528564453,0.219144287109,10.0674645996,0.1,0.0,0.0,0.0,0.1,0.0,0.0,0.0,0.1
1446038404467835135,346,1446038404464823961,robocape,5.8007163667,5.62650245778,34.9281710845,0.0,10.0,0.0,0.0,0.0,10.0,0.0,0.0,0.0,10.0,0.133424370613,0.0270310850643,0.0454068965859,1.0,0.0,0.0,0.0,1.0,0.0,0.0,0.0,1.0,0.0562829589844,0.647852783203,9.99920654297,0.1,0.0,0.0,0.0,0.1,0.0,0.0,0.0,0.1
1446038404503230344,347,1446038404499911069,robocape,5.95946333929,5.65466542636,34.8804927237,0.0,10.0,0.0,0.0,0.0,10.0,0.0,0.0,0.0,10.0,0.0921453737167,0.0238352917562,0.0296942461544,1.0,0.0,0.0,0.0,1.0,0.0,0.0,0.0,1.0,0.416733398438,0.700543212891,9.93094848633,0.1,0.0,0.0,0.0,0.1,0.0,0.0,0.0,0.1
1446038404535313844,348,1446038404531965017,robocape,6.03105169791,5.68068143873,34.8405318307,0.0,10.0,0.0,0.0,0.0,10.0,0.0,0.0,0.0,10.0,0.0462058449129,0.0231695014837,0.033555829735,1.0,0.0,0.0,0.0,1.0,0.0,0.0,0.0,1.0,0.161663818359,1.17236206055,10.0183666992,0.1,0.0,0.0,0.0,0.1,0.0,0.0,0.0,0.1
1446038404570635719,349,1446038404567389011,robocape,5.94334625668,5.70716623346,34.7968954401,0.0,10.0,0.0,0.0,0.0,10.0,0.0,0.0,0.0,10.0,-0.0372842552611,0.0230363434292,0.0303600364269,1.0,0.0,0.0,0.0,1.0,0.0,0.0,0.0,1.0,0.189206542969,0.616717529297,10.0950073242,0.1,0.0,0.0,0.0,0.1,0.0,0.0,0.0,0.1
1446038404601144719,350,1446038404597809076,robocape,5.75027731849,5.7215398446,34.8184215533,0.0,10.0,0.0,0.0,0.0,10.0,0.0,0.0,0.0,10.0,-0.0958737992429,0.0207726565026,0.067377975579,1.0,0.0,0.0,0.0,1.0,0.0,0.0,0.0,1.0,0.263452148438,0.596359863281,9.98124389648,0.1,0.0,0.0,0.0,0.1,0.0,0.0,0.0,0.1
1446038404635598635,351,1446038404630743026,robocape,5.58014120451,5.73855656402,34.7867257042,0.0,10.0,0.0,0.0,0.0,10.0,0.0,0.0,0.0,10.0,-0.0816258874109,0.0187752856851,0.0371510972066,1.0,0.0,0.0,0.0,1.0,0.0,0.0,0.0,1.0,0.182021484375,0.483793945313,10.0423168945,0.1,0.0,0.0,0.0,0.1,0.0,0.0,0.0,0.1
1446038404674404469,352,1446038404670706033,robocape,5.41149584831,5.76034214207,34.74918959,0.0,10.0,0.0,0.0,0.0,10.0,0.0,0.0,0.0,10.0,-0.0808269390839,0.0209058145571,0.033555829735,1.0,0.0,0.0,0.0,1.0,0.0,0.0,0.0,1.0,0.137713623047,0.470621337891,10.0279467773,0.1,0.0,0.0,0.0,0.1,0.0,0.0,0.0,0.1
1446038404704417885,353,1446038404700521945,robocape,5.36195231093,5.7836394403,34.7010371249,0.0,10.0,0.0,0.0,0.0,10.0,0.0,0.0,0.0,10.0,-0.017976337358,0.0211721306661,0.0279631914458,1.0,0.0,0.0,0.0,1.0,0.0,0.0,0.0,1.0,0.239501953125,-0.199984130859,10.0123791504,0.1,0.0,0.0,0.0,0.1,0.0,0.0,0.0,0.1
1446038404737543510,354,1446038404734407901,robocape,5.47097395229,5.81277407707,34.6260736592,0.0,10.0,0.0,0.0,0.0,10.0,0.0,0.0,0.0,10.0,0.066579027252,0.0227700273202,0.0130494893414,1.0,0.0,0.0,0.0,1.0,0.0,0.0,0.0,1.0,0.123343505859,0.0,10.0219592285,0.1,0.0,0.0,0.0,0.1,0.0,0.0,0.0,0.1
1446038404768842552,355,1446038404765856027,robocape,5.64190648647,5.84324616863,34.5585544077,0.0,10.0,0.0,0.0,0.0,10.0,0.0,0.0,0.0,10.0,0.0989364344964,0.0239684498107,0.0173105470855,1.0,0.0,0.0,0.0,1.0,0.0,0.0,0.0,1.0,0.199984130859,0.143701171875,10.0327368164,0.1,0.0,0.0,0.0,0.1,0.0,0.0,0.0,0.1
1446038404800727677,356,1446038404796088933,robocape,5.77639150497,5.86785810709,34.5106423986,0.0,10.0,0.0,0.0,0.0,10.0,0.0,0.0,0.0,10.0,0.0790958843754,0.0221042370477,0.0283626656093,1.0,0.0,0.0,0.0,1.0,0.0,0.0,0.0,1.0,0.0790356445313,0.523311767578,9.97405883789,0.1,0.0,0.0,0.0,0.1,0.0,0.0,0.0,0.1
1446038404835118344,357,1446038404831866979,robocape,5.87119376808,5.89235575677,34.4596089106,0.0,10.0,0.0,0.0,0.0,10.0,0.0,0.0,0.0,10.0,0.0585895439817,0.0218379209386,0.0262321367373,1.0,0.0,0.0,0.0,1.0,0.0,0.0,0.0,1.0,0.147293701172,0.559237060547,9.98244140625,0.1,0.0,0.0,0.0,0.1,0.0,0.0,0.0,0.1
1446038404870213344,358,1446038404867163896,robocape,5.98579253795,5.9200936816,34.389982385,0.0,10.0,0.0,0.0,0.0,10.0,0.0,0.0,0.0,10.0,0.0700411366691,0.0223705531567,0.0154463343225,1.0,0.0,0.0,0.0,1.0,0.0,0.0,0.0,1.0,0.252674560547,0.368833007813,10.0447119141,0.1,0.0,0.0,0.0,0.1,0.0,0.0,0.0,0.1
1446038404903001844,359,1446038404899463891,robocape,6.06654386701,5.94459863462,34.3303881439,0.0,10.0,0.0,0.0,0.0,10.0,0.0,0.0,0.0,10.0,0.0519316412565,0.0213052887206,0.0209058145571,1.0,0.0,0.0,0.0,1.0,0.0,0.0,0.0,1.0,0.137713623047,0.652642822266,10.0075891113,0.1,0.0,0.0,0.0,0.1,0.0,0.0,0.0,0.1
1446038404933908302,360,1446038404930437088,robocape,6.08888126233,5.96713116817,34.2851332334,0.0,10.0,0.0,0.0,0.0,10.0,0.0,0.0,0.0,10.0,0.0206394984481,0.0211721306661,0.0286289817184,1.0,0.0,0.0,0.0,1.0,0.0,0.0,0.0,1.0,0.182021484375,0.6514453125,10.0159716797,0.1,0.0,0.0,0.0,0.1,0.0,0.0,0.0,0.1
1446038404969402010,361,1446038404966017961,robocape,6.03209555914,5.9869654006,34.2582862715,0.0,10.0,0.0,0.0,0.0,10.0,0.0,0.0,0.0,10.0,-0.0218379209386,0.0209058145571,0.0386158358061,1.0,0.0,0.0,0.0,1.0,0.0,0.0,0.0,1.0,0.166453857422,0.750838623047,10.0363293457,0.1,0.0,0.0,0.0,0.1,0.0,0.0,0.0,0.1
1446038405000570010,362,1446038404997580051,robocape,5.98658288506,6.00869983708,34.2119431139,0.0,10.0,0.0,0.0,0.0,10.0,0.0,0.0,0.0,10.0,-0.0150468601589,0.0206394984481,0.0274305592278,1.0,0.0,0.0,0.0,1.0,0.0,0.0,0.0,1.0,0.178428955078,0.44068359375,10.0530944824,0.1,0.0,0.0,0.0,0.1,0.0,0.0,0.0,0.1
1446038405035903802,363,1446038405031604051,robocape,5.93118584948,6.0264266056,34.1855285512,0.0,10.0,0.0,0.0,0.0,10.0,0.0,0.0,0.0,10.0,-0.0213052887206,0.0198405501211,0.0387489938607,1.0,0.0,0.0,0.0,1.0,0.0,0.0,0.0,1.0,0.159268798828,0.336500244141,10.0459094238,0.1,0.0,0.0,0.0,0.1,0.0,0.0,0.0,0.1
1446038405067668344,364,1446038405064538002,robocape,5.91793746019,6.04949495887,34.1316291432,0.0,10.0,0.0,0.0,0.0,10.0,0.0,0.0,0.0,10.0,0.00213052887206,0.0209058145571,0.0230363434292,1.0,0.0,0.0,0.0,1.0,0.0,0.0,0.0,1.0,0.164058837891,0.373623046875,10.039921875,0.1,0.0,0.0,0.0,0.1,0.0,0.0,0.0,0.1
1446038405103996760,365,1446038405099369049,robocape,5.92866563309,6.07769139847,34.0604045525,0.0,10.0,0.0,0.0,0.0,10.0,0.0,0.0,0.0,10.0,0.015579492377,0.0225037112112,0.0129163312869,1.0,0.0,0.0,0.0,1.0,0.0,0.0,0.0,1.0,0.116158447266,0.318537597656,10.0530944824,0.1,0.0,0.0,0.0,0.1,0.0,0.0,0.0,0.1
1446038405135671344,366,1446038405131887912,robocape,5.95117453906,6.1003119017,34.0173675312,0.0,10.0,0.0,0.0,0.0,10.0,0.0,0.0,0.0,10.0,0.0203731823391,0.0214384467751,0.0290284558819,1.0,0.0,0.0,0.0,1.0,0.0,0.0,0.0,1.0,0.149688720703,0.316142578125,9.99561401367,0.1,0.0,0.0,0.0,0.1,0.0,0.0,0.0,0.1
1446038405171971344,367,1446038405167577028,robocape,6.00723420944,6.12455967846,33.952320324,0.0,10.0,0.0,0.0,0.0,10.0,0.0,0.0,0.0,10.0,0.0391484680242,0.0209058145571,0.0165115987585,1.0,0.0,0.0,0.0,1.0,0.0,0.0,0.0,1.0,0.148491210938,0.447868652344,10.0183666992,0.1,0.0,0.0,0.0,0.1,0.0,0.0,0.0,0.1
1446038405203912511,368,1446038405200844049,robocape,6.0837184302,6.14757870782,33.8906052458,0.0,10.0,0.0,0.0,0.0,10.0,0.0,0.0,0.0,10.0,0.0498011123845,0.0205063403936,0.0183758115215,1.0,0.0,0.0,0.0,1.0,0.0,0.0,0.0,1.0,0.1916015625,0.405955810547,10.0674645996,0.1,0.0,0.0,0.0,0.1,0.0,0.0,0.0,0.1
1446038405237054094,369,1446038405233319044,robocape,6.17957053251,6.17120066725,33.8297836312,0.0,10.0,0.0,0.0,0.0,10.0,0.0,0.0,0.0,10.0,0.0600542825813,0.0209058145571,0.0187752856851,1.0,0.0,0.0,0.0,1.0,0.0,0.0,0.0,1.0,0.202379150391,0.586779785156,10.0219592285,0.1,0.0,0.0,0.0,0.1,0.0,0.0,0.0,0.1
1446038405268920011,370,1446038405265774011,robocape,6.24649280917,6.19415997329,33.7843293187,0.0,10.0,0.0,0.0,0.0,10.0,0.0,0.0,0.0,10.0,0.0442084740953,0.0215716048296,0.0271642431188,1.0,0.0,0.0,0.0,1.0,0.0,0.0,0.0,1.0,0.164058837891,0.5748046875,9.99920654297,0.1,0.0,0.0,0.0,0.1,0.0,0.0,0.0,0.1
1446038405300797552,371,1446038405297755002,robocape,6.29234729472,6.21916736502,33.7193023269,0.0,10.0,0.0,0.0,0.0,10.0,0.0,0.0,0.0,10.0,0.0342216200075,0.0213052887206,0.0157126504315,1.0,0.0,0.0,0.0,1.0,0.0,0.0,0.0,1.0,0.158071289063,0.63228515625,9.99441650391,0.1,0.0,0.0,0.0,0.1,0.0,0.0,0.0,0.1
1446038405336770469,372,1446038405331253051,robocape,6.32767075579,6.24139551471,33.6775410632,0.0,10.0,0.0,0.0,0.0,10.0,0.0,0.0,0.0,10.0,0.0275637172823,0.0214384467751,0.0287621397729,1.0,0.0,0.0,0.0,1.0,0.0,0.0,0.0,1.0,0.185614013672,0.705333251953,9.99920654297,0.1,0.0,0.0,0.0,0.1,0.0,0.0,0.0,0.1
1446038405367057802,373,1446038405363950967,robocape,6.28512185646,6.26485245992,33.6275319553,0.0,10.0,0.0,0.0,0.0,10.0,0.0,0.0,0.0,10.0,-0.0129163312869,0.0214384467751,0.0234358175927,1.0,0.0,0.0,0.0,1.0,0.0,0.0,0.0,1.0,0.170046386719,0.604742431641,10.0638720703,0.1,0.0,0.0,0.0,0.1,0.0,0.0,0.0,0.1
1446038405404814011,374,1446038405400993108,robocape,6.22767537315,6.28633694085,33.5947112836,0.0,10.0,0.0,0.0,0.0,10.0,0.0,0.0,0.0,10.0,-0.0217047628841,0.0215716048296,0.033023197517,1.0,0.0,0.0,0.0,1.0,0.0,0.0,0.0,1.0,0.160466308594,0.220341796875,10.060279541,0.1,0.0,0.0,0.0,0.1,0.0,0.0,0.0,0.1
1446038405434493802,375,1446038405431273937,robocape,6.20669495251,6.30953185007,33.5498270674,0.0,10.0,0.0,0.0,0.0,10.0,0.0,0.0,0.0,10.0,-0.00199737081756,0.0217047628841,0.0262321367373,1.0,0.0,0.0,0.0,1.0,0.0,0.0,0.0,1.0,0.152083740234,0.334105224609,10.0087866211,0.1,0.0,0.0,0.0,0.1,0.0,0.0,0.0,0.1
1446038405468132927,376,1446038405464993000,robocape,6.21855163687,6.33140236004,33.5084960733,0.0,10.0,0.0,0.0,0.0,10.0,0.0,0.0,0.0,10.0,0.0150468601589,0.0213052887206,0.0283626656093,1.0,0.0,0.0,0.0,1.0,0.0,0.0,0.0,1.0,0.154478759766,0.32572265625,9.98244140625,0.1,0.0,0.0,0.0,0.1,0.0,0.0,0.0,0.1
1446038405501959344,377,1446038405498152017,robocape,6.26389753983,6.35259904208,33.4578000909,0.0,10.0,0.0,0.0,0.0,10.0,0.0,0.0,0.0,10.0,0.0331563555715,0.0203731823391,0.0231695014837,1.0,0.0,0.0,0.0,1.0,0.0,0.0,0.0,1.0,0.136516113281,0.319735107422,10.0267492676,0.1,0.0,0.0,0.0,0.1,0.0,0.0,0.0,0.1
1446038405535682011,378,1446038405532728910,robocape,6.34424124632,6.3767338699,33.3936141353,0.0,10.0,0.0,0.0,0.0,10.0,0.0,0.0,0.0,10.0,0.0523311154201,0.0210389726116,0.0154463343225,1.0,0.0,0.0,0.0,1.0,0.0,0.0,0.0,1.0,0.185614013672,0.507744140625,10.0662670898,0.1,0.0,0.0,0.0,0.1,0.0,0.0,0.0,0.1
1446038405568095094,379,1446038405565023899,robocape,6.40984010674,6.40177483088,33.3285862744,0.0,10.0,0.0,0.0,0.0,10.0,0.0,0.0,0.0,10.0,0.0447411063133,0.0214384467751,0.0146473859954,1.0,0.0,0.0,0.0,1.0,0.0,0.0,0.0,1.0,0.188009033203,0.546064453125,10.0111816406,0.1,0.0,0.0,0.0,0.1,0.0,0.0,0.0,0.1
1446038405601982677,380,1446038405598715066,robocape,6.40505992641,6.42411302361,33.2908180381,0.0,10.0,0.0,0.0,0.0,10.0,0.0,0.0,0.0,10.0,0.00639158661619,0.0218379209386,0.0295610880999,1.0,0.0,0.0,0.0,1.0,0.0,0.0,0.0,1.0,0.219144287109,0.756826171875,10.0063916016,0.1,0.0,0.0,0.0,0.1,0.0,0.0,0.0,0.1
1446038405634005011,381,1446038405630578041,robocape,6.36824755817,6.44527313045,33.2565498055,0.0,10.0,0.0,0.0,0.0,10.0,0.0,0.0,0.0,10.0,-0.0106526443603,0.0214384467751,0.0312921428084,1.0,0.0,0.0,0.0,1.0,0.0,0.0,0.0,1.0,0.202379150391,0.465831298828,10.0171691895,0.1,0.0,0.0,0.0,0.1,0.0,0.0,0.0,0.1
1446038405667303094,382,1446038405664202928,robocape,6.34360314099,6.47007316703,33.1962345064,0.0,10.0,0.0,0.0,0.0,10.0,0.0,0.0,0.0,10.0,-0.00292947719909,0.0215716048296,0.016378440704,1.0,0.0,0.0,0.0,1.0,0.0,0.0,0.0,1.0,0.198786621094,0.633482666016,10.0219592285,0.1,0.0,0.0,0.0,0.1,0.0,0.0,0.0,0.1
1446038405701225761,383,1446038405698153018,robocape,6.32514410471,6.49740323579,33.1338040709,0.0,10.0,0.0,0.0,0.0,10.0,0.0,0.0,0.0,10.0,0.000399474163512,0.0227700273202,0.0149137021044,1.0,0.0,0.0,0.0,1.0,0.0,0.0,0.0,1.0,0.186811523438,0.512534179688,10.0734521484,0.1,0.0,0.0,0.0,0.1,0.0,0.0,0.0,0.1
1446038405738361302,384,1446038405734755039,robocape,6.30747870781,6.51918726412,33.0785034513,0.0,10.0,0.0,0.0,0.0,10.0,0.0,0.0,0.0,10.0,0.000399474163512,0.0203731823391,0.0190416017941,1.0,0.0,0.0,0.0,1.0,0.0,0.0,0.0,1.0,0.159268798828,0.550854492188,10.0351318359,0.1,0.0,0.0,0.0,0.1,0.0,0.0,0.0,0.1
1446038405767907344,385,1446038405764722108,robocape,6.30611527852,6.54098284303,33.0285241223,0.0,10.0,0.0,0.0,0.0,10.0,0.0,0.0,0.0,10.0,0.00865527354276,0.0207726565026,0.0219710789932,1.0,0.0,0.0,0.0,1.0,0.0,0.0,0.0,1.0,0.176033935547,0.397573242188,10.0495019531,0.1,0.0,0.0,0.0,0.1,0.0,0.0,0.0,0.1
1446038405805817844,386,1446038405801808118,robocape,6.32619055036,6.56170460603,32.9997584504,0.0,10.0,0.0,0.0,0.0,10.0,0.0,0.0,0.0,10.0,0.0187752856851,0.0217047628841,0.0339553038985,1.0,0.0,0.0,0.0,1.0,0.0,0.0,0.0,1.0,0.184416503906,0.167651367188,10.0471069336,0.1,0.0,0.0,0.0,0.1,0.0,0.0,0.0,0.1
1446038405835572636,387,1446038405831774950,robocape,6.4048886629,6.58310836983,32.9431899377,0.0,10.0,0.0,0.0,0.0,10.0,0.0,0.0,0.0,10.0,0.0511326929295,0.0202400242846,0.0185089695761,1.0,0.0,0.0,0.0,1.0,0.0,0.0,0.0,1.0,0.185614013672,0.353265380859,9.99202148437,0.1,0.0,0.0,0.0,0.1,0.0,0.0,0.0,0.1
1446038405867845761,388,1446038405864207029,robocape,6.47697067175,6.60413192925,32.8933288787,0.0,10.0,0.0,0.0,0.0,10.0,0.0,0.0,0.0,10.0,0.0474042674034,0.0205063403936,0.0221042370477,1.0,0.0,0.0,0.0,1.0,0.0,0.0,0.0,1.0,0.304167480469,0.531694335938,10.0075891113,0.1,0.0,0.0,0.0,0.1,0.0,0.0,0.0,0.1
1446038405903214594,389,1446038405899230957,robocape,6.55964247829,6.62843278304,32.8131615554,0.0,10.0,0.0,0.0,0.0,10.0,0.0,0.0,0.0,10.0,0.0547279604011,0.0201068662301,0.00479368996214,1.0,0.0,0.0,0.0,1.0,0.0,0.0,0.0,1.0,0.239501953125,0.699345703125,10.0016015625,0.1,0.0,0.0,0.0,0.1,0.0,0.0,0.0,0.1
1446038405935795469,390,1446038405932599067,robocape,6.5761512868,6.73003383603,32.7386546049,0.0,10.0,0.0,0.0,0.0,10.0,0.0,0.0,0.0,10.0,0.0198405501211,0.0608532309083,0.0031957933081,1.0,0.0,0.0,0.0,1.0,0.0,0.0,0.0,1.0,-2.72193969727,0.985550537109,10.3297192383,0.1,0.0,0.0,0.0,0.1,0.0,0.0,0.0,0.1
1446038405967178594,391,1446038405963617086,robocape,6.56786783481,6.73175778694,32.9031237313,0.0,10.0,0.0,0.0,0.0,10.0,0.0,0.0,0.0,10.0,-0.00652474467069,0.0256995045193,0.142612276374,1.0,0.0,0.0,0.0,1.0,0.0,0.0,0.0,1.0,-2.68361938477,0.494571533203,10.6231091309,0.1,0.0,0.0,0.0,0.1,0.0,0.0,0.0,0.1
