%time,field.header.seq,field.header.stamp,field.header.frame_id,field.orientation.x,field.orientation.y,field.orientation.z,field.orientation.w,field.orientation_covariance0,field.orientation_covariance1,field.orientation_covariance2,field.orientation_covariance3,field.orientation_covariance4,field.orientation_covariance5,field.orientation_covariance6,field.orientation_covariance7,field.orientation_covariance8,field.angular_velocity.x,field.angular_velocity.y,field.angular_velocity.z,field.angular_velocity_covariance0,field.angular_velocity_covariance1,field.angular_velocity_covariance2,field.angular_velocity_covariance3,field.angular_velocity_covariance4,field.angular_velocity_covariance5,field.angular_velocity_covariance6,field.angular_velocity_covariance7,field.angular_velocity_covariance8,field.linear_acceleration.x,field.linear_acceleration.y,field.linear_acceleration.z,field.linear_acceleration_covariance0,field.linear_acceleration_covariance1,field.linear_acceleration_covariance2,field.linear_acceleration_covariance3,field.linear_acceleration_covariance4,field.linear_acceleration_covariance5,field.linear_acceleration_covariance6,field.linear_acceleration_covariance7,field.linear_acceleration_covariance8
1446035729675144256,1,1446035729626513957,robocape,35.4426815569,16.7913582325,77.8584818439,0.0,10.0,0.0,0.0,0.0,10.0,0.0,0.0,0.0,10.0,0.00732369299772,0.0130494893414,0.00852211548825,1.0,0.0,0.0,0.0,1.0,0.0,0.0,0.0,1.0,-0.00838256835938,-0.100590820313,10.0327368164,0.1,0.0,0.0,0.0,0.1,0.0,0.0,0.0,0.1
1446035729694402714,2,1446035729655832052,robocape,35.4575605531,16.7956033625,77.8761054731,0.0,10.0,0.0,0.0,0.0,10.0,0.0,0.0,0.0,10.0,0.00759000910673,0.0130494893414,0.00838895743375,1.0,0.0,0.0,0.0,1.0,0.0,0.0,0.0,1.0,-0.0239501953125,-0.0981958007813,10.0614770508,0.1,0.0,0.0,0.0,0.1,0.0,0.0,0.0,0.1
1446035729695598631,3,1446035729679372072,robocape,35.47269453,16.8000845578,77.8940153606,0.0,10.0,0.0,0.0,0.0,10.0,0.0,0.0,0.0,10.0,0.00772316716123,0.0134489635049,0.00838895743375,1.0,0.0,0.0,0.0,1.0,0.0,0.0,0.0,1.0,-0.01916015625,-0.0826281738281,10.0578845215,0.1,0.0,0.0,0.0,0.1,0.0,0.0,0.0,0.1
1446035729730895089,4,1446035729707638025,robocape,35.4876188814,16.8042199767,77.9113223812,0.0,10.0,0.0,0.0,0.0,10.0,0.0,0.0,0.0,10.0,0.00772316716123,0.0127831732324,0.00825579937925,1.0,0.0,0.0,0.0,1.0,0.0,0.0,0.0,1.0,-0.0215551757813,-0.0946032714844,10.0351318359,0.1,0.0,0.0,0.0,0.1,0.0,0.0,0.0,0.1
1446035729744950839,5,1446035729742008924,robocape,35.5034422863,16.8083637028,77.9294465454,0.0,10.0,0.0,0.0,0.0,10.0,0.0,0.0,0.0,10.0,0.00825579937925,0.0131826473959,0.00878843159726,1.0,0.0,0.0,0.0,1.0,0.0,0.0,0.0,1.0,-0.0047900390625,-0.086220703125,10.0375268555,0.1,0.0,0.0,0.0,0.1,0.0,0.0,0.0,0.1
1446035729771728589,6,1446035729769903898,robocape,35.5190755991,16.8123783348,77.9470240567,0.0,10.0,0.0,0.0,0.0,10.0,0.0,0.0,0.0,10.0,0.00825579937925,0.0127831732324,0.00852211548825,1.0,0.0,0.0,0.0,1.0,0.0,0.0,0.0,1.0,-0.0143701171875,-0.101788330078,10.0411193848,0.1,0.0,0.0,0.0,0.1,0.0,0.0,0.0,0.1
1446035729804914672,7,1446035729803194999,robocape,35.5344658501,16.8165033476,77.9643388329,0.0,10.0,0.0,0.0,0.0,10.0,0.0,0.0,0.0,10.0,0.00812264132474,0.0127831732324,0.00825579937925,1.0,0.0,0.0,0.0,1.0,0.0,0.0,0.0,1.0,-0.0239501953125,-0.0969982910156,10.0518969727,0.1,0.0,0.0,0.0,0.1,0.0,0.0,0.0,0.1
1446035729844488172,8,1446035729841587066,robocape,35.5498660266,16.8206704405,77.9821108989,0.0,10.0,0.0,0.0,0.0,10.0,0.0,0.0,0.0,10.0,0.00798948327024,0.0130494893414,0.00852211548825,1.0,0.0,0.0,0.0,1.0,0.0,0.0,0.0,1.0,-0.0299377441406,-0.0910107421875,10.0411193848,0.1,0.0,0.0,0.0,0.1,0.0,0.0,0.0,0.1
1446035729871708839,9,1446035729869716882,robocape,35.5647175979,16.8252554394,77.9991847882,0.0,10.0,0.0,0.0,0.0,10.0,0.0,0.0,0.0,10.0,0.00772316716123,0.0131826473959,0.00772316716123,1.0,0.0,0.0,0.0,1.0,0.0,0.0,0.0,1.0,-0.0323327636719,-0.0826281738281,10.0435144043,0.1,0.0,0.0,0.0,0.1,0.0,0.0,0.0,0.1
1446035729904997964,10,1446035729903045892,robocape,35.5800171303,16.8296660476,78.0166592027,0.0,10.0,0.0,0.0,0.0,10.0,0.0,0.0,0.0,10.0,0.00798948327024,0.0131826473959,0.00812264132474,1.0,0.0,0.0,0.0,1.0,0.0,0.0,0.0,1.0,-0.01916015625,-0.0993933105469,10.0315393066,0.1,0.0,0.0,0.0,0.1,0.0,0.0,0.0,0.1
1446035729940367047,11,1446035729938261985,robocape,35.5949216528,16.8338795786,78.0343065801,0.0,10.0,0.0,0.0,0.0,10.0,0.0,0.0,0.0,10.0,0.00759000910673,0.0130494893414,0.00838895743375,1.0,0.0,0.0,0.0,1.0,0.0,0.0,0.0,1.0,-0.028740234375,-0.0934057617188,10.0530944824,0.1,0.0,0.0,0.0,0.1,0.0,0.0,0.0,0.1
1446035729972004797,12,1446035729970074892,robocape,35.6099539068,16.8378282846,78.0514443962,0.0,10.0,0.0,0.0,0.0,10.0,0.0,0.0,0.0,10.0,0.00785632521573,0.0125168571234,0.00825579937925,1.0,0.0,0.0,0.0,1.0,0.0,0.0,0.0,1.0,-0.0167651367188,-0.0981958007813,10.0782421875,0.1,0.0,0.0,0.0,0.1,0.0,0.0,0.0,0.1
1446035730005053047,13,1446035730003168106,robocape,35.6252693835,16.8422736165,78.0693817656,0.0,10.0,0.0,0.0,0.0,10.0,0.0,0.0,0.0,10.0,0.00785632521573,0.0134489635049,0.00838895743375,1.0,0.0,0.0,0.0,1.0,0.0,0.0,0.0,1.0,-0.0143701171875,-0.086220703125,10.0566870117,0.1,0.0,0.0,0.0,0.1,0.0,0.0,0.0,0.1
1446035730039300964,14,1446035730037580013,robocape,35.6406943134,16.8464647387,78.087624438,0.0,10.0,0.0,0.0,0.0,10.0,0.0,0.0,0.0,10.0,0.00785632521573,0.0133158054504,0.00878843159726,1.0,0.0,0.0,0.0,1.0,0.0,0.0,0.0,1.0,-0.009580078125,-0.105380859375,10.0351318359,0.1,0.0,0.0,0.0,0.1,0.0,0.0,0.0,0.1
1446035730071550714,15,1446035730069777965,robocape,35.6565074308,16.8506746879,78.1060972945,0.0,10.0,0.0,0.0,0.0,10.0,0.0,0.0,0.0,10.0,0.00812264132474,0.0134489635049,0.00892158965177,1.0,0.0,0.0,0.0,1.0,0.0,0.0,0.0,1.0,-0.01916015625,-0.106578369141,10.060279541,0.1,0.0,0.0,0.0,0.1,0.0,0.0,0.0,0.1
1446035730105011839,16,1446035730103118896,robocape,35.672023246,16.8550071509,78.1237204619,0.0,10.0,0.0,0.0,0.0,10.0,0.0,0.0,0.0,10.0,0.00812264132474,0.0131826473959,0.00825579937925,1.0,0.0,0.0,0.0,1.0,0.0,0.0,0.0,1.0,-0.01916015625,-0.108973388672,10.0435144043,0.1,0.0,0.0,0.0,0.1,0.0,0.0,0.0,0.1
1446035730138886964,17,1446035730137099981,robocape,35.6871750749,16.8589958644,78.1407383898,0.0,10.0,0.0,0.0,0.0,10.0,0.0,0.0,0.0,10.0,0.00798948327024,0.0125168571234,0.00812264132474,1.0,0.0,0.0,0.0,1.0,0.0,0.0,0.0,1.0,-0.0227526855469,-0.0969982910156,10.0842297363,0.1,0.0,0.0,0.0,0.1,0.0,0.0,0.0,0.1
1446035730173046672,18,1446035730171119928,robocape,35.7023525115,16.8634231056,78.1586896023,0.0,10.0,0.0,0.0,0.0,10.0,0.0,0.0,0.0,10.0,0.00772316716123,0.0134489635049,0.00838895743375,1.0,0.0,0.0,0.0,1.0,0.0,0.0,0.0,1.0,-0.00119750976563,-0.0946032714844,10.0698596191,0.1,0.0,0.0,0.0,0.1,0.0,0.0,0.0,0.1
1446035730204935506,19,1446035730203233003,robocape,35.7171810971,16.8679038483,78.1765111653,0.0,10.0,0.0,0.0,0.0,10.0,0.0,0.0,0.0,10.0,0.00745685105222,0.0134489635049,0.00825579937925,1.0,0.0,0.0,0.0,1.0,0.0,0.0,0.0,1.0,-0.0251477050781,-0.0922082519531,10.0387243652,0.1,0.0,0.0,0.0,0.1,0.0,0.0,0.0,0.1
1446035730238494881,20,1446035730236745119,robocape,35.7318470217,16.872517518,78.1942983123,0.0,10.0,0.0,0.0,0.0,10.0,0.0,0.0,0.0,10.0,0.00732369299772,0.0135821215594,0.00812264132474,1.0,0.0,0.0,0.0,1.0,0.0,0.0,0.0,1.0,-0.0167651367188,-0.076640625,10.0638720703,0.1,0.0,0.0,0.0,0.1,0.0,0.0,0.0,0.1
1446035730273656464,21,1446035730271682977,robocape,35.7473779076,16.8765247562,78.2123690868,0.0,10.0,0.0,0.0,0.0,10.0,0.0,0.0,0.0,10.0,0.00798948327024,0.0130494893414,0.00878843159726,1.0,0.0,0.0,0.0,1.0,0.0,0.0,0.0,1.0,-0.0263452148438,-0.0922082519531,10.0423168945,0.1,0.0,0.0,0.0,0.1,0.0,0.0,0.0,0.1
1446035730304888172,22,1446035730303108930,robocape,35.7628231009,16.8804618393,78.2297594974,0.0,10.0,0.0,0.0,0.0,10.0,0.0,0.0,0.0,10.0,0.00812264132474,0.0126500151779,0.00838895743375,1.0,0.0,0.0,0.0,1.0,0.0,0.0,0.0,1.0,-0.028740234375,-0.101788330078,10.0674645996,0.1,0.0,0.0,0.0,0.1,0.0,0.0,0.0,0.1
1446035730338370673,23,1446035730336618900,robocape,35.7782622244,16.8846589473,78.2462631302,0.0,10.0,0.0,0.0,0.0,10.0,0.0,0.0,0.0,10.0,0.00838895743375,0.0125168571234,0.00759000910673,1.0,0.0,0.0,0.0,1.0,0.0,0.0,0.0,1.0,-0.00718505859375,-0.0838256835938,10.0530944824,0.1,0.0,0.0,0.0,0.1,0.0,0.0,0.0,0.1
1446035730373784298,24,1446035730371643066,robocape,35.7946105381,16.8889061196,78.2640401035,0.0,10.0,0.0,0.0,0.0,10.0,0.0,0.0,0.0,10.0,0.00878843159726,0.0131826473959,0.00838895743375,1.0,0.0,0.0,0.0,1.0,0.0,0.0,0.0,1.0,-0.0107775878906,-0.0922082519531,10.0471069336,0.1,0.0,0.0,0.0,0.1,0.0,0.0,0.0,0.1
1446035730404882631,25,1446035730403101921,robocape,35.8103566402,16.8926612867,78.2818349857,0.0,10.0,0.0,0.0,0.0,10.0,0.0,0.0,0.0,10.0,0.00825579937925,0.0126500151779,0.00878843159726,1.0,0.0,0.0,0.0,1.0,0.0,0.0,0.0,1.0,-0.0047900390625,-0.0898132324219,10.0375268555,0.1,0.0,0.0,0.0,0.1,0.0,0.0,0.0,0.1
1446035730438481464,26,1446035730436634063,robocape,35.8254009643,16.8968351915,78.2989341612,0.0,10.0,0.0,0.0,0.0,10.0,0.0,0.0,0.0,10.0,0.00785632521573,0.0127831732324,0.00798948327024,1.0,0.0,0.0,0.0,1.0,0.0,0.0,0.0,1.0,-0.0143701171875,-0.118553466797,10.0471069336,0.1,0.0,0.0,0.0,0.1,0.0,0.0,0.0,0.1
1446035730475934548,27,1446035730474102973,robocape,35.8399812936,16.9012696185,78.3151469478,0.0,10.0,0.0,0.0,0.0,10.0,0.0,0.0,0.0,10.0,0.00772316716123,0.0126500151779,0.00719053494321,1.0,0.0,0.0,0.0,1.0,0.0,0.0,0.0,1.0,-0.0143701171875,-0.0969982910156,10.0339343262,0.1,0.0,0.0,0.0,0.1,0.0,0.0,0.0,0.1
1446035730505232714,28,1446035730503482103,robocape,35.8554433156,16.9048782727,78.3329857205,0.0,10.0,0.0,0.0,0.0,10.0,0.0,0.0,0.0,10.0,0.00798948327024,0.0125168571234,0.00892158965177,1.0,0.0,0.0,0.0,1.0,0.0,0.0,0.0,1.0,-0.0155676269531,-0.0874182128906,10.0315393066,0.1,0.0,0.0,0.0,0.1,0.0,0.0,0.0,0.1
1446035730538486589,29,1446035730536609888,robocape,35.8702839617,16.9089278019,78.3503569122,0.0,10.0,0.0,0.0,0.0,10.0,0.0,0.0,0.0,10.0,0.00759000910673,0.0127831732324,0.00825579937925,1.0,0.0,0.0,0.0,1.0,0.0,0.0,0.0,1.0,-0.00598754882813,-0.0934057617188,10.0351318359,0.1,0.0,0.0,0.0,0.1,0.0,0.0,0.0,0.1
1446035730576100548,30,1446035730574371099,robocape,35.8856865764,16.9132112237,78.3680174587,0.0,10.0,0.0,0.0,0.0,10.0,0.0,0.0,0.0,10.0,0.00798948327024,0.0131826473959,0.00825579937925,1.0,0.0,0.0,0.0,1.0,0.0,0.0,0.0,1.0,-0.0143701171875,-0.0934057617188,10.0530944824,0.1,0.0,0.0,0.0,0.1,0.0,0.0,0.0,0.1
1446035730604802214,31,1446035730603069067,robocape,35.9018889008,16.9175700866,78.3857764149,0.0,10.0,0.0,0.0,0.0,10.0,0.0,0.0,0.0,10.0,0.00865527354276,0.0133158054504,0.00825579937925,1.0,0.0,0.0,0.0,1.0,0.0,0.0,0.0,1.0,-0.0107775878906,-0.101788330078,10.0614770508,0.1,0.0,0.0,0.0,0.1,0.0,0.0,0.0,0.1
1446035730638327006,32,1446035730636612892,robocape,35.9177170907,16.9219470527,78.4037660403,0.0,10.0,0.0,0.0,0.0,10.0,0.0,0.0,0.0,10.0,0.00825579937925,0.0134489635049,0.00838895743375,1.0,0.0,0.0,0.0,1.0,0.0,0.0,0.0,1.0,-0.0179626464844,-0.107775878906,10.0530944824,0.1,0.0,0.0,0.0,0.1,0.0,0.0,0.0,0.1
1446035730676146506,33,1446035730673696994,robocape,35.9335822111,16.9263993085,78.4218542401,0.0,10.0,0.0,0.0,0.0,10.0,0.0,0.0,0.0,10.0,0.00825579937925,0.0135821215594,0.00838895743375,1.0,0.0,0.0,0.0,1.0,0.0,0.0,0.0,1.0,-0.0143701171875,-0.0969982910156,10.0291442871,0.1,0.0,0.0,0.0,0.1,0.0,0.0,0.0,0.1
1446035730704883089,34,1446035730703212022,robocape,35.9488908089,16.9306109466,78.4396579625,0.0,10.0,0.0,0.0,0.0,10.0,0.0,0.0,0.0,10.0,0.00785632521573,0.0131826473959,0.00838895743375,1.0,0.0,0.0,0.0,1.0,0.0,0.0,0.0,1.0,-0.0143701171875,-0.0898132324219,10.0578845215,0.1,0.0,0.0,0.0,0.1,0.0,0.0,0.0,0.1
1446035730738643506,35,1446035730736901998,robocape,35.9642696213,16.9352849401,78.4572234915,0.0,10.0,0.0,0.0,0.0,10.0,0.0,0.0,0.0,10.0,0.00798948327024,0.0135821215594,0.00785632521573,1.0,0.0,0.0,0.0,1.0,0.0,0.0,0.0,1.0,-0.01916015625,-0.086220703125,10.0459094238,0.1,0.0,0.0,0.0,0.1,0.0,0.0,0.0,0.1
1446035730775804714,36,1446035730773706912,robocape,35.9804273313,16.9398190176,78.4748282196,0.0,10.0,0.0,0.0,0.0,10.0,0.0,0.0,0.0,10.0,0.00865527354276,0.0134489635049,0.00798948327024,1.0,0.0,0.0,0.0,1.0,0.0,0.0,0.0,1.0,-0.00838256835938,-0.0981958007813,10.0830322266,0.1,0.0,0.0,0.0,0.1,0.0,0.0,0.0,0.1
1446035730805285548,37,1446035730803545951,robocape,35.9963169662,16.9444282468,78.4925317952,0.0,10.0,0.0,0.0,0.0,10.0,0.0,0.0,0.0,10.0,0.00838895743375,0.0135821215594,0.00798948327024,1.0,0.0,0.0,0.0,1.0,0.0,0.0,0.0,1.0,-0.0227526855469,-0.0934057617188,10.0351318359,0.1,0.0,0.0,0.0,0.1,0.0,0.0,0.0,0.1
1446035730838347631,38,1446035730836505889,robocape,36.0114042253,16.9486037862,78.5101185729,0.0,10.0,0.0,0.0,0.0,10.0,0.0,0.0,0.0,10.0,0.00772316716123,0.0130494893414,0.00825579937925,1.0,0.0,0.0,0.0,1.0,0.0,0.0,0.0,1.0,-0.0131726074219,-0.0910107421875,10.0435144043,0.1,0.0,0.0,0.0,0.1,0.0,0.0,0.0,0.1
1446035730874984631,39,1446035730873217105,robocape,36.026774571,16.9527400683,78.5280679415,0.0,10.0,0.0,0.0,0.0,10.0,0.0,0.0,0.0,10.0,0.00785632521573,0.0131826473959,0.00852211548825,1.0,0.0,0.0,0.0,1.0,0.0,0.0,0.0,1.0,-0.00718505859375,-0.0850231933594,10.0518969727,0.1,0.0,0.0,0.0,0.1,0.0,0.0,0.0,0.1
1446035730904753589,40,1446035730903024911,robocape,36.0428887352,16.9569659206,78.5455280345,0.0,10.0,0.0,0.0,0.0,10.0,0.0,0.0,0.0,10.0,0.00865527354276,0.0130494893414,0.00812264132474,1.0,0.0,0.0,0.0,1.0,0.0,0.0,0.0,1.0,-0.0227526855469,-0.0910107421875,10.0435144043,0.1,0.0,0.0,0.0,0.1,0.0,0.0,0.0,0.1
1446035730938273173,41,1446035730936377048,robocape,36.059073997,16.9613456871,78.5631830094,0.0,10.0,0.0,0.0,0.0,10.0,0.0,0.0,0.0,10.0,0.00865527354276,0.0133158054504,0.00812264132474,1.0,0.0,0.0,0.0,1.0,0.0,0.0,0.0,1.0,-0.0227526855469,-0.086220703125,10.0566870117,0.1,0.0,0.0,0.0,0.1,0.0,0.0,0.0,0.1
1446035730974269506,42,1446035730972431898,robocape,36.075508517,16.9656070179,78.5811047413,0.0,10.0,0.0,0.0,0.0,10.0,0.0,0.0,0.0,10.0,0.00878843159726,0.0133158054504,0.00838895743375,1.0,0.0,0.0,0.0,1.0,0.0,0.0,0.0,1.0,-0.0215551757813,-0.0898132324219,10.0411193848,0.1,0.0,0.0,0.0,0.1,0.0,0.0,0.0,0.1
1446035731004949256,43,1446035731003000974,robocape,36.0908905317,16.9697286078,78.5990650161,0.0,10.0,0.0,0.0,0.0,10.0,0.0,0.0,0.0,10.0,0.00785632521573,0.0131826473959,0.00852211548825,1.0,0.0,0.0,0.0,1.0,0.0,0.0,0.0,1.0,0.0,-0.086220703125,10.0459094238,0.1,0.0,0.0,0.0,0.1,0.0,0.0,0.0,0.1
1446035731038481048,44,1446035731036397933,robocape,36.1060753155,16.9742122366,78.6164646224,0.0,10.0,0.0,0.0,0.0,10.0,0.0,0.0,0.0,10.0,0.00785632521573,0.0133158054504,0.00785632521573,1.0,0.0,0.0,0.0,1.0,0.0,0.0,0.0,1.0,-0.00838256835938,-0.0934057617188,10.0471069336,0.1,0.0,0.0,0.0,0.1,0.0,0.0,0.0,0.1
1446035731073967881,45,1446035731072211027,robocape,36.120724239,16.9786711194,78.6336388996,0.0,10.0,0.0,0.0,0.0,10.0,0.0,0.0,0.0,10.0,0.00745685105222,0.0131826473959,0.00772316716123,1.0,0.0,0.0,0.0,1.0,0.0,0.0,0.0,1.0,-0.00718505859375,-0.0934057617188,10.0447119141,0.1,0.0,0.0,0.0,0.1,0.0,0.0,0.0,0.1
1446035731104894548,46,1446035731103117942,robocape,36.1373574023,16.9829967137,78.6516678066,0.0,10.0,0.0,0.0,0.0,10.0,0.0,0.0,0.0,10.0,0.00892158965177,0.0134489635049,0.00838895743375,1.0,0.0,0.0,0.0,1.0,0.0,0.0,0.0,1.0,-0.0107775878906,-0.0874182128906,10.0471069336,0.1,0.0,0.0,0.0,0.1,0.0,0.0,0.0,0.1
1446035731138217423,47,1446035731136488914,robocape,36.1533832309,16.9873185242,78.6696995916,0.0,10.0,0.0,0.0,0.0,10.0,0.0,0.0,0.0,10.0,0.00838895743375,0.0134489635049,0.00838895743375,1.0,0.0,0.0,0.0,1.0,0.0,0.0,0.0,1.0,-0.00598754882813,-0.0993933105469,10.0542919922,0.1,0.0,0.0,0.0,0.1,0.0,0.0,0.0,0.1
1446035731172573715,48,1446035731170641899,robocape,36.1687359428,16.9913012547,78.6871206358,0.0,10.0,0.0,0.0,0.0,10.0,0.0,0.0,0.0,10.0,0.00798948327024,0.0127831732324,0.00825579937925,1.0,0.0,0.0,0.0,1.0,0.0,0.0,0.0,1.0,-0.0215551757813,-0.100590820313,10.0495019531,0.1,0.0,0.0,0.0,0.1,0.0,0.0,0.0,0.1
1446035731205000090,49,1446035731203310012,robocape,36.1849921773,16.9952863948,78.7053605616,0.0,10.0,0.0,0.0,0.0,10.0,0.0,0.0,0.0,10.0,0.00852211548825,0.0131826473959,0.00878843159726,1.0,0.0,0.0,0.0,1.0,0.0,0.0,0.0,1.0,-0.00718505859375,-0.100590820313,10.0471069336,0.1,0.0,0.0,0.0,0.1,0.0,0.0,0.0,0.1
1446035731238217715,50,1446035731236540079,robocape,36.2013100252,16.9993827284,78.7233396084,0.0,10.0,0.0,0.0,0.0,10.0,0.0,0.0,0.0,10.0,0.00865527354276,0.0131826473959,0.00852211548825,1.0,0.0,0.0,0.0,1.0,0.0,0.0,0.0,1.0,-0.0215551757813,-0.110170898438,10.039921875,0.1,0.0,0.0,0.0,0.1,0.0,0.0,0.0,0.1
1446035731272032756,51,1446035731270205974,robocape,36.2170672588,17.003417957,78.7414530935,0.0,10.0,0.0,0.0,0.0,10.0,0.0,0.0,0.0,10.0,0.00812264132474,0.0131826473959,0.00865527354276,1.0,0.0,0.0,0.0,1.0,0.0,0.0,0.0,1.0,-0.0131726074219,-0.0969982910156,10.060279541,0.1,0.0,0.0,0.0,0.1,0.0,0.0,0.0,0.1
1446035731305438506,52,1446035731303312063,robocape,36.2326740743,17.0077579502,78.7591387979,0.0,10.0,0.0,0.0,0.0,10.0,0.0,0.0,0.0,10.0,0.00812264132474,0.0133158054504,0.00812264132474,1.0,0.0,0.0,0.0,1.0,0.0,0.0,0.0,1.0,-0.01916015625,-0.0922082519531,10.0447119141,0.1,0.0,0.0,0.0,0.1,0.0,0.0,0.0,0.1
1446035731338402756,53,1446035731336520910,robocape,36.2480255738,17.012036888,78.7769589774,0.0,10.0,0.0,0.0,0.0,10.0,0.0,0.0,0.0,10.0,0.00785632521573,0.0133158054504,0.00825579937925,1.0,0.0,0.0,0.0,1.0,0.0,0.0,0.0,1.0,-0.0251477050781,-0.100590820313,10.0471069336,0.1,0.0,0.0,0.0,0.1,0.0,0.0,0.0,0.1
1446035731371474465,54,1446035731369713068,robocape,36.2627939421,17.0163489235,78.7944218811,0.0,10.0,0.0,0.0,0.0,10.0,0.0,0.0,0.0,10.0,0.00745685105222,0.0131826473959,0.00798948327024,1.0,0.0,0.0,0.0,1.0,0.0,0.0,0.0,1.0,-0.0263452148438,-0.106578369141,10.0483044434,0.1,0.0,0.0,0.0,0.1,0.0,0.0,0.0,0.1
1446035731406750131,55,1446035731404948949,robocape,36.2784462661,17.0205791128,78.8117908674,0.0,10.0,0.0,0.0,0.0,10.0,0.0,0.0,0.0,10.0,0.00825579937925,0.0130494893414,0.00798948327024,1.0,0.0,0.0,0.0,1.0,0.0,0.0,0.0,1.0,-0.009580078125,-0.0946032714844,10.060279541,0.1,0.0,0.0,0.0,0.1,0.0,0.0,0.0,0.1
1446035731438490631,56,1446035731436583995,robocape,36.2957563493,17.0244605187,78.8299525338,0.0,10.0,0.0,0.0,0.0,10.0,0.0,0.0,0.0,10.0,0.00945422186978,0.0130494893414,0.00878843159726,1.0,0.0,0.0,0.0,1.0,0.0,0.0,0.0,1.0,-0.0167651367188,-0.0898132324219,10.0506994629,0.1,0.0,0.0,0.0,0.1,0.0,0.0,0.0,0.1
1446035731471788340,57,1446035731470031976,robocape,36.3119762224,17.0286098749,78.8480470232,0.0,10.0,0.0,0.0,0.0,10.0,0.0,0.0,0.0,10.0,0.00852211548825,0.0133158054504,0.00852211548825,1.0,0.0,0.0,0.0,1.0,0.0,0.0,0.0,1.0,-0.009580078125,-0.09580078125,10.0459094238,0.1,0.0,0.0,0.0,0.1,0.0,0.0,0.0,0.1
1446035731509598298,58,1446035731507330894,robocape,36.3269803009,17.0325783276,78.8657223441,0.0,10.0,0.0,0.0,0.0,10.0,0.0,0.0,0.0,10.0,0.00759000910673,0.0129163312869,0.00838895743375,1.0,0.0,0.0,0.0,1.0,0.0,0.0,0.0,1.0,-0.0311352539063,-0.09580078125,10.0471069336,0.1,0.0,0.0,0.0,0.1,0.0,0.0,0.0,0.1
1446035731538324131,59,1446035731536449909,robocape,36.3432990937,17.0369138819,78.8836558052,0.0,10.0,0.0,0.0,0.0,10.0,0.0,0.0,0.0,10.0,0.00865527354276,0.0134489635049,0.00825579937925,1.0,0.0,0.0,0.0,1.0,0.0,0.0,0.0,1.0,-0.0203576660156,-0.0981958007813,10.0363293457,0.1,0.0,0.0,0.0,0.1,0.0,0.0,0.0,0.1
1446035731571582465,60,1446035731569849967,robocape,36.3599508242,17.0409740466,78.9016616274,0.0,10.0,0.0,0.0,0.0,10.0,0.0,0.0,0.0,10.0,0.00892158965177,0.0131826473959,0.00852211548825,1.0,0.0,0.0,0.0,1.0,0.0,0.0,0.0,1.0,-0.01916015625,-0.106578369141,10.0746496582,0.1,0.0,0.0,0.0,0.1,0.0,0.0,0.0,0.1
1446035731610267256,61,1446035731607923030,robocape,36.3759092561,17.0456724637,78.919856798,0.0,10.0,0.0,0.0,0.0,10.0,0.0,0.0,0.0,10.0,0.00825579937925,0.0139815957229,0.00812264132474,1.0,0.0,0.0,0.0,1.0,0.0,0.0,0.0,1.0,-0.00838256835938,-0.0874182128906,10.0674645996,0.1,0.0,0.0,0.0,0.1,0.0,0.0,0.0,0.1
1446035731638241131,62,1446035731636523008,robocape,36.3919436566,17.0501695345,78.9374043728,0.0,10.0,0.0,0.0,0.0,10.0,0.0,0.0,0.0,10.0,0.00852211548825,0.0134489635049,0.00785632521573,1.0,0.0,0.0,0.0,1.0,0.0,0.0,0.0,1.0,-0.0299377441406,-0.0946032714844,10.0423168945,0.1,0.0,0.0,0.0,0.1,0.0,0.0,0.0,0.1
1446035731671609923,63,1446035731669891119,robocape,36.4077721732,17.0540623343,78.9552245252,0.0,10.0,0.0,0.0,0.0,10.0,0.0,0.0,0.0,10.0,0.00825579937925,0.0129163312869,0.00852211548825,1.0,0.0,0.0,0.0,1.0,0.0,0.0,0.0,1.0,-0.028740234375,-0.0838256835938,10.0423168945,0.1,0.0,0.0,0.0,0.1,0.0,0.0,0.0,0.1
1446035731710227173,64,1446035731708436965,robocape,36.4229091445,17.058416501,78.9728122683,0.0,10.0,0.0,0.0,0.0,10.0,0.0,0.0,0.0,10.0,0.00772316716123,0.0133158054504,0.00798948327024,1.0,0.0,0.0,0.0,1.0,0.0,0.0,0.0,1.0,-0.01916015625,-0.0910107421875,10.0315393066,0.1,0.0,0.0,0.0,0.1,0.0,0.0,0.0,0.1
1446035731738257257,65,1446035731736582040,robocape,36.4376035599,17.0626315025,78.9904371425,0.0,10.0,0.0,0.0,0.0,10.0,0.0,0.0,0.0,10.0,0.00732369299772,0.0131826473959,0.00812264132474,1.0,0.0,0.0,0.0,1.0,0.0,0.0,0.0,1.0,-0.0227526855469,-0.0993933105469,10.0495019531,0.1,0.0,0.0,0.0,0.1,0.0,0.0,0.0,0.1
1446035731771477382,66,1446035731769807100,robocape,36.4524288789,17.0671145117,79.0079958998,0.0,10.0,0.0,0.0,0.0,10.0,0.0,0.0,0.0,10.0,0.00745685105222,0.0134489635049,0.00785632521573,1.0,0.0,0.0,0.0,1.0,0.0,0.0,0.0,1.0,-0.0215551757813,-0.102985839844,10.039921875,0.1,0.0,0.0,0.0,0.1,0.0,0.0,0.0,0.1
1446035731809768840,67,1446035731807296037,robocape,36.4684792844,17.0709766616,79.0264146167,0.0,10.0,0.0,0.0,0.0,10.0,0.0,0.0,0.0,10.0,0.00825579937925,0.0131826473959,0.00892158965177,1.0,0.0,0.0,0.0,1.0,0.0,0.0,0.0,1.0,-0.0263452148438,-0.102985839844,10.0483044434,0.1,0.0,0.0,0.0,0.1,0.0,0.0,0.0,0.1
1446035731838352590,68,1446035731836488962,robocape,36.4840495455,17.0754152059,79.0443389722,0.0,10.0,0.0,0.0,0.0,10.0,0.0,0.0,0.0,10.0,0.00798948327024,0.0135821215594,0.00812264132474,1.0,0.0,0.0,0.0,1.0,0.0,0.0,0.0,1.0,-0.0371228027344,-0.0886157226563,10.0459094238,0.1,0.0,0.0,0.0,0.1,0.0,0.0,0.0,0.1
1446035731871430298,69,1446035731869692087,robocape,36.4993525043,17.0799280902,79.0623633726,0.0,10.0,0.0,0.0,0.0,10.0,0.0,0.0,0.0,10.0,0.00772316716123,0.0137152796139,0.00812264132474,1.0,0.0,0.0,0.0,1.0,0.0,0.0,0.0,1.0,-0.0239501953125,-0.09580078125,10.055489502,0.1,0.0,0.0,0.0,0.1,0.0,0.0,0.0,0.1
1446035731909518215,70,1446035731907589912,robocape,36.5145425552,17.0840304596,79.0804930157,0.0,10.0,0.0,0.0,0.0,10.0,0.0,0.0,0.0,10.0,0.00759000910673,0.0133158054504,0.00852211548825,1.0,0.0,0.0,0.0,1.0,0.0,0.0,0.0,1.0,-0.00718505859375,-0.0934057617188,10.0566870117,0.1,0.0,0.0,0.0,0.1,0.0,0.0,0.0,0.1
1446035731938480507,71,1446035731936563014,robocape,36.530052802,17.0879936837,79.098659355,0.0,10.0,0.0,0.0,0.0,10.0,0.0,0.0,0.0,10.0,0.00785632521573,0.0131826473959,0.00865527354276,1.0,0.0,0.0,0.0,1.0,0.0,0.0,0.0,1.0,-0.0119750976563,-0.100590820313,10.0375268555,0.1,0.0,0.0,0.0,0.1,0.0,0.0,0.0,0.1
1446035731973426590,72,1446035731971647977,robocape,36.54548409,17.0920660039,79.115748439,0.0,10.0,0.0,0.0,0.0,10.0,0.0,0.0,0.0,10.0,0.00812264132474,0.0127831732324,0.00785632521573,1.0,0.0,0.0,0.0,1.0,0.0,0.0,0.0,1.0,-0.0143701171875,-0.100590820313,10.0363293457,0.1,0.0,0.0,0.0,0.1,0.0,0.0,0.0,0.1
1446035732008545632,73,1446035732006660938,robocape,36.5618206923,17.0964462981,79.13322957,0.0,10.0,0.0,0.0,0.0,10.0,0.0,0.0,0.0,10.0,0.00878843159726,0.0133158054504,0.00785632521573,1.0,0.0,0.0,0.0,1.0,0.0,0.0,0.0,1.0,0.00119750976563,-0.09580078125,10.0483044434,0.1,0.0,0.0,0.0,0.1,0.0,0.0,0.0,0.1
1446035732038196382,74,1446035732036355972,robocape,36.5780661604,17.1008053481,79.1513022098,0.0,10.0,0.0,0.0,0.0,10.0,0.0,0.0,0.0,10.0,0.00852211548825,0.0135821215594,0.00825579937925,1.0,0.0,0.0,0.0,1.0,0.0,0.0,0.0,1.0,-0.0107775878906,-0.101788330078,10.0542919922,0.1,0.0,0.0,0.0,0.1,0.0,0.0,0.0,0.1
1446035732071525090,75,1446035732069802045,robocape,36.5943973559,17.1050050222,79.1691828974,0.0,10.0,0.0,0.0,0.0,10.0,0.0,0.0,0.0,10.0,0.00865527354276,0.0133158054504,0.00825579937925,1.0,0.0,0.0,0.0,1.0,0.0,0.0,0.0,1.0,-0.0107775878906,-0.0934057617188,10.0782421875,0.1,0.0,0.0,0.0,0.1,0.0,0.0,0.0,0.1
1446035732108325590,76,1446035732106573104,robocape,36.6091940511,17.1091611166,79.1866088923,0.0,10.0,0.0,0.0,0.0,10.0,0.0,0.0,0.0,10.0,0.00745685105222,0.0130494893414,0.00798948327024,1.0,0.0,0.0,0.0,1.0,0.0,0.0,0.0,1.0,-0.0155676269531,-0.0874182128906,10.0542919922,0.1,0.0,0.0,0.0,0.1,0.0,0.0,0.0,0.1
1446035732138357715,77,1446035732136570930,robocape,36.6245563427,17.1135470471,79.2043300432,0.0,10.0,0.0,0.0,0.0,10.0,0.0,0.0,0.0,10.0,0.00785632521573,0.0134489635049,0.00798948327024,1.0,0.0,0.0,0.0,1.0,0.0,0.0,0.0,1.0,-0.0239501953125,-0.102985839844,10.0279467773,0.1,0.0,0.0,0.0,0.1,0.0,0.0,0.0,0.1
1446035732171610715,78,1446035732169682025,robocape,36.640157437,17.1174651273,79.2222861016,0.0,10.0,0.0,0.0,0.0,10.0,0.0,0.0,0.0,10.0,0.00798948327024,0.0130494893414,0.00852211548825,1.0,0.0,0.0,0.0,1.0,0.0,0.0,0.0,1.0,-0.0299377441406,-0.107775878906,10.055489502,0.1,0.0,0.0,0.0,0.1,0.0,0.0,0.0,0.1
1446035732207454923,79,1446035732205670118,robocape,36.6561959838,17.1211665082,79.2401807051,0.0,10.0,0.0,0.0,0.0,10.0,0.0,0.0,0.0,10.0,0.00838895743375,0.0127831732324,0.00865527354276,1.0,0.0,0.0,0.0,1.0,0.0,0.0,0.0,1.0,-0.0179626464844,-0.100590820313,10.0518969727,0.1,0.0,0.0,0.0,0.1,0.0,0.0,0.0,0.1
1446035732238283382,80,1446035732236547946,robocape,36.6731644188,17.1249040014,79.258535369,0.0,10.0,0.0,0.0,0.0,10.0,0.0,0.0,0.0,10.0,0.00905474770627,0.0130494893414,0.00892158965177,1.0,0.0,0.0,0.0,1.0,0.0,0.0,0.0,1.0,0.00119750976563,-0.105380859375,10.0495019531,0.1,0.0,0.0,0.0,0.1,0.0,0.0,0.0,0.1
1446035732271473548,81,1446035732269742012,robocape,36.6896532898,17.1290425484,79.2759747603,0.0,10.0,0.0,0.0,0.0,10.0,0.0,0.0,0.0,10.0,0.00892158965177,0.0130494893414,0.00798948327024,1.0,0.0,0.0,0.0,1.0,0.0,0.0,0.0,1.0,-0.00838256835938,-0.102985839844,10.0423168945,0.1,0.0,0.0,0.0,0.1,0.0,0.0,0.0,0.1
1446035732306735673,82,1446035732304667949,robocape,36.705745546,17.1334681305,79.2935789666,0.0,10.0,0.0,0.0,0.0,10.0,0.0,0.0,0.0,10.0,0.00852211548825,0.0134489635049,0.00785632521573,1.0,0.0,0.0,0.0,1.0,0.0,0.0,0.0,1.0,-0.01916015625,-0.0838256835938,10.0626745605,0.1,0.0,0.0,0.0,0.1,0.0,0.0,0.0,0.1
1446035732338440382,83,1446035732336561918,robocape,36.7207966069,17.1376192856,79.3112526635,0.0,10.0,0.0,0.0,0.0,10.0,0.0,0.0,0.0,10.0,0.00759000910673,0.0131826473959,0.00812264132474,1.0,0.0,0.0,0.0,1.0,0.0,0.0,0.0,1.0,-0.0251477050781,-0.0993933105469,10.0614770508,0.1,0.0,0.0,0.0,0.1,0.0,0.0,0.0,0.1
1446035732371483215,84,1446035732369712114,robocape,36.7348287819,17.142018234,79.3286335396,0.0,10.0,0.0,0.0,0.0,10.0,0.0,0.0,0.0,10.0,0.0067910607797,0.0133158054504,0.00772316716123,1.0,0.0,0.0,0.0,1.0,0.0,0.0,0.0,1.0,-0.0107775878906,-0.110170898438,10.0542919922,0.1,0.0,0.0,0.0,0.1,0.0,0.0,0.0,0.1
1446035732405996298,85,1446035732404263973,robocape,36.7492753813,17.1463374396,79.3467369085,0.0,10.0,0.0,0.0,0.0,10.0,0.0,0.0,0.0,10.0,0.00692421883421,0.0135821215594,0.00825579937925,1.0,0.0,0.0,0.0,1.0,0.0,0.0,0.0,1.0,-0.0275427246094,-0.110170898438,10.0483044434,0.1,0.0,0.0,0.0,0.1,0.0,0.0,0.0,0.1
1446035732439895924,86,1446035732436547040,robocape,36.7655798359,17.150382316,79.3649093552,0.0,10.0,0.0,0.0,0.0,10.0,0.0,0.0,0.0,10.0,0.00852211548825,0.0133158054504,0.00852211548825,1.0,0.0,0.0,0.0,1.0,0.0,0.0,0.0,1.0,-0.0203576660156,-0.0981958007813,10.0171691895,0.1,0.0,0.0,0.0,0.1,0.0,0.0,0.0,0.1
1446035732471575299,87,1446035732469816923,robocape,36.7824273312,17.154443015,79.3833134753,0.0,10.0,0.0,0.0,0.0,10.0,0.0,0.0,0.0,10.0,0.00892158965177,0.0134489635049,0.00865527354276,1.0,0.0,0.0,0.0,1.0,0.0,0.0,0.0,1.0,-0.0251477050781,-0.104183349609,10.0327368164,0.1,0.0,0.0,0.0,0.1,0.0,0.0,0.0,0.1
1446035732505279632,88,1446035732503529071,robocape,36.7989370122,17.1589059085,79.4016213437,0.0,10.0,0.0,0.0,0.0,10.0,0.0,0.0,0.0,10.0,0.00865527354276,0.0138484376684,0.00825579937925,1.0,0.0,0.0,0.0,1.0,0.0,0.0,0.0,1.0,-0.0155676269531,-0.0910107421875,10.0614770508,0.1,0.0,0.0,0.0,0.1,0.0,0.0,0.0,0.1
1446035732539973049,89,1446035732538093090,robocape,36.8140174751,17.1624172877,79.4193450163,0.0,10.0,0.0,0.0,0.0,10.0,0.0,0.0,0.0,10.0,0.00759000910673,0.0125168571234,0.00865527354276,1.0,0.0,0.0,0.0,1.0,0.0,0.0,0.0,1.0,-0.00718505859375,-0.086220703125,10.0662670898,0.1,0.0,0.0,0.0,0.1,0.0,0.0,0.0,0.1
1446035732571544507,90,1446035732569809913,robocape,36.828654262,17.1662734587,79.4371031382,0.0,10.0,0.0,0.0,0.0,10.0,0.0,0.0,0.0,10.0,0.00719053494321,0.0129163312869,0.00838895743375,1.0,0.0,0.0,0.0,1.0,0.0,0.0,0.0,1.0,-0.01916015625,-0.100590820313,10.0578845215,0.1,0.0,0.0,0.0,0.1,0.0,0.0,0.0,0.1
1446035732605080507,91,1446035732603334903,robocape,36.8431534805,17.1706484136,79.4553211869,0.0,10.0,0.0,0.0,0.0,10.0,0.0,0.0,0.0,10.0,0.00692421883421,0.0137152796139,0.00825579937925,1.0,0.0,0.0,0.0,1.0,0.0,0.0,0.0,1.0,-0.0323327636719,-0.09580078125,10.0471069336,0.1,0.0,0.0,0.0,0.1,0.0,0.0,0.0,0.1
1446035732640427715,92,1446035732638477087,robocape,36.8593799739,17.1750969005,79.4728222625,0.0,10.0,0.0,0.0,0.0,10.0,0.0,0.0,0.0,10.0,0.00865527354276,0.0134489635049,0.00772316716123,1.0,0.0,0.0,0.0,1.0,0.0,0.0,0.0,1.0,-0.009580078125,-0.102985839844,10.0578845215,0.1,0.0,0.0,0.0,0.1,0.0,0.0,0.0,0.1
1446035732671467382,93,1446035732669718980,robocape,36.8755622479,17.1791166122,79.4901954139,0.0,10.0,0.0,0.0,0.0,10.0,0.0,0.0,0.0,10.0,0.00865527354276,0.0129163312869,0.00798948327024,1.0,0.0,0.0,0.0,1.0,0.0,0.0,0.0,1.0,-0.0143701171875,-0.0981958007813,10.0578845215,0.1,0.0,0.0,0.0,0.1,0.0,0.0,0.0,0.1
1446035732705320632,94,1446035732703545093,robocape,36.8923930776,17.1832100011,79.5076694679,0.0,10.0,0.0,0.0,0.0,10.0,0.0,0.0,0.0,10.0,0.00918790576077,0.0130494893414,0.00798948327024,1.0,0.0,0.0,0.0,1.0,0.0,0.0,0.0,1.0,-0.0131726074219,-0.0993933105469,10.0542919922,0.1,0.0,0.0,0.0,0.1,0.0,0.0,0.0,0.1
1446035732743038632,95,1446035732740694999,robocape,36.908545751,17.1876281969,79.5249502791,0.0,10.0,0.0,0.0,0.0,10.0,0.0,0.0,0.0,10.0,0.00865527354276,0.0133158054504,0.00759000910673,1.0,0.0,0.0,0.0,1.0,0.0,0.0,0.0,1.0,-0.0179626464844,-0.0874182128906,10.0411193848,0.1,0.0,0.0,0.0,0.1,0.0,0.0,0.0,0.1
1446035732771588007,96,1446035732769821882,robocape,36.9240445808,17.191791615,79.542528108,0.0,10.0,0.0,0.0,0.0,10.0,0.0,0.0,0.0,10.0,0.00798948327024,0.0131826473959,0.00798948327024,1.0,0.0,0.0,0.0,1.0,0.0,0.0,0.0,1.0,-0.0143701171875,-0.0838256835938,10.0411193848,0.1,0.0,0.0,0.0,0.1,0.0,0.0,0.0,0.1
1446035732805081799,97,1446035732803304910,robocape,36.9389249065,17.1957775754,79.5605009441,0.0,10.0,0.0,0.0,0.0,10.0,0.0,0.0,0.0,10.0,0.00732369299772,0.0131826473959,0.00838895743375,1.0,0.0,0.0,0.0,1.0,0.0,0.0,0.0,1.0,-0.0239501953125,-0.0922082519531,10.0291442871,0.1,0.0,0.0,0.0,0.1,0.0,0.0,0.0,0.1
1446035732839758965,98,1446035732837884902,robocape,36.9544427382,17.2004550735,79.5785434331,0.0,10.0,0.0,0.0,0.0,10.0,0.0,0.0,0.0,10.0,0.00785632521573,0.0139815957229,0.00785632521573,1.0,0.0,0.0,0.0,1.0,0.0,0.0,0.0,1.0,-0.0143701171875,-0.100590820313,10.0339343262,0.1,0.0,0.0,0.0,0.1,0.0,0.0,0.0,0.1
1446035732871685465,99,1446035732869951963,robocape,36.9702089474,17.204356864,79.5964231655,0.0,10.0,0.0,0.0,0.0,10.0,0.0,0.0,0.0,10.0,0.00812264132474,0.0130494893414,0.00838895743375,1.0,0.0,0.0,0.0,1.0,0.0,0.0,0.0,1.0,-0.0263452148438,-0.105380859375,10.0590820312,0.1,0.0,0.0,0.0,0.1,0.0,0.0,0.0,0.1
1446035732904922757,100,1446035732903160095,robocape,36.9864821696,17.2085063409,79.6140117649,0.0,10.0,0.0,0.0,0.0,10.0,0.0,0.0,0.0,10.0,0.00865527354276,0.0131826473959,0.00798948327024,1.0,0.0,0.0,0.0,1.0,0.0,0.0,0.0,1.0,-0.0227526855469,-0.0910107421875,10.060279541,0.1,0.0,0.0,0.0,0.1,0.0,0.0,0.0,0.1
1446035732943099799,101,1446035732941276073,robocape,37.0022990312,17.2124791171,79.6311769689,0.0,10.0,0.0,0.0,0.0,10.0,0.0,0.0,0.0,10.0,0.00838895743375,0.0127831732324,0.00785632521573,1.0,0.0,0.0,0.0,1.0,0.0,0.0,0.0,1.0,-0.028740234375,-0.0934057617188,10.0435144043,0.1,0.0,0.0,0.0,0.1,0.0,0.0,0.0,0.1
1446035732971473424,102,1446035732969742059,robocape,37.0175329568,17.2163513599,79.6488352878,0.0,10.0,0.0,0.0,0.0,10.0,0.0,0.0,0.0,10.0,0.00772316716123,0.0129163312869,0.00825579937925,1.0,0.0,0.0,0.0,1.0,0.0,0.0,0.0,1.0,-0.00718505859375,-0.0969982910156,10.024354248,0.1,0.0,0.0,0.0,0.1,0.0,0.0,0.0,0.1
1446035733005088507,103,1446035733003343105,robocape,37.0321948327,17.2202973103,79.666594611,0.0,10.0,0.0,0.0,0.0,10.0,0.0,0.0,0.0,10.0,0.00719053494321,0.0130494893414,0.00825579937925,1.0,0.0,0.0,0.0,1.0,0.0,0.0,0.0,1.0,-0.0047900390625,-0.0850231933594,10.0578845215,0.1,0.0,0.0,0.0,0.1,0.0,0.0,0.0,0.1
1446035733043477549,104,1446035733041424036,robocape,37.0470466726,17.2238347372,79.6844525352,0.0,10.0,0.0,0.0,0.0,10.0,0.0,0.0,0.0,10.0,0.00732369299772,0.0126500151779,0.00865527354276,1.0,0.0,0.0,0.0,1.0,0.0,0.0,0.0,1.0,-0.0107775878906,-0.104183349609,10.0566870117,0.1,0.0,0.0,0.0,0.1,0.0,0.0,0.0,0.1
1446035733071349632,105,1446035733069641113,robocape,37.0634163984,17.2279860023,79.7022834833,0.0,10.0,0.0,0.0,0.0,10.0,0.0,0.0,0.0,10.0,0.00865527354276,0.0133158054504,0.00812264132474,1.0,0.0,0.0,0.0,1.0,0.0,0.0,0.0,1.0,-0.0263452148438,-0.102985839844,10.0614770508,0.1,0.0,0.0,0.0,0.1,0.0,0.0,0.0,0.1
1446035733104868174,106,1446035733103116035,robocape,37.0796963979,17.2324224909,79.7202826709,0.0,10.0,0.0,0.0,0.0,10.0,0.0,0.0,0.0,10.0,0.00852211548825,0.0137152796139,0.00798948327024,1.0,0.0,0.0,0.0,1.0,0.0,0.0,0.0,1.0,-0.0047900390625,-0.101788330078,10.0291442871,0.1,0.0,0.0,0.0,0.1,0.0,0.0,0.0,0.1
1446035733142070132,107,1446035733140151977,robocape,37.0964603134,17.2365851096,79.738348591,0.0,10.0,0.0,0.0,0.0,10.0,0.0,0.0,0.0,10.0,0.00892158965177,0.0134489635049,0.00825579937925,1.0,0.0,0.0,0.0,1.0,0.0,0.0,0.0,1.0,-0.0275427246094,-0.104183349609,10.0626745605,0.1,0.0,0.0,0.0,0.1,0.0,0.0,0.0,0.1
1446035733171391049,108,1446035733169703960,robocape,37.112322451,17.2409184486,79.7560256767,0.0,10.0,0.0,0.0,0.0,10.0,0.0,0.0,0.0,10.0,0.00825579937925,0.0134489635049,0.00785632521573,1.0,0.0,0.0,0.0,1.0,0.0,0.0,0.0,1.0,-0.0107775878906,-0.100590820313,10.0650695801,0.1,0.0,0.0,0.0,0.1,0.0,0.0,0.0,0.1
1446035733204926632,109,1446035733203236103,robocape,37.1275177639,17.2446501221,79.7739630211,0.0,10.0,0.0,0.0,0.0,10.0,0.0,0.0,0.0,10.0,0.00759000910673,0.0129163312869,0.00852211548825,1.0,0.0,0.0,0.0,1.0,0.0,0.0,0.0,1.0,-0.0227526855469,-0.105380859375,10.0530944824,0.1,0.0,0.0,0.0,0.1,0.0,0.0,0.0,0.1
1446035733242182757,110,1446035733240489006,robocape,37.1420802321,17.2484761949,79.7914123614,0.0,10.0,0.0,0.0,0.0,10.0,0.0,0.0,0.0,10.0,0.00719053494321,0.0127831732324,0.00812264132474,1.0,0.0,0.0,0.0,1.0,0.0,0.0,0.0,1.0,-0.01916015625,-0.0838256835938,10.0363293457,0.1,0.0,0.0,0.0,0.1,0.0,0.0,0.0,0.1
1446035733271327299,111,1446035733269701004,robocape,37.1577271027,17.2523362043,79.8093228665,0.0,10.0,0.0,0.0,0.0,10.0,0.0,0.0,0.0,10.0,0.00798948327024,0.0130494893414,0.00838895743375,1.0,0.0,0.0,0.0,1.0,0.0,0.0,0.0,1.0,-0.00239501953125,-0.0981958007813,10.0219592285,0.1,0.0,0.0,0.0,0.1,0.0,0.0,0.0,0.1
1446035733304958966,112,1446035733303132057,robocape,37.1709971933,17.2570682404,79.8244600935,0.0,10.0,0.0,0.0,0.0,10.0,0.0,0.0,0.0,10.0,0.0067910607797,0.0126500151779,0.00585895439817,1.0,0.0,0.0,0.0,1.0,0.0,0.0,0.0,1.0,-0.0203576660156,0.162861328125,10.0387243652,0.1,0.0,0.0,0.0,0.1,0.0,0.0,0.0,0.1
1446035733341505049,113,1446035733339596986,robocape,37.0558812153,17.1744269838,80.0412050207,0.0,10.0,0.0,0.0,0.0,10.0,0.0,0.0,0.0,10.0,-0.168844413111,0.0154463343225,0.209457619735,1.0,0.0,0.0,0.0,1.0,0.0,0.0,0.0,1.0,-0.0047900390625,-0.522114257812,9.96807128906,0.1,0.0,0.0,0.0,0.1,0.0,0.0,0.0,0.1
1446035733371501382,114,1446035733369635105,robocape,37.0032384071,17.1041239125,80.2274901723,0.0,10.0,0.0,0.0,0.0,10.0,0.0,0.0,0.0,10.0,-0.104395914731,0.0141147537774,0.179363899417,1.0,0.0,0.0,0.0,1.0,0.0,0.0,0.0,1.0,-0.0047900390625,-0.722098388672,10.1021923828,0.1,0.0,0.0,0.0,0.1,0.0,0.0,0.0,0.1
1446035733405028507,115,1446035733403134107,robocape,37.0149632087,17.0292386103,80.4129706452,0.0,10.0,0.0,0.0,0.0,10.0,0.0,0.0,0.0,10.0,-0.0476705835124,0.00892158965177,0.182559692725,1.0,0.0,0.0,0.0,1.0,0.0,0.0,0.0,1.0,-0.00598754882813,-1.17715209961,10.0950073242,0.1,0.0,0.0,0.0,0.1,0.0,0.0,0.0,0.1
1446035733440432174,116,1446035733438617944,robocape,37.3112828714,17.0241925541,80.4360553023,0.0,10.0,0.0,0.0,0.0,10.0,0.0,0.0,0.0,10.0,0.251402406903,0.00585895439817,0.0191747598486,1.0,0.0,0.0,0.0,1.0,0.0,0.0,0.0,1.0,-0.0107775878906,-1.23343505859,10.0495019531,0.1,0.0,0.0,0.0,0.1,0.0,0.0,0.0,0.1
1446035733471799216,117,1446035733469887018,robocape,37.6998344672,17.0274378636,80.4332410358,0.0,10.0,0.0,0.0,0.0,10.0,0.0,0.0,0.0,10.0,0.339952513149,0.00213052887206,-0.00452737385313,1.0,0.0,0.0,0.0,1.0,0.0,0.0,0.0,1.0,-0.269439697266,-0.221539306641,10.0890197754,0.1,0.0,0.0,0.0,0.1,0.0,0.0,0.0,0.1
1446035733504948549,118,1446035733503173112,robocape,38.1084273751,17.067173166,80.3306281328,0.0,10.0,0.0,0.0,0.0,10.0,0.0,0.0,0.0,10.0,0.388555203043,-0.00838895743375,-0.0994690667145,1.0,0.0,0.0,0.0,1.0,0.0,0.0,0.0,1.0,-0.419128417969,0.433498535156,10.1153649902,0.1,0.0,0.0,0.0,0.1,0.0,0.0,0.0,0.1
1446035733539918674,119,1446035733538172006,robocape,38.4028351742,17.1108904631,80.2413818645,0.0,10.0,0.0,0.0,0.0,10.0,0.0,0.0,0.0,10.0,0.284825078584,0.00213052887206,-0.0942759025888,1.0,0.0,0.0,0.0,1.0,0.0,0.0,0.0,1.0,0.550854492188,1.54359008789,9.94052856445,0.1,0.0,0.0,0.0,0.1,0.0,0.0,0.0,0.1
1446035733571721716,120,1446035733569775104,robocape,38.4325399936,17.1170869398,80.2573971989,0.0,10.0,0.0,0.0,0.0,10.0,0.0,0.0,0.0,10.0,0.0209058145571,0.0147805440499,0.00492684801665,1.0,0.0,0.0,0.0,1.0,0.0,0.0,0.0,1.0,-0.0335302734375,1.57831787109,10.0183666992,0.1,0.0,0.0,0.0,0.1,0.0,0.0,0.0,0.1
1446035733604967466,121,1446035733603221893,robocape,38.2642407881,17.1222049461,80.2875818894,0.0,10.0,0.0,0.0,0.0,10.0,0.0,0.0,0.0,10.0,-0.156327555988,0.0207726565026,0.0149137021044,1.0,0.0,0.0,0.0,1.0,0.0,0.0,0.0,1.0,0.21076171875,1.01788330078,9.92735595703,0.1,0.0,0.0,0.0,0.1,0.0,0.0,0.0,0.1
1446035733638933591,122,1446035733637147903,robocape,38.0151509113,17.1461646936,80.2852734995,0.0,10.0,0.0,0.0,0.0,10.0,0.0,0.0,0.0,10.0,-0.216648154678,0.0247673981377,-0.0218379209386,1.0,0.0,0.0,0.0,1.0,0.0,0.0,0.0,1.0,0.0455053710938,0.346080322266,10.0147741699,0.1,0.0,0.0,0.0,0.1,0.0,0.0,0.0,0.1
1446035733672759924,123,1446035733670249938,robocape,37.7858121782,17.1964013642,80.2183824577,0.0,10.0,0.0,0.0,0.0,10.0,0.0,0.0,0.0,10.0,-0.179097583308,0.0211721306661,-0.0854874709915,1.0,0.0,0.0,0.0,1.0,0.0,0.0,0.0,1.0,-0.0263452148438,-0.222736816406,10.0578845215,0.1,0.0,0.0,0.0,0.1,0.0,0.0,0.0,0.1
1446035733705276591,124,1446035733703480005,robocape,37.6233419997,17.2757857412,80.0718268307,0.0,10.0,0.0,0.0,0.0,10.0,0.0,0.0,0.0,10.0,-0.0954743250793,0.0138484376684,-0.161387562059,1.0,0.0,0.0,0.0,1.0,0.0,0.0,0.0,1.0,-0.00239501953125,-0.312550048828,10.0506994629,0.1,0.0,0.0,0.0,0.1,0.0,0.0,0.0,0.1
1446035733739076507,125,1446035733737231969,robocape,37.4923633199,17.3704023927,79.8831950777,0.0,10.0,0.0,0.0,0.0,10.0,0.0,0.0,0.0,10.0,-0.0543284862376,0.0105194863058,-0.201468136464,1.0,0.0,0.0,0.0,1.0,0.0,0.0,0.0,1.0,-0.183218994141,0.00239501953125,10.0506994629,0.1,0.0,0.0,0.0,0.1,0.0,0.0,0.0,0.1
1446035733773447716,126,1446035733771764039,robocape,37.3346167208,17.4532893337,79.7142953254,0.0,10.0,0.0,0.0,0.0,10.0,0.0,0.0,0.0,10.0,-0.0836232582285,0.00825579937925,-0.178964425253,1.0,0.0,0.0,0.0,1.0,0.0,0.0,0.0,1.0,0.0275427246094,0.259859619141,10.0506994629,0.1,0.0,0.0,0.0,0.1,0.0,0.0,0.0,0.1
1446035733805175132,127,1446035733803394079,robocape,37.1084888325,17.4756176631,79.6898493377,0.0,10.0,0.0,0.0,0.0,10.0,0.0,0.0,0.0,10.0,-0.189483911559,0.0127831732324,-0.034621094171,1.0,0.0,0.0,0.0,1.0,0.0,0.0,0.0,1.0,-0.209564208984,0.0215551757813,9.98603393555,0.1,0.0,0.0,0.0,0.1,0.0,0.0,0.0,0.1
1446035733838895216,128,1446035733836991071,robocape,36.7937599386,17.4189256956,79.8535848061,0.0,10.0,0.0,0.0,0.0,10.0,0.0,0.0,0.0,10.0,-0.327169339916,0.0167779148675,0.153664394898,1.0,0.0,0.0,0.0,1.0,0.0,0.0,0.0,1.0,-0.0107775878906,0.0910107421875,9.92615844727,0.1,0.0,0.0,0.0,0.1,0.0,0.0,0.0,0.1
1446035733876167299,129,1446035733873893976,robocape,36.4553106723,17.3611668806,80.0140413885,0.0,10.0,0.0,0.0,0.0,10.0,0.0,0.0,0.0,10.0,-0.346610415874,0.0133158054504,0.152465972407,1.0,0.0,0.0,0.0,1.0,0.0,0.0,0.0,1.0,-0.0490979003906,-0.674197998047,9.99202148437,0.1,0.0,0.0,0.0,0.1,0.0,0.0,0.0,0.1
1446035733905085883,130,1446035733903228044,robocape,36.2423874705,17.3482587519,80.0694472696,0.0,10.0,0.0,0.0,0.0,10.0,0.0,0.0,0.0,10.0,-0.203465507282,0.0122505410144,0.0468716351854,1.0,0.0,0.0,0.0,1.0,0.0,0.0,0.0,1.0,0.0347277832031,-0.865799560547,10.0566870117,0.1,0.0,0.0,0.0,0.1,0.0,0.0,0.0,0.1
1446035733938814174,131,1446035733936909914,robocape,36.1031955769,17.348135683,80.0952813042,0.0,10.0,0.0,0.0,0.0,10.0,0.0,0.0,0.0,10.0,-0.129695945087,0.0122505410144,0.0170442309765,1.0,0.0,0.0,0.0,1.0,0.0,0.0,0.0,1.0,-0.0490979003906,-0.786763916016,10.0542919922,0.1,0.0,0.0,0.0,0.1,0.0,0.0,0.0,0.1
1446035733976160133,132,1446035733973917007,robocape,36.014449405,17.3713842218,80.0666212717,0.0,10.0,0.0,0.0,0.0,10.0,0.0,0.0,0.0,10.0,-0.0683100819605,0.0123836990689,-0.0378168874791,1.0,0.0,0.0,0.0,1.0,0.0,0.0,0.0,1.0,-0.0371228027344,-1.18553466797,10.0447119141,0.1,0.0,0.0,0.0,0.1,0.0,0.0,0.0,0.1
1446035734005844841,133,1446035734003995895,robocape,36.0904715752,17.4654650478,79.8699388287,0.0,10.0,0.0,0.0,0.0,10.0,0.0,0.0,0.0,10.0,0.129296470923,0.0118510668509,-0.206128668372,1.0,0.0,0.0,0.0,1.0,0.0,0.0,0.0,1.0,0.0646655273438,-0.827479248047,10.0878222656,0.1,0.0,0.0,0.0,0.1,0.0,0.0,0.0,0.1
1446035734039022966,134,1446035734037285089,robocape,36.2294602575,17.5397485291,79.7197684431,0.0,10.0,0.0,0.0,0.0,10.0,0.0,0.0,0.0,10.0,0.169643361438,0.0118510668509,-0.159523349296,1.0,0.0,0.0,0.0,1.0,0.0,0.0,0.0,1.0,-0.0047900390625,0.199984130859,10.0339343262,0.1,0.0,0.0,0.0,0.1,0.0,0.0,0.0,0.1
1446035734076130133,135,1446035734074423074,robocape,36.1667419923,17.5713250775,79.667841502,0.0,10.0,0.0,0.0,0.0,10.0,0.0,0.0,0.0,10.0,-0.0379500455336,0.0107858024148,-0.0600542825813,1.0,0.0,0.0,0.0,1.0,0.0,0.0,0.0,1.0,-0.0646655273438,0.320932617188,10.0327368164,0.1,0.0,0.0,0.0,0.1,0.0,0.0,0.0,0.1
1446035734105140216,136,1446035734103260040,robocape,35.9721860093,17.5674828471,79.7056924688,0.0,10.0,0.0,0.0,0.0,10.0,0.0,0.0,0.0,10.0,-0.182027060507,0.0137152796139,0.0279631914458,1.0,0.0,0.0,0.0,1.0,0.0,0.0,0.0,1.0,0.0754431152344,0.443078613281,10.1105749512,0.1,0.0,0.0,0.0,0.1,0.0,0.0,0.0,0.1
1446035734138427299,137,1446035734136708974,robocape,35.6648334891,17.4982973565,79.8987104476,0.0,10.0,0.0,0.0,0.0,10.0,0.0,0.0,0.0,10.0,-0.330498291279,0.0131826473959,0.183491799106,1.0,0.0,0.0,0.0,1.0,0.0,0.0,0.0,1.0,-0.300574951172,-1.16517700195,10.1237475586,0.1,0.0,0.0,0.0,0.1,0.0,0.0,0.0,0.1
1446035734176520091,138,1446035734174258947,robocape,35.5204494432,17.4810732096,79.9677390483,0.0,10.0,0.0,0.0,0.0,10.0,0.0,0.0,0.0,10.0,-0.148204914663,0.0130494893414,0.0595216503633,1.0,0.0,0.0,0.0,1.0,0.0,0.0,0.0,1.0,0.183218994141,-1.77949951172,9.95849121094,0.1,0.0,0.0,0.0,0.1,0.0,0.0,0.0,0.1
1446035734204900924,139,1446035734203193902,robocape,35.5848975475,17.4944314423,79.9728588759,0.0,10.0,0.0,0.0,0.0,10.0,0.0,0.0,0.0,10.0,0.0545948023466,0.0175768631945,-0.00745685105222,1.0,0.0,0.0,0.0,1.0,0.0,0.0,0.0,1.0,0.0323327636719,-1.80823974609,10.0363293457,0.1,0.0,0.0,0.0,0.1,0.0,0.0,0.0,0.1
1446035734238666758,140,1446035734236804008,robocape,35.8098137573,17.5075375,79.9741049547,0.0,10.0,0.0,0.0,0.0,10.0,0.0,0.0,0.0,10.0,0.195875498175,0.0154463343225,-0.00985369603329,1.0,0.0,0.0,0.0,1.0,0.0,0.0,0.0,1.0,-0.0215551757813,-0.846639404297,10.0722546387,0.1,0.0,0.0,0.0,0.1,0.0,0.0,0.0,0.1
1446035734275383091,141,1446035734273526906,robocape,36.1579236199,17.5803888979,79.8262284633,0.0,10.0,0.0,0.0,0.0,10.0,0.0,0.0,0.0,10.0,0.35153726389,0.0119842249054,-0.156860188206,1.0,0.0,0.0,0.0,1.0,0.0,0.0,0.0,1.0,-0.0634680175781,-1.12925170898,10.2470910645,0.1,0.0,0.0,0.0,0.1,0.0,0.0,0.0,0.1
1446035734304828133,142,1446035734303069114,robocape,36.4863470718,17.6788118059,79.6156982736,0.0,10.0,0.0,0.0,0.0,10.0,0.0,0.0,0.0,10.0,0.354999373308,0.0102531701968,-0.219178157714,1.0,0.0,0.0,0.0,1.0,0.0,0.0,0.0,1.0,-0.149688720703,-0.110170898438,10.0638720703,0.1,0.0,0.0,0.0,0.1,0.0,0.0,0.0,0.1
1446035734338449966,143,1446035734336524963,robocape,36.7785009781,17.7930974874,79.3637223327,0.0,10.0,0.0,0.0,0.0,10.0,0.0,0.0,0.0,10.0,0.337422510113,0.00759000910673,-0.259658206283,1.0,0.0,0.0,0.0,1.0,0.0,0.0,0.0,1.0,-0.01916015625,-0.0455053710938,10.0087866211,0.1,0.0,0.0,0.0,0.1,0.0,0.0,0.0,0.1
1446035734375925674,144,1446035734374147891,robocape,36.8529463217,17.8589942387,79.2209532222,0.0,10.0,0.0,0.0,0.0,10.0,0.0,0.0,0.0,10.0,0.111985923838,0.00545948023466,-0.148204914663,1.0,0.0,0.0,0.0,1.0,0.0,0.0,0.0,1.0,-0.111368408203,1.08614135742,9.94771362305,0.1,0.0,0.0,0.0,0.1,0.0,0.0,0.0,0.1
1446035734404870883,145,1446035734403141975,robocape,36.7203986353,17.8443688533,79.2808206379,0.0,10.0,0.0,0.0,0.0,10.0,0.0,0.0,0.0,10.0,-0.135421741431,0.0123836990689,0.0511326929295,1.0,0.0,0.0,0.0,1.0,0.0,0.0,0.0,1.0,0.110170898438,1.49329467773,10.136920166,0.1,0.0,0.0,0.0,0.1,0.0,0.0,0.0,0.1
1446035734438377008,146,1446035734436531066,robocape,36.2713222358,17.7285944814,79.5864709963,0.0,10.0,0.0,0.0,0.0,10.0,0.0,0.0,0.0,10.0,-0.492285327501,0.015579492377,0.295877197108,1.0,0.0,0.0,0.0,1.0,0.0,0.0,0.0,1.0,-0.0778381347656,0.389190673828,10.0279467773,0.1,0.0,0.0,0.0,0.1,0.0,0.0,0.0,0.1
1446035734474844841,147,1446035734473057031,robocape,35.8189365562,17.6533267394,79.779607664,0.0,10.0,0.0,0.0,0.0,10.0,0.0,0.0,0.0,10.0,-0.457797391385,0.00639158661619,0.188684963232,1.0,0.0,0.0,0.0,1.0,0.0,0.0,0.0,1.0,-0.213156738281,-1.13523925781,10.0075891113,0.1,0.0,0.0,0.0,0.1,0.0,0.0,0.0,0.1
1446035734505058966,148,1446035734503150939,robocape,35.4899081703,17.6570800645,79.7933852426,0.0,10.0,0.0,0.0,0.0,10.0,0.0,0.0,0.0,10.0,-0.291616139364,0.0107858024148,0.00599211245268,1.0,0.0,0.0,0.0,1.0,0.0,0.0,0.0,1.0,-0.256267089844,-1.08973388672,10.0315393066,0.1,0.0,0.0,0.0,0.1,0.0,0.0,0.0,0.1
1446035734538927091,149,1446035734537107944,robocape,35.2401347824,17.6533084552,79.8048752648,0.0,10.0,0.0,0.0,0.0,10.0,0.0,0.0,0.0,10.0,-0.221708160749,0.00106526443603,0.0106526443603,1.0,0.0,0.0,0.0,1.0,0.0,0.0,0.0,1.0,0.226329345703,-1.3412109375,10.0051940918,0.1,0.0,0.0,0.0,0.1,0.0,0.0,0.0,0.1
1446035734573756383,150,1446035734572005987,robocape,35.1141615196,17.6662919039,79.7931859524,0.0,10.0,0.0,0.0,0.0,10.0,0.0,0.0,0.0,10.0,-0.10612696944,0.00945422186978,-0.018242653467,1.0,0.0,0.0,0.0,1.0,0.0,0.0,0.0,1.0,0.0407153320313,-1.80943725586,10.0686621094,0.1,0.0,0.0,0.0,0.1,0.0,0.0,0.0,0.1
1446035734604971466,151,1446035734603172063,robocape,35.133415971,17.6702262705,79.8120658825,0.0,10.0,0.0,0.0,0.0,10.0,0.0,0.0,0.0,10.0,0.0106526443603,0.0133158054504,0.00932106381528,1.0,0.0,0.0,0.0,1.0,0.0,0.0,0.0,1.0,0.0658630371094,-1.52682495117,10.0662670898,0.1,0.0,0.0,0.0,0.1,0.0,0.0,0.0,0.1
1446035734638463050,152,1446035734636720895,robocape,35.2931073396,17.6833883706,79.8261824434,0.0,10.0,0.0,0.0,0.0,10.0,0.0,0.0,0.0,10.0,0.134755951158,0.0217047628841,-0.00133158054504,1.0,0.0,0.0,0.0,1.0,0.0,0.0,0.0,1.0,0.0993933105469,-1.35917358398,10.019564209,0.1,0.0,0.0,0.0,0.1,0.0,0.0,0.0,0.1
1446035734679270133,153,1446035734671497106,robocape,35.4842785231,17.6783447316,79.8845295622,0.0,10.0,0.0,0.0,0.0,10.0,0.0,0.0,0.0,10.0,0.147805440499,0.0215716048296,0.0426105774413,1.0,0.0,0.0,0.0,1.0,0.0,0.0,0.0,1.0,-0.00119750976563,-0.983155517578,10.0099841309,0.1,0.0,0.0,0.0,0.1,0.0,0.0,0.0,0.1
1446035734705174841,154,1446035734703399896,robocape,35.7055388048,17.6772605403,79.9315295766,0.0,10.0,0.0,0.0,0.0,10.0,0.0,0.0,0.0,10.0,0.177766002763,0.0209058145571,0.0318247750264,1.0,0.0,0.0,0.0,1.0,0.0,0.0,0.0,1.0,0.0610729980469,-0.591569824219,10.1141674805,0.1,0.0,0.0,0.0,0.1,0.0,0.0,0.0,0.1
1446035734738838966,155,1446035734736829042,robocape,35.9043691426,17.6717022824,79.9752727801,0.0,10.0,0.0,0.0,0.0,10.0,0.0,0.0,0.0,10.0,0.159257033187,0.0143810698864,0.033289513626,1.0,0.0,0.0,0.0,1.0,0.0,0.0,0.0,1.0,-0.0227526855469,-0.301772460938,10.0638720703,0.1,0.0,0.0,0.0,0.1,0.0,0.0,0.0,0.1
1446035734772113300,156,1446035734770328998,robocape,36.048358145,17.669484366,80.0110952093,0.0,10.0,0.0,0.0,0.0,10.0,0.0,0.0,0.0,10.0,0.113983294655,0.0145142279409,0.0253000303558,1.0,0.0,0.0,0.0,1.0,0.0,0.0,0.0,1.0,-0.294587402344,0.228724365234,10.0303417969,0.1,0.0,0.0,0.0,0.1,0.0,0.0,0.0,0.1
1446035734806074966,157,1446035734804306983,robocape,36.0717943889,17.6723327769,80.0350419565,0.0,10.0,0.0,0.0,0.0,10.0,0.0,0.0,0.0,10.0,0.0126500151779,0.0146473859954,0.0133158054504,1.0,0.0,0.0,0.0,1.0,0.0,0.0,0.0,1.0,0.0119750976563,0.086220703125,10.0255517578,0.1,0.0,0.0,0.0,0.1,0.0,0.0,0.0,0.1
1446035734838529883,158,1446035734836587905,robocape,35.9974477345,17.6696139321,80.0611015489,0.0,10.0,0.0,0.0,0.0,10.0,0.0,0.0,0.0,10.0,-0.0733700880317,0.00932106381528,0.0193079179031,1.0,0.0,0.0,0.0,1.0,0.0,0.0,0.0,1.0,0.0610729980469,-0.228724365234,10.0662670898,0.1,0.0,0.0,0.0,0.1,0.0,0.0,0.0,0.1
1446035734871696008,159,1446035734869940042,robocape,35.8726008974,17.6647038268,80.0933173019,0.0,10.0,0.0,0.0,0.0,10.0,0.0,0.0,0.0,10.0,-0.11944277489,0.00972053797879,0.0251668723012,1.0,0.0,0.0,0.0,1.0,0.0,0.0,0.0,1.0,-0.144898681641,-0.475411376953,10.0279467773,0.1,0.0,0.0,0.0,0.1,0.0,0.0,0.0,0.1
1446035734905588008,160,1446035734903815984,robocape,35.7481686734,17.6688657708,80.110291868,0.0,10.0,0.0,0.0,0.0,10.0,0.0,0.0,0.0,10.0,-0.11411645271,0.0127831732324,0.00772316716123,1.0,0.0,0.0,0.0,1.0,0.0,0.0,0.0,1.0,-0.0622705078125,-0.70892578125,10.0650695801,0.1,0.0,0.0,0.0,0.1,0.0,0.0,0.0,0.1
1446035734939433966,161,1446035734937653064,robocape,35.6534831016,17.676038158,80.1157959119,0.0,10.0,0.0,0.0,0.0,10.0,0.0,0.0,0.0,10.0,-0.0844222065555,0.0107858024148,-0.00226368692657,1.0,0.0,0.0,0.0,1.0,0.0,0.0,0.0,1.0,0.0790356445313,-1.08135131836,10.0997973633,0.1,0.0,0.0,0.0,0.1,0.0,0.0,0.0,0.1
1446035734971798300,162,1446035734970036029,robocape,35.6302277733,17.6842355683,80.1213482183,0.0,10.0,0.0,0.0,0.0,10.0,0.0,0.0,0.0,10.0,-0.0221042370477,0.0119842249054,-0.00306263525359,1.0,0.0,0.0,0.0,1.0,0.0,0.0,0.0,1.0,-0.0502954101563,-1.22145996094,10.0626745605,0.1,0.0,0.0,0.0,0.1,0.0,0.0,0.0,0.1
1446035735008277216,163,1446035735006432056,robocape,35.6821545199,17.6910781712,80.1341286513,0.0,10.0,0.0,0.0,0.0,10.0,0.0,0.0,0.0,10.0,0.0411458388417,0.0138484376684,0.00279631914458,1.0,0.0,0.0,0.0,1.0,0.0,0.0,0.0,1.0,0.05748046875,-1.09691894531,10.0459094238,0.1,0.0,0.0,0.0,0.1,0.0,0.0,0.0,0.1
1446035735038858508,164,1446035735036708116,robocape,35.7846092349,17.697307521,80.1506328454,0.0,10.0,0.0,0.0,0.0,10.0,0.0,0.0,0.0,10.0,0.084022732392,0.0149137021044,0.00572579634367,1.0,0.0,0.0,0.0,1.0,0.0,0.0,0.0,1.0,-0.0347277832031,-0.851429443359,10.060279541,0.1,0.0,0.0,0.0,0.1,0.0,0.0,0.0,0.1
1446035735072405633,165,1446035735070653915,robocape,35.890913542,17.7035776811,80.1692624409,0.0,10.0,0.0,0.0,0.0,10.0,0.0,0.0,0.0,10.0,0.0866858934821,0.0159789665405,0.00705737688871,1.0,0.0,0.0,0.0,1.0,0.0,0.0,0.0,1.0,-0.0467028808594,-0.519719238281,10.0447119141,0.1,0.0,0.0,0.0,0.1,0.0,0.0,0.0,0.1
1446035735106236716,166,1446035735104268074,robocape,35.9506673894,17.7086525207,80.1854085997,0.0,10.0,0.0,0.0,0.0,10.0,0.0,0.0,0.0,10.0,0.0468716351854,0.0134489635049,0.00639158661619,1.0,0.0,0.0,0.0,1.0,0.0,0.0,0.0,1.0,-0.00239501953125,-0.305364990234,10.0830322266,0.1,0.0,0.0,0.0,0.1,0.0,0.0,0.0,0.1
1446035735138579675,167,1446035735136878013,robocape,35.9580844918,17.7114614179,80.2027754883,0.0,10.0,0.0,0.0,0.0,10.0,0.0,0.0,0.0,10.0,0.000798948327024,0.0114515926873,0.00905474770627,1.0,0.0,0.0,0.0,1.0,0.0,0.0,0.0,1.0,-0.0778381347656,-0.320932617188,10.0662670898,0.1,0.0,0.0,0.0,0.1,0.0,0.0,0.0,0.1
1446035735171495466,168,1446035735169749975,robocape,35.9246207041,17.7144618239,80.2222102158,0.0,10.0,0.0,0.0,0.0,10.0,0.0,0.0,0.0,10.0,-0.0355532005526,0.0126500151779,0.0102531701968,1.0,0.0,0.0,0.0,1.0,0.0,0.0,0.0,1.0,-0.0490979003906,-0.398770751953,10.0734521484,0.1,0.0,0.0,0.0,0.1,0.0,0.0,0.0,0.1
1446035735210048883,169,1446035735207602977,robocape,35.8639292362,17.7168449744,80.2414622852,0.0,10.0,0.0,0.0,0.0,10.0,0.0,0.0,0.0,10.0,-0.0592553342543,0.0118510668509,0.0106526443603,1.0,0.0,0.0,0.0,1.0,0.0,0.0,0.0,1.0,-0.0107775878906,-0.615520019531,10.0471069336,0.1,0.0,0.0,0.0,0.1,0.0,0.0,0.0,0.1
1446035735238259217,170,1446035735236500024,robocape,35.8064692938,17.7199377754,80.2587464781,0.0,10.0,0.0,0.0,0.0,10.0,0.0,0.0,0.0,10.0,-0.0557932248372,0.0117179087963,0.00878843159726,1.0,0.0,0.0,0.0,1.0,0.0,0.0,0.0,1.0,0.00718505859375,-0.845441894531,10.0542919922,0.1,0.0,0.0,0.0,0.1,0.0,0.0,0.0,0.1
1446035735271583217,171,1446035735269825935,robocape,35.7965755503,17.7240794925,80.2763235594,0.0,10.0,0.0,0.0,0.0,10.0,0.0,0.0,0.0,10.0,-0.0143810698864,0.0130494893414,0.00812264132474,1.0,0.0,0.0,0.0,1.0,0.0,0.0,0.0,1.0,0.00838256835938,-0.985550537109,10.0638720703,0.1,0.0,0.0,0.0,0.1,0.0,0.0,0.0,0.1
1446035735309483925,172,1446035735307590961,robocape,35.8332013096,17.7288140519,80.2930281192,0.0,10.0,0.0,0.0,0.0,10.0,0.0,0.0,0.0,10.0,0.0264984528463,0.0133158054504,0.00705737688871,1.0,0.0,0.0,0.0,1.0,0.0,0.0,0.0,1.0,0.0107775878906,-0.93884765625,10.0614770508,0.1,0.0,0.0,0.0,0.1,0.0,0.0,0.0,0.1
1446035735338441508,173,1446035735336568117,robocape,35.9010746706,17.7339431538,80.3104531299,0.0,10.0,0.0,0.0,0.0,10.0,0.0,0.0,0.0,10.0,0.0535295379106,0.0141147537774,0.00719053494321,1.0,0.0,0.0,0.0,1.0,0.0,0.0,0.0,1.0,-0.0179626464844,-0.771196289063,10.0351318359,0.1,0.0,0.0,0.0,0.1,0.0,0.0,0.0,0.1
1446035735371498008,174,1446035735369709968,robocape,35.9716747219,17.7391643709,80.3290393398,0.0,10.0,0.0,0.0,0.0,10.0,0.0,0.0,0.0,10.0,0.0555269087282,0.0147805440499,0.00785632521573,1.0,0.0,0.0,0.0,1.0,0.0,0.0,0.0,1.0,-0.0227526855469,-0.554447021484,10.0339343262,0.1,0.0,0.0,0.0,0.1,0.0,0.0,0.0,0.1
1446035735409475133,175,1446035735407547950,robocape,36.0080396624,17.7436028339,80.3458447558,0.0,10.0,0.0,0.0,0.0,10.0,0.0,0.0,0.0,10.0,0.0262321367373,0.0130494893414,0.00732369299772,1.0,0.0,0.0,0.0,1.0,0.0,0.0,0.0,1.0,-0.028740234375,-0.428708496094,10.0566870117,0.1,0.0,0.0,0.0,0.1,0.0,0.0,0.0,0.1
1446035735438274133,176,1446035735436440944,robocape,36.016254709,17.747391133,80.3644818417,0.0,10.0,0.0,0.0,0.0,10.0,0.0,0.0,0.0,10.0,0.00106526443603,0.0131826473959,0.00905474770627,1.0,0.0,0.0,0.0,1.0,0.0,0.0,0.0,1.0,-0.0395178222656,-0.439486083984,10.0626745605,0.1,0.0,0.0,0.0,0.1,0.0,0.0,0.0,0.1
1446035735471693592,177,1446035735469927072,robocape,35.9880627901,17.7509861172,80.3824651132,0.0,10.0,0.0,0.0,0.0,10.0,0.0,0.0,0.0,10.0,-0.0304931944814,0.0126500151779,0.00878843159726,1.0,0.0,0.0,0.0,1.0,0.0,0.0,0.0,1.0,-0.0359252929688,-0.536484375,10.0435144043,0.1,0.0,0.0,0.0,0.1,0.0,0.0,0.0,0.1
1446035735507821967,178,1446035735505865097,robocape,35.9559162948,17.7538081497,80.4000718254,0.0,10.0,0.0,0.0,0.0,10.0,0.0,0.0,0.0,10.0,-0.033822145844,0.0115847507418,0.00918790576077,1.0,0.0,0.0,0.0,1.0,0.0,0.0,0.0,1.0,-0.0107775878906,-0.744851074219,10.0495019531,0.1,0.0,0.0,0.0,0.1,0.0,0.0,0.0,0.1
1446035735538539008,179,1446035735536691904,robocape,35.9437435219,17.757404047,80.417227594,0.0,10.0,0.0,0.0,0.0,10.0,0.0,0.0,0.0,10.0,-0.0162452826495,0.0122505410144,0.00825579937925,1.0,0.0,0.0,0.0,1.0,0.0,0.0,0.0,1.0,-0.0143701171875,-0.877774658203,10.0686621094,0.1,0.0,0.0,0.0,0.1,0.0,0.0,0.0,0.1
1446035735571425717,180,1446035735569664955,robocape,35.9630600044,17.7617555288,80.4345280902,0.0,10.0,0.0,0.0,0.0,10.0,0.0,0.0,0.0,10.0,0.0111852765783,0.0131826473959,0.00772316716123,1.0,0.0,0.0,0.0,1.0,0.0,0.0,0.0,1.0,0.00598754882813,-0.898132324219,10.0674645996,0.1,0.0,0.0,0.0,0.1,0.0,0.0,0.0,0.1
1446035735608272592,181,1446035735606498956,robocape,36.0139867234,17.7669467056,80.4514821096,0.0,10.0,0.0,0.0,0.0,10.0,0.0,0.0,0.0,10.0,0.0388821519152,0.0139815957229,0.0067910607797,1.0,0.0,0.0,0.0,1.0,0.0,0.0,0.0,1.0,-0.0167651367188,-0.792751464844,10.0782421875,0.1,0.0,0.0,0.0,0.1,0.0,0.0,0.0,0.1
1446035735638166967,182,1446035735636318922,robocape,36.0698768556,17.7716419618,80.4690506273,0.0,10.0,0.0,0.0,0.0,10.0,0.0,0.0,0.0,10.0,0.0430100516048,0.0137152796139,0.00759000910673,1.0,0.0,0.0,0.0,1.0,0.0,0.0,0.0,1.0,-0.0179626464844,-0.655037841797,10.0387243652,0.1,0.0,0.0,0.0,0.1,0.0,0.0,0.0,0.1
1446035735671664842,183,1446035735669739007,robocape,36.1102786019,17.776313626,80.487220186,0.0,10.0,0.0,0.0,0.0,10.0,0.0,0.0,0.0,10.0,0.0292947719909,0.0139815957229,0.00798948327024,1.0,0.0,0.0,0.0,1.0,0.0,0.0,0.0,1.0,-0.0263452148438,-0.538879394531,10.0351318359,0.1,0.0,0.0,0.0,0.1,0.0,0.0,0.0,0.1
1446035735708306675,184,1446035735706547975,robocape,36.1232449397,17.7802380737,80.5046538462,0.0,10.0,0.0,0.0,0.0,10.0,0.0,0.0,0.0,10.0,0.00559263828917,0.0127831732324,0.00812264132474,1.0,0.0,0.0,0.0,1.0,0.0,0.0,0.0,1.0,-0.0203576660156,-0.4981640625,10.0614770508,0.1,0.0,0.0,0.0,0.1,0.0,0.0,0.0,0.1
1446035735738505467,185,1446035735736715078,robocape,36.1123618123,17.7840567108,80.523177856,0.0,10.0,0.0,0.0,0.0,10.0,0.0,0.0,0.0,10.0,-0.015579492377,0.0131826473959,0.00892158965177,1.0,0.0,0.0,0.0,1.0,0.0,0.0,0.0,1.0,-0.0347277832031,-0.565224609375,10.0878222656,0.1,0.0,0.0,0.0,0.1,0.0,0.0,0.0,0.1
1446035735771570425,186,1446035735769767999,robocape,36.0936680784,17.7874964943,80.5412156874,0.0,10.0,0.0,0.0,0.0,10.0,0.0,0.0,0.0,10.0,-0.0222373951022,0.0125168571234,0.00892158965177,1.0,0.0,0.0,0.0,1.0,0.0,0.0,0.0,1.0,-0.0203576660156,-0.705333251953,10.0518969727,0.1,0.0,0.0,0.0,0.1,0.0,0.0,0.0,0.1
1446035735807492342,187,1446035735805723905,robocape,36.0885814187,17.7913125482,80.5589146925,0.0,10.0,0.0,0.0,0.0,10.0,0.0,0.0,0.0,10.0,-0.0102531701968,0.0127831732324,0.00838895743375,1.0,0.0,0.0,0.0,1.0,0.0,0.0,0.0,1.0,-0.00119750976563,-0.798739013672,10.0423168945,0.1,0.0,0.0,0.0,0.1,0.0,0.0,0.0,0.1
1446035735838406967,188,1446035735836585044,robocape,36.1017948403,17.7957367789,80.5773912951,0.0,10.0,0.0,0.0,0.0,10.0,0.0,0.0,0.0,10.0,0.00545948023466,0.0138484376684,0.00838895743375,1.0,0.0,0.0,0.0,1.0,0.0,0.0,0.0,1.0,-0.00239501953125,-0.826281738281,10.0495019531,0.1,0.0,0.0,0.0,0.1,0.0,0.0,0.0,0.1
1446035735871497717,189,1446035735869723081,robocape,36.1399019501,17.8003571845,80.5951099332,0.0,10.0,0.0,0.0,0.0,10.0,0.0,0.0,0.0,10.0,0.0274305592278,0.0137152796139,0.00772316716123,1.0,0.0,0.0,0.0,1.0,0.0,0.0,0.0,1.0,-0.00838256835938,-0.772393798828,10.0327368164,0.1,0.0,0.0,0.0,0.1,0.0,0.0,0.0,0.1
1446035735906538217,190,1446035735904711961,robocape,36.1847702759,17.8047411166,80.612543723,0.0,10.0,0.0,0.0,0.0,10.0,0.0,0.0,0.0,10.0,0.0334226716805,0.0133158054504,0.00772316716123,1.0,0.0,0.0,0.0,1.0,0.0,0.0,0.0,1.0,-0.0167651367188,-0.653840332031,10.0662670898,0.1,0.0,0.0,0.0,0.1,0.0,0.0,0.0,0.1
1446035735939888592,191,1446035735937586069,robocape,36.2214667192,17.8089298211,80.6301523807,0.0,10.0,0.0,0.0,0.0,10.0,0.0,0.0,0.0,10.0,0.0262321367373,0.0131826473959,0.00798948327024,1.0,0.0,0.0,0.0,1.0,0.0,0.0,0.0,1.0,-0.0371228027344,-0.562829589844,10.0770446777,0.1,0.0,0.0,0.0,0.1,0.0,0.0,0.0,0.1
1446035735971557925,192,1446035735969803094,robocape,36.2400431808,17.813021904,80.6482614466,0.0,10.0,0.0,0.0,0.0,10.0,0.0,0.0,0.0,10.0,0.0102531701968,0.0133158054504,0.00838895743375,1.0,0.0,0.0,0.0,1.0,0.0,0.0,0.0,1.0,-0.0347277832031,-0.538879394531,10.0650695801,0.1,0.0,0.0,0.0,0.1,0.0,0.0,0.0,0.1
1446035736006060800,193,1446035736004266023,robocape,36.2406415083,17.8163720797,80.6656287952,0.0,10.0,0.0,0.0,0.0,10.0,0.0,0.0,0.0,10.0,-0.00519316412565,0.0121173829599,0.00852211548825,1.0,0.0,0.0,0.0,1.0,0.0,0.0,0.0,1.0,-0.0275427246094,-0.59396484375,10.0423168945,0.1,0.0,0.0,0.0,0.1,0.0,0.0,0.0,0.1
1446035736040450634,194,1446035736038125991,robocape,36.2318021469,17.819763109,80.6834569602,0.0,10.0,0.0,0.0,0.0,10.0,0.0,0.0,0.0,10.0,-0.0135821215594,0.0123836990689,0.00878843159726,1.0,0.0,0.0,0.0,1.0,0.0,0.0,0.0,1.0,-0.0227526855469,-0.683778076172,10.0267492676,0.1,0.0,0.0,0.0,0.1,0.0,0.0,0.0,0.1
1446035736071597467,195,1446035736069861888,robocape,36.2309068355,17.823326781,80.7017103904,0.0,10.0,0.0,0.0,0.0,10.0,0.0,0.0,0.0,10.0,-0.0067910607797,0.0127831732324,0.00892158965177,1.0,0.0,0.0,0.0,1.0,0.0,0.0,0.0,1.0,-0.0155676269531,-0.76640625,10.0506994629,0.1,0.0,0.0,0.0,0.1,0.0,0.0,0.0,0.1
1446035736105292259,196,1446035736103347063,robocape,36.2454717714,17.8269948359,80.7188757221,0.0,10.0,0.0,0.0,0.0,10.0,0.0,0.0,0.0,10.0,0.00705737688871,0.0123836990689,0.00812264132474,1.0,0.0,0.0,0.0,1.0,0.0,0.0,0.0,1.0,-0.01916015625,-0.799936523438,10.0447119141,0.1,0.0,0.0,0.0,0.1,0.0,0.0,0.0,0.1
1446035736140335884,197,1446035736137936115,robocape,36.2759503269,17.8313771883,80.7365583186,0.0,10.0,0.0,0.0,0.0,10.0,0.0,0.0,0.0,10.0,0.0207726565026,0.0134489635049,0.00785632521573,1.0,0.0,0.0,0.0,1.0,0.0,0.0,0.0,1.0,-0.0119750976563,-0.749641113281,10.0423168945,0.1,0.0,0.0,0.0,0.1,0.0,0.0,0.0,0.1
1446035736171438175,198,1446035736169714927,robocape,36.3136200634,17.8357883312,80.7538831949,0.0,10.0,0.0,0.0,0.0,10.0,0.0,0.0,0.0,10.0,0.0271642431188,0.0133158054504,0.00759000910673,1.0,0.0,0.0,0.0,1.0,0.0,0.0,0.0,1.0,-0.0227526855469,-0.664617919922,10.0614770508,0.1,0.0,0.0,0.0,0.1,0.0,0.0,0.0,0.1
1446035736205277384,199,1446035736203469991,robocape,36.3456988971,17.8394990832,80.771752398,0.0,10.0,0.0,0.0,0.0,10.0,0.0,0.0,0.0,10.0,0.0221042370477,0.0127831732324,0.00852211548825,1.0,0.0,0.0,0.0,1.0,0.0,0.0,0.0,1.0,-0.0227526855469,-0.599952392578,10.0590820312,0.1,0.0,0.0,0.0,0.1,0.0,0.0,0.0,0.1
1446035736242579717,200,1446035736240318059,robocape,36.3639586634,17.8430174451,80.7897929575,0.0,10.0,0.0,0.0,0.0,10.0,0.0,0.0,0.0,10.0,0.0099868540878,0.0126500151779,0.00878843159726,1.0,0.0,0.0,0.0,1.0,0.0,0.0,0.0,1.0,-0.0323327636719,-0.573607177734,10.0710571289,0.1,0.0,0.0,0.0,0.1,0.0,0.0,0.0,0.1
1446035736274314134,201,1446035736272576093,robocape,36.3644286732,17.8468167131,80.8079957245,0.0,10.0,0.0,0.0,0.0,10.0,0.0,0.0,0.0,10.0,-0.00559263828917,0.0130494893414,0.00865527354276,1.0,0.0,0.0,0.0,1.0,0.0,0.0,0.0,1.0,-0.0311352539063,-0.622705078125,10.0542919922,0.1,0.0,0.0,0.0,0.1,0.0,0.0,0.0,0.1
1446035736305027759,202,1446035736303177118,robocape,36.3612623923,17.8508229323,80.8262618708,0.0,10.0,0.0,0.0,0.0,10.0,0.0,0.0,0.0,10.0,-0.00878843159726,0.0133158054504,0.00852211548825,1.0,0.0,0.0,0.0,1.0,0.0,0.0,0.0,1.0,-0.0299377441406,-0.693358154297,10.0578845215,0.1,0.0,0.0,0.0,0.1,0.0,0.0,0.0,0.1
1446035736342167259,203,1446035736339596986,robocape,36.3636880555,17.8542425919,80.8439774294,0.0,10.0,0.0,0.0,0.0,10.0,0.0,0.0,0.0,10.0,-0.00372842552611,0.0123836990689,0.00865527354276,1.0,0.0,0.0,0.0,1.0,0.0,0.0,0.0,1.0,-0.0251477050781,-0.76640625,10.0542919922,0.1,0.0,0.0,0.0,0.1,0.0,0.0,0.0,0.1
1446035736371503675,204,1446035736369739055,robocape,36.3794102356,17.8581703041,80.8621484544,0.0,10.0,0.0,0.0,0.0,10.0,0.0,0.0,0.0,10.0,0.00772316716123,0.0131826473959,0.00852211548825,1.0,0.0,0.0,0.0,1.0,0.0,0.0,0.0,1.0,-0.00718505859375,-0.784368896484,10.0782421875,0.1,0.0,0.0,0.0,0.1,0.0,0.0,0.0,0.1
1446035736404960925,205,1446035736403165102,robocape,36.40743187,17.8622807099,80.880155377,0.0,10.0,0.0,0.0,0.0,10.0,0.0,0.0,0.0,10.0,0.0185089695761,0.0133158054504,0.00825579937925,1.0,0.0,0.0,0.0,1.0,0.0,0.0,0.0,1.0,-0.0107775878906,-0.749641113281,10.0566870117,0.1,0.0,0.0,0.0,0.1,0.0,0.0,0.0,0.1
1446035736442892259,206,1446035736441097021,robocape,36.4408369189,17.8666280418,80.8978669929,0.0,10.0,0.0,0.0,0.0,10.0,0.0,0.0,0.0,10.0,0.0233026595382,0.0134489635049,0.00785632521573,1.0,0.0,0.0,0.0,1.0,0.0,0.0,0.0,1.0,-0.0179626464844,-0.680185546875,10.0650695801,0.1,0.0,0.0,0.0,0.1,0.0,0.0,0.0,0.1
1446035736471644300,207,1446035736469783067,robocape,36.4675450464,17.870837856,80.9156181274,0.0,10.0,0.0,0.0,0.0,10.0,0.0,0.0,0.0,10.0,0.01744370514,0.0133158054504,0.00798948327024,1.0,0.0,0.0,0.0,1.0,0.0,0.0,0.0,1.0,-0.0239501953125,-0.617915039063,10.0459094238,0.1,0.0,0.0,0.0,0.1,0.0,0.0,0.0,0.1
1446035736505376634,208,1446035736503501892,robocape,36.4818858164,17.8747048706,80.9333438583,0.0,10.0,0.0,0.0,0.0,10.0,0.0,0.0,0.0,10.0,0.0066579027252,0.0129163312869,0.00825579937925,1.0,0.0,0.0,0.0,1.0,0.0,0.0,0.0,1.0,-0.009580078125,-0.603544921875,10.0495019531,0.1,0.0,0.0,0.0,0.1,0.0,0.0,0.0,0.1
1446035736541760967,209,1446035736538494110,robocape,36.48669437,17.8784184877,80.9508754385,0.0,10.0,0.0,0.0,0.0,10.0,0.0,0.0,0.0,10.0,-0.00159789665405,0.0126500151779,0.00825579937925,1.0,0.0,0.0,0.0,1.0,0.0,0.0,0.0,1.0,-0.0179626464844,-0.635877685547,10.0626745605,0.1,0.0,0.0,0.0,0.1,0.0,0.0,0.0,0.1
1446035736571549175,210,1446035736569812059,robocape,36.4876994413,17.8823017877,80.968834808,0.0,10.0,0.0,0.0,0.0,10.0,0.0,0.0,0.0,10.0,-0.00506000607115,0.0130494893414,0.00838895743375,1.0,0.0,0.0,0.0,1.0,0.0,0.0,0.0,1.0,-0.009580078125,-0.689765625,10.0530944824,0.1,0.0,0.0,0.0,0.1,0.0,0.0,0.0,0.1
1446035736605153800,211,1446035736603332042,robocape,36.4928358151,17.8863546361,80.9872220916,0.0,10.0,0.0,0.0,0.0,10.0,0.0,0.0,0.0,10.0,-0.00159789665405,0.0134489635049,0.00852211548825,1.0,0.0,0.0,0.0,1.0,0.0,0.0,0.0,1.0,-0.00718505859375,-0.742456054688,10.0387243652,0.1,0.0,0.0,0.0,0.1,0.0,0.0,0.0,0.1
1446035736642418842,212,1446035736640589952,robocape,36.5112669902,17.8899712963,81.0052537731,0.0,10.0,0.0,0.0,0.0,10.0,0.0,0.0,0.0,10.0,0.0101200121423,0.0127831732324,0.00865527354276,1.0,0.0,0.0,0.0,1.0,0.0,0.0,0.0,1.0,-0.00359252929688,-0.761616210938,10.0542919922,0.1,0.0,0.0,0.0,0.1,0.0,0.0,0.0,0.1
1446035736671319259,213,1446035736669615983,robocape,36.5382871018,17.8939941793,81.0225918399,0.0,10.0,0.0,0.0,0.0,10.0,0.0,0.0,0.0,10.0,0.0178431793035,0.0129163312869,0.00785632521573,1.0,0.0,0.0,0.0,1.0,0.0,0.0,0.0,1.0,-0.0143701171875,-0.724493408203,10.0506994629,0.1,0.0,0.0,0.0,0.1,0.0,0.0,0.0,0.1
1446035736705327967,214,1446035736703515052,robocape,36.567949766,17.8987267656,81.0404550453,0.0,10.0,0.0,0.0,0.0,10.0,0.0,0.0,0.0,10.0,0.0199737081756,0.0139815957229,0.00759000910673,1.0,0.0,0.0,0.0,1.0,0.0,0.0,0.0,1.0,-0.0347277832031,-0.668210449219,10.080637207,0.1,0.0,0.0,0.0,0.1,0.0,0.0,0.0,0.1
1446035736742004134,215,1446035736740309000,robocape,36.5925194211,17.9031715386,81.0581607232,0.0,10.0,0.0,0.0,0.0,10.0,0.0,0.0,0.0,10.0,0.015579492377,0.0135821215594,0.00772316716123,1.0,0.0,0.0,0.0,1.0,0.0,0.0,0.0,1.0,-0.0323327636719,-0.63228515625,10.0518969727,0.1,0.0,0.0,0.0,0.1,0.0,0.0,0.0,0.1
1446035736771364092,216,1446035736769706964,robocape,36.6065652711,17.9071428258,81.0758737893,0.0,10.0,0.0,0.0,0.0,10.0,0.0,0.0,0.0,10.0,0.00639158661619,0.0130494893414,0.00812264132474,1.0,0.0,0.0,0.0,1.0,0.0,0.0,0.0,1.0,-0.0227526855469,-0.619112548828,10.0471069336,0.1,0.0,0.0,0.0,0.1,0.0,0.0,0.0,0.1
1446035736804937009,217,1446035736803111076,robocape,36.6135652075,17.9110384214,81.0943152362,0.0,10.0,0.0,0.0,0.0,10.0,0.0,0.0,0.0,10.0,0.0,0.0133158054504,0.00865527354276,1.0,0.0,0.0,0.0,1.0,0.0,0.0,0.0,1.0,-0.0275427246094,-0.655037841797,10.0435144043,0.1,0.0,0.0,0.0,0.1,0.0,0.0,0.0,0.1
1446035736841395426,218,1446035736839545965,robocape,36.6178854021,17.9142759663,81.1129281835,0.0,10.0,0.0,0.0,0.0,10.0,0.0,0.0,0.0,10.0,-0.00239684498107,0.0126500151779,0.00932106381528,1.0,0.0,0.0,0.0,1.0,0.0,0.0,0.0,1.0,-0.0251477050781,-0.718505859375,10.0495019531,0.1,0.0,0.0,0.0,0.1,0.0,0.0,0.0,0.1
1446035736871682926,219,1446035736869795083,robocape,36.628300188,17.9178108973,81.131111471,0.0,10.0,0.0,0.0,0.0,10.0,0.0,0.0,0.0,10.0,0.00306263525359,0.0127831732324,0.00878843159726,1.0,0.0,0.0,0.0,1.0,0.0,0.0,0.0,1.0,-0.00718505859375,-0.736468505859,10.060279541,0.1,0.0,0.0,0.0,0.1,0.0,0.0,0.0,0.1
1446035736905126967,220,1446035736903259038,robocape,36.647452476,17.9214179269,81.1493955537,0.0,10.0,0.0,0.0,0.0,10.0,0.0,0.0,0.0,10.0,0.0106526443603,0.0129163312869,0.00878843159726,1.0,0.0,0.0,0.0,1.0,0.0,0.0,0.0,1.0,-0.01916015625,-0.719703369141,10.0782421875,0.1,0.0,0.0,0.0,0.1,0.0,0.0,0.0,0.1
1446035736939880176,221,1446035736938101053,robocape,36.6727394569,17.925562873,81.1669536031,0.0,10.0,0.0,0.0,0.0,10.0,0.0,0.0,0.0,10.0,0.0162452826495,0.0131826473959,0.00785632521573,1.0,0.0,0.0,0.0,1.0,0.0,0.0,0.0,1.0,-0.0107775878906,-0.711320800781,10.0506994629,0.1,0.0,0.0,0.0,0.1,0.0,0.0,0.0,0.1
1446035736971763967,222,1446035736969857931,robocape,36.6983350759,17.9297026915,81.1845157361,0.0,10.0,0.0,0.0,0.0,10.0,0.0,0.0,0.0,10.0,0.0165115987585,0.0131826473959,0.00785632521573,1.0,0.0,0.0,0.0,1.0,0.0,0.0,0.0,1.0,-0.009580078125,-0.661025390625,10.0483044434,0.1,0.0,0.0,0.0,0.1,0.0,0.0,0.0,0.1
1446035737005134926,223,1446035737003375053,robocape,36.7194332282,17.9341562096,81.2018821703,0.0,10.0,0.0,0.0,0.0,10.0,0.0,0.0,0.0,10.0,0.0126500151779,0.0134489635049,0.00745685105222,1.0,0.0,0.0,0.0,1.0,0.0,0.0,0.0,1.0,-0.0251477050781,-0.645457763672,10.0530944824,0.1,0.0,0.0,0.0,0.1,0.0,0.0,0.0,0.1
1446035737039171426,224,1446035737037247896,robocape,36.7323664326,17.9384199259,81.2202425425,0.0,10.0,0.0,0.0,0.0,10.0,0.0,0.0,0.0,10.0,0.00519316412565,0.0137152796139,0.00825579937925,1.0,0.0,0.0,0.0,1.0,0.0,0.0,0.0,1.0,-0.0143701171875,-0.633482666016,10.0411193848,0.1,0.0,0.0,0.0,0.1,0.0,0.0,0.0,0.1
1446035737071783801,225,1446035737069844961,robocape,36.7405729416,17.9422123521,81.238607084,0.0,10.0,0.0,0.0,0.0,10.0,0.0,0.0,0.0,10.0,0.00106526443603,0.0131826473959,0.00865527354276,1.0,0.0,0.0,0.0,1.0,0.0,0.0,0.0,1.0,-0.01916015625,-0.661025390625,10.0614770508,0.1,0.0,0.0,0.0,0.1,0.0,0.0,0.0,0.1
1446035737105036801,226,1446035737103283882,robocape,36.7481605874,17.9463021024,81.2565432384,0.0,10.0,0.0,0.0,0.0,10.0,0.0,0.0,0.0,10.0,0.00066579027252,0.0133158054504,0.00812264132474,1.0,0.0,0.0,0.0,1.0,0.0,0.0,0.0,1.0,-0.0131726074219,-0.693358154297,10.0506994629,0.1,0.0,0.0,0.0,0.1,0.0,0.0,0.0,0.1
1446035737139239051,227,1446035737137365102,robocape,36.7599355073,17.9503704497,81.2742505225,0.0,10.0,0.0,0.0,0.0,10.0,0.0,0.0,0.0,10.0,0.00439421579863,0.0131826473959,0.00798948327024,1.0,0.0,0.0,0.0,1.0,0.0,0.0,0.0,1.0,-0.0119750976563,-0.730480957031,10.0411193848,0.1,0.0,0.0,0.0,0.1,0.0,0.0,0.0,0.1
1446035737172883176,228,1446035737171108961,robocape,36.7780933584,17.9543612814,81.2926868078,0.0,10.0,0.0,0.0,0.0,10.0,0.0,0.0,0.0,10.0,0.00972053797879,0.0134489635049,0.00852211548825,1.0,0.0,0.0,0.0,1.0,0.0,0.0,0.0,1.0,-0.00239501953125,-0.718505859375,10.055489502,0.1,0.0,0.0,0.0,0.1,0.0,0.0,0.0,0.1
1446035737205605176,229,1446035737203831911,robocape,36.8004532164,17.9583660259,81.3105323139,0.0,10.0,0.0,0.0,0.0,10.0,0.0,0.0,0.0,10.0,0.0135821215594,0.0131826473959,0.00812264132474,1.0,0.0,0.0,0.0,1.0,0.0,0.0,0.0,1.0,-0.0107775878906,-0.699345703125,10.0746496582,0.1,0.0,0.0,0.0,0.1,0.0,0.0,0.0,0.1
1446035737238546967,230,1446035737236736059,robocape,36.8232975099,17.9624038507,81.3288434596,0.0,10.0,0.0,0.0,0.0,10.0,0.0,0.0,0.0,10.0,0.0138484376684,0.0134489635049,0.00838895743375,1.0,0.0,0.0,0.0,1.0,0.0,0.0,0.0,1.0,-0.0119750976563,-0.656235351563,10.0291442871,0.1,0.0,0.0,0.0,0.1,0.0,0.0,0.0,0.1
1446035737273273759,231,1446035737271490097,robocape,36.8421668179,17.9667367048,81.3467286505,0.0,10.0,0.0,0.0,0.0,10.0,0.0,0.0,0.0,10.0,0.0105194863058,0.0135821215594,0.00785632521573,1.0,0.0,0.0,0.0,1.0,0.0,0.0,0.0,1.0,-0.0155676269531,-0.650247802734,10.0518969727,0.1,0.0,0.0,0.0,0.1,0.0,0.0,0.0,0.1
1446035737304895009,232,1446035737303121089,robocape,36.8547973898,17.9706352872,81.3642539852,0.0,10.0,0.0,0.0,0.0,10.0,0.0,0.0,0.0,10.0,0.00519316412565,0.0129163312869,0.00798948327024,1.0,0.0,0.0,0.0,1.0,0.0,0.0,0.0,1.0,-0.0179626464844,-0.643062744141,10.0363293457,0.1,0.0,0.0,0.0,0.1,0.0,0.0,0.0,0.1
1446035737338298343,233,1446035737336528062,robocape,36.8645423773,17.9742318198,81.3822106652,0.0,10.0,0.0,0.0,0.0,10.0,0.0,0.0,0.0,10.0,0.00253000303558,0.0127831732324,0.00852211548825,1.0,0.0,0.0,0.0,1.0,0.0,0.0,0.0,1.0,-0.0131726074219,-0.680185546875,10.0483044434,0.1,0.0,0.0,0.0,0.1,0.0,0.0,0.0,0.1
1446035737375866343,234,1446035737373589038,robocape,36.8743386629,17.9780694313,81.4006974001,0.0,10.0,0.0,0.0,0.0,10.0,0.0,0.0,0.0,10.0,0.00239684498107,0.0133158054504,0.00865527354276,1.0,0.0,0.0,0.0,1.0,0.0,0.0,0.0,1.0,-0.0215551757813,-0.704135742188,10.0566870117,0.1,0.0,0.0,0.0,0.1,0.0,0.0,0.0,0.1
1446035737404934634,235,1446035737403189897,robocape,36.8880308729,17.9819230785,81.418592118,0.0,10.0,0.0,0.0,0.0,10.0,0.0,0.0,0.0,10.0,0.00599211245268,0.0130494893414,0.00825579937925,1.0,0.0,0.0,0.0,1.0,0.0,0.0,0.0,1.0,-0.0107775878906,-0.7280859375,10.0303417969,0.1,0.0,0.0,0.0,0.1,0.0,0.0,0.0,0.1
1446035737438422676,236,1446035737436662912,robocape,36.9064326448,17.986203787,81.4360277435,0.0,10.0,0.0,0.0,0.0,10.0,0.0,0.0,0.0,10.0,0.0102531701968,0.0133158054504,0.00759000910673,1.0,0.0,0.0,0.0,1.0,0.0,0.0,0.0,1.0,-0.0179626464844,-0.710123291016,10.0423168945,0.1,0.0,0.0,0.0,0.1,0.0,0.0,0.0,0.1
1446035737476782884,237,1446035737474222898,robocape,36.9282325239,17.9905550736,81.4535660617,0.0,10.0,0.0,0.0,0.0,10.0,0.0,0.0,0.0,10.0,0.0131826473959,0.0134489635049,0.00759000910673,1.0,0.0,0.0,0.0,1.0,0.0,0.0,0.0,1.0,-0.0347277832031,-0.681383056641,10.0351318359,0.1,0.0,0.0,0.0,0.1,0.0,0.0,0.0,0.1
1446035737504885676,238,1446035737503125905,robocape,36.951085518,17.9943581865,81.4726589115,0.0,10.0,0.0,0.0,0.0,10.0,0.0,0.0,0.0,10.0,0.0135821215594,0.0135821215594,0.00905474770627,1.0,0.0,0.0,0.0,1.0,0.0,0.0,0.0,1.0,-0.0107775878906,-0.711320800781,10.0471069336,0.1,0.0,0.0,0.0,0.1,0.0,0.0,0.0,0.1
1446035737538180884,239,1446035737536448001,robocape,37.0135435686,18.0172748343,81.4444370205,0.0,10.0,0.0,0.0,0.0,10.0,0.0,0.0,0.0,10.0,0.0639158661619,0.0123836990689,-0.0378168874791,1.0,0.0,0.0,0.0,1.0,0.0,0.0,0.0,1.0,0.0143701171875,-0.839454345703,10.0147741699,0.1,0.0,0.0,0.0,0.1,0.0,0.0,0.0,0.1
1446035737575519343,240,1446035737573290109,robocape,37.0873223801,18.0724280073,81.3343282588,0.0,10.0,0.0,0.0,0.0,10.0,0.0,0.0,0.0,10.0,0.101200121423,0.00932106381528,-0.1182443524,1.0,0.0,0.0,0.0,1.0,0.0,0.0,0.0,1.0,0.0682580566406,-0.392783203125,10.0327368164,0.1,0.0,0.0,0.0,0.1,0.0,0.0,0.0,0.1
1446035737605922343,241,1446035737604149103,robocape,37.0888696772,18.1198006705,81.2387436612,0.0,10.0,0.0,0.0,0.0,10.0,0.0,0.0,0.0,10.0,0.0334226716805,0.00759000910673,-0.102265385859,1.0,0.0,0.0,0.0,1.0,0.0,0.0,0.0,1.0,-0.202379150391,0.336500244141,10.0111816406,0.1,0.0,0.0,0.0,0.1,0.0,0.0,0.0,0.1
1446035737638386009,242,1446035737636539936,robocape,36.9177744388,18.1263952996,81.233082969,0.0,10.0,0.0,0.0,0.0,10.0,0.0,0.0,0.0,10.0,-0.147405966336,0.00479368996214,-0.00932106381528,1.0,0.0,0.0,0.0,1.0,0.0,0.0,0.0,1.0,-0.0622705078125,0.152083740234,10.0590820312,0.1,0.0,0.0,0.0,0.1,0.0,0.0,0.0,0.1
1446035737678909426,243,1446035737675712108,robocape,36.6607763676,18.1225270825,81.2591188139,0.0,10.0,0.0,0.0,0.0,10.0,0.0,0.0,0.0,10.0,-0.233026595382,0.00812264132474,0.0201068662301,1.0,0.0,0.0,0.0,1.0,0.0,0.0,0.0,1.0,-0.0946032714844,-0.70892578125,10.0710571289,0.1,0.0,0.0,0.0,0.1,0.0,0.0,0.0,0.1
1446035737704951676,244,1446035737703258991,robocape,36.432581199,18.1184812728,81.2743711347,0.0,10.0,0.0,0.0,0.0,10.0,0.0,0.0,0.0,10.0,-0.204264455609,0.00266316109008,0.0133158054504,1.0,0.0,0.0,0.0,1.0,0.0,0.0,0.0,1.0,0.160466308594,-1.31726074219,10.003996582,0.1,0.0,0.0,0.0,0.1,0.0,0.0,0.0,0.1
1446035737738361801,245,1446035737736582040,robocape,36.3065889946,18.1219237644,81.2780545973,0.0,10.0,0.0,0.0,0.0,10.0,0.0,0.0,0.0,10.0,-0.111186975511,0.00572579634367,-0.000532632218016,1.0,0.0,0.0,0.0,1.0,0.0,0.0,0.0,1.0,0.0802331542969,-1.54598510742,10.075847168,0.1,0.0,0.0,0.0,0.1,0.0,0.0,0.0,0.1
1446035737775175759,246,1446035737773180961,robocape,36.293457799,18.1254256409,81.2986292999,0.0,10.0,0.0,0.0,0.0,10.0,0.0,0.0,0.0,10.0,-0.0183758115215,0.0138484376684,0.0103863282513,1.0,0.0,0.0,0.0,1.0,0.0,0.0,0.0,1.0,0.101788330078,-1.62741577148,10.0542919922,0.1,0.0,0.0,0.0,0.1,0.0,0.0,0.0,0.1
1446035737805022218,247,1446035737803164005,robocape,36.3906156608,18.1249542489,81.3405059715,0.0,10.0,0.0,0.0,0.0,10.0,0.0,0.0,0.0,10.0,0.0707069269416,0.0194410759576,0.0275637172823,1.0,0.0,0.0,0.0,1.0,0.0,0.0,0.0,1.0,0.0754431152344,-1.19750976562,10.0686621094,0.1,0.0,0.0,0.0,0.1,0.0,0.0,0.0,0.1
1446035737838211009,248,1446035737836447954,robocape,36.5115061376,18.1049938522,81.4341471797,0.0,10.0,0.0,0.0,0.0,10.0,0.0,0.0,0.0,10.0,0.0740358783042,0.0218379209386,0.0776311457758,1.0,0.0,0.0,0.0,1.0,0.0,0.0,0.0,1.0,-0.0107775878906,-1.26217529297,10.0590820312,0.1,0.0,0.0,0.0,0.1,0.0,0.0,0.0,0.1
1446035737874965884,249,1446035737873250961,robocape,36.6918297823,18.0789094908,81.5471896694,0.0,10.0,0.0,0.0,0.0,10.0,0.0,0.0,0.0,10.0,0.11944277489,0.0243679239742,0.0953411670248,1.0,0.0,0.0,0.0,1.0,0.0,0.0,0.0,1.0,0.0946032714844,-1.17236206055,9.99561401367,0.1,0.0,0.0,0.0,0.1,0.0,0.0,0.0,0.1
1446035737904987718,250,1446035737903156042,robocape,36.9319823378,18.0704444516,81.6119177487,0.0,10.0,0.0,0.0,0.0,10.0,0.0,0.0,0.0,10.0,0.187886014905,0.0215716048296,0.0490021640575,1.0,0.0,0.0,0.0,1.0,0.0,0.0,0.0,1.0,0.0119750976563,-0.834664306641,10.0902172852,0.1,0.0,0.0,0.0,0.1,0.0,0.0,0.0,0.1
1446035737938195426,251,1446035737936438083,robocape,37.1363423181,18.0598337618,81.6681096751,0.0,10.0,0.0,0.0,0.0,10.0,0.0,0.0,0.0,10.0,0.159523349296,0.0151800182135,0.0452737385313,1.0,0.0,0.0,0.0,1.0,0.0,0.0,0.0,1.0,-0.0419128417969,-0.298179931641,10.019564209,0.1,0.0,0.0,0.0,0.1,0.0,0.0,0.0,0.1
1446035737974106259,252,1446035737972340106,robocape,37.2564409224,18.05133148,81.7182831711,0.0,10.0,0.0,0.0,0.0,10.0,0.0,0.0,0.0,10.0,0.0880174740271,0.0147805440499,0.0395479421877,1.0,0.0,0.0,0.0,1.0,0.0,0.0,0.0,1.0,-0.159268798828,-0.415535888672,10.0291442871,0.1,0.0,0.0,0.0,0.1,0.0,0.0,0.0,0.1
1446035738005319718,253,1446035738003264904,robocape,37.330432742,18.0484760952,81.7584575989,0.0,10.0,0.0,0.0,0.0,10.0,0.0,0.0,0.0,10.0,0.0511326929295,0.016378440704,0.0282295075548,1.0,0.0,0.0,0.0,1.0,0.0,0.0,0.0,1.0,-0.0790356445313,-0.138911132813,10.0483044434,0.1,0.0,0.0,0.0,0.1,0.0,0.0,0.0,0.1
1446035738038372676,254,1446035738036474943,robocape,37.3345901361,18.0514680791,81.777664695,0.0,10.0,0.0,0.0,0.0,10.0,0.0,0.0,0.0,10.0,-0.00279631914458,0.0127831732324,0.00972053797879,1.0,0.0,0.0,0.0,1.0,0.0,0.0,0.0,1.0,0.0167651367188,-0.277822265625,10.0135766602,0.1,0.0,0.0,0.0,0.1,0.0,0.0,0.0,0.1
1446035738074392468,255,1446035738072617053,robocape,37.2582882268,18.0484020515,81.8055115304,0.0,10.0,0.0,0.0,0.0,10.0,0.0,0.0,0.0,10.0,-0.0759000910673,0.0101200121423,0.0205063403936,1.0,0.0,0.0,0.0,1.0,0.0,0.0,0.0,1.0,-0.0981958007813,-0.293389892578,10.0363293457,0.1,0.0,0.0,0.0,0.1,0.0,0.0,0.0,0.1
1446035738104938385,256,1446035738103163003,robocape,37.1382570645,18.0522172596,81.8203858851,0.0,10.0,0.0,0.0,0.0,10.0,0.0,0.0,0.0,10.0,-0.109722236911,0.0115847507418,0.00625842856169,1.0,0.0,0.0,0.0,1.0,0.0,0.0,0.0,1.0,-0.106578369141,-0.463436279297,10.0435144043,0.1,0.0,0.0,0.0,0.1,0.0,0.0,0.0,0.1
1446035738138195885,257,1446035738136470079,robocape,37.0037951489,18.0571736241,81.8334355952,0.0,10.0,0.0,0.0,0.0,10.0,0.0,0.0,0.0,10.0,-0.121706461817,0.0119842249054,0.00412789968962,1.0,0.0,0.0,0.0,1.0,0.0,0.0,0.0,1.0,0.0526904296875,-0.780776367188,10.0734521484,0.1,0.0,0.0,0.0,0.1,0.0,0.0,0.0,0.1
1446035738173274968,258,1446035738171526908,robocape,36.9051373243,18.0637379246,81.8363937621,0.0,10.0,0.0,0.0,0.0,10.0,0.0,0.0,0.0,10.0,-0.0870853676456,0.00892158965177,-0.00372842552611,1.0,0.0,0.0,0.0,1.0,0.0,0.0,0.0,1.0,0.0443078613281,-1.25618774414,10.0267492676,0.1,0.0,0.0,0.0,0.1,0.0,0.0,0.0,0.1
1446035738205044760,259,1446035738203351974,robocape,36.8848206356,18.0660269525,81.8574132449,0.0,10.0,0.0,0.0,0.0,10.0,0.0,0.0,0.0,10.0,-0.0247673981377,0.0127831732324,0.0115847507418,1.0,0.0,0.0,0.0,1.0,0.0,0.0,0.0,1.0,-0.0502954101563,-1.27055786133,10.0267492676,0.1,0.0,0.0,0.0,0.1,0.0,0.0,0.0,0.1
1446035738238359510,260,1446035738236525058,robocape,36.9528067353,18.0716302972,81.8783082244,0.0,10.0,0.0,0.0,0.0,10.0,0.0,0.0,0.0,10.0,0.0523311154201,0.0165115987585,0.00865527354276,1.0,0.0,0.0,0.0,1.0,0.0,0.0,0.0,1.0,0.0646655273438,-1.16637451172,10.0315393066,0.1,0.0,0.0,0.0,0.1,0.0,0.0,0.0,0.1
1446035738272669551,261,1446035738270903110,robocape,37.088812112,18.0818143845,81.8875771324,0.0,10.0,0.0,0.0,0.0,10.0,0.0,0.0,0.0,10.0,0.115581191309,0.016112124595,-0.00279631914458,1.0,0.0,0.0,0.0,1.0,0.0,0.0,0.0,1.0,-0.0107775878906,-0.971180419922,10.0878222656,0.1,0.0,0.0,0.0,0.1,0.0,0.0,0.0,0.1
1446035738305389010,262,1446035738303550958,robocape,37.2172565792,18.0860065382,81.9081407566,0.0,10.0,0.0,0.0,0.0,10.0,0.0,0.0,0.0,10.0,0.105194863058,0.0147805440499,0.00958737992429,1.0,0.0,0.0,0.0,1.0,0.0,0.0,0.0,1.0,-0.0826281738281,-0.687370605469,10.0578845215,0.1,0.0,0.0,0.0,0.1,0.0,0.0,0.0,0.1
1446035738338265426,263,1446035738336388111,robocape,37.2943718413,18.0893050701,81.9277495528,0.0,10.0,0.0,0.0,0.0,10.0,0.0,0.0,0.0,10.0,0.0607200728538,0.0133158054504,0.00972053797879,1.0,0.0,0.0,0.0,1.0,0.0,0.0,0.0,1.0,-0.009580078125,-0.261057128906,10.0087866211,0.1,0.0,0.0,0.0,0.1,0.0,0.0,0.0,0.1
1446035738371960843,264,1446035738370194911,robocape,37.2980470909,18.0927785662,81.9436631973,0.0,10.0,0.0,0.0,0.0,10.0,0.0,0.0,0.0,10.0,-0.00213052887206,0.0117179087963,0.00719053494321,1.0,0.0,0.0,0.0,1.0,0.0,0.0,0.0,1.0,-0.0922082519531,-0.279019775391,10.0255517578,0.1,0.0,0.0,0.0,0.1,0.0,0.0,0.0,0.1
1446035738407153051,265,1446035738405036926,robocape,37.2451189719,18.0950676031,81.9631633798,0.0,10.0,0.0,0.0,0.0,10.0,0.0,0.0,0.0,10.0,-0.0527305895836,0.0121173829599,0.0105194863058,1.0,0.0,0.0,0.0,1.0,0.0,0.0,0.0,1.0,-0.102985839844,-0.490979003906,10.0483044434,0.1,0.0,0.0,0.0,0.1,0.0,0.0,0.0,0.1
1446035738441657010,266,1446035738439804077,robocape,37.165464799,18.0979680342,81.9818061193,0.0,10.0,0.0,0.0,0.0,10.0,0.0,0.0,0.0,10.0,-0.0757669330128,0.0123836990689,0.00945422186978,1.0,0.0,0.0,0.0,1.0,0.0,0.0,0.0,1.0,0.0550854492188,-0.810714111328,10.0686621094,0.1,0.0,0.0,0.0,0.1,0.0,0.0,0.0,0.1
1446035738472250051,267,1446035738470491886,robocape,37.1108249743,18.1018067074,81.9952607135,0.0,10.0,0.0,0.0,0.0,10.0,0.0,0.0,0.0,10.0,-0.0521979573656,0.0109189604693,0.00532632218016,1.0,0.0,0.0,0.0,1.0,0.0,0.0,0.0,1.0,0.0490979003906,-1.04422851562,10.0710571289,0.1,0.0,0.0,0.0,0.1,0.0,0.0,0.0,0.1
1446035738507381176,268,1446035738504988908,robocape,37.1171863025,18.1067616377,82.0102093796,0.0,10.0,0.0,0.0,0.0,10.0,0.0,0.0,0.0,10.0,0.000532632218016,0.0129163312869,0.00532632218016,1.0,0.0,0.0,0.0,1.0,0.0,0.0,0.0,1.0,-0.0227526855469,-1.18673217773,10.055489502,0.1,0.0,0.0,0.0,0.1,0.0,0.0,0.0,0.1
1446035738538292301,269,1446035738536446094,robocape,37.1804207601,18.1127851014,82.0270252799,0.0,10.0,0.0,0.0,0.0,10.0,0.0,0.0,0.0,10.0,0.0495347962755,0.0150468601589,0.00559263828917,1.0,0.0,0.0,0.0,1.0,0.0,0.0,0.0,1.0,0.0514929199219,-1.05380859375,10.0662670898,0.1,0.0,0.0,0.0,0.1,0.0,0.0,0.0,0.1
1446035738571921635,270,1446035738570169925,robocape,37.2727949265,18.1185868376,82.0446151305,0.0,10.0,0.0,0.0,0.0,10.0,0.0,0.0,0.0,10.0,0.0747016685767,0.0151800182135,0.00625842856169,1.0,0.0,0.0,0.0,1.0,0.0,0.0,0.0,1.0,-0.0455053710938,-0.809516601563,10.0315393066,0.1,0.0,0.0,0.0,0.1,0.0,0.0,0.0,0.1
1446035738609694010,271,1446035738607352018,robocape,37.3548489847,18.1235121797,82.0631358909,0.0,10.0,0.0,0.0,0.0,10.0,0.0,0.0,0.0,10.0,0.0653806047614,0.0146473859954,0.00759000910673,1.0,0.0,0.0,0.0,1.0,0.0,0.0,0.0,1.0,-0.0215551757813,-0.523311767578,10.0542919922,0.1,0.0,0.0,0.0,0.1,0.0,0.0,0.0,0.1
1446035738638287843,272,1446035738636513948,robocape,37.3945199914,18.1273166221,82.0801613101,0.0,10.0,0.0,0.0,0.0,10.0,0.0,0.0,0.0,10.0,0.0288952978274,0.0126500151779,0.00759000910673,1.0,0.0,0.0,0.0,1.0,0.0,0.0,0.0,1.0,-0.0311352539063,-0.392783203125,10.0722546387,0.1,0.0,0.0,0.0,0.1,0.0,0.0,0.0,0.1
1446035738671589260,273,1446035738669836044,robocape,37.3761952559,18.1305713863,82.098734397,0.0,10.0,0.0,0.0,0.0,10.0,0.0,0.0,0.0,10.0,-0.0222373951022,0.0127831732324,0.00905474770627,1.0,0.0,0.0,0.0,1.0,0.0,0.0,0.0,1.0,-0.076640625,-0.474213867188,10.055489502,0.1,0.0,0.0,0.0,0.1,0.0,0.0,0.0,0.1
1446035738710390635,274,1446035738708070039,robocape,37.3312069813,18.1339054128,82.1174053476,0.0,10.0,0.0,0.0,0.0,10.0,0.0,0.0,0.0,10.0,-0.0455400546404,0.0129163312869,0.00905474770627,1.0,0.0,0.0,0.0,1.0,0.0,0.0,0.0,1.0,-0.0383203125,-0.689765625,10.039921875,0.1,0.0,0.0,0.0,0.1,0.0,0.0,0.0,0.1
1446035738738177010,275,1446035738736502885,robocape,37.2898146493,18.1370110042,82.1347132224,0.0,10.0,0.0,0.0,0.0,10.0,0.0,0.0,0.0,10.0,-0.0419447871687,0.0119842249054,0.00838895743375,1.0,0.0,0.0,0.0,1.0,0.0,0.0,0.0,1.0,0.00598754882813,-0.9196875,10.0578845215,0.1,0.0,0.0,0.0,0.1,0.0,0.0,0.0,0.1
1446035738771896427,276,1446035738770112037,robocape,37.2810921899,18.1407929499,82.151267306,0.0,10.0,0.0,0.0,0.0,10.0,0.0,0.0,0.0,10.0,-0.0131826473959,0.0123836990689,0.00732369299772,1.0,0.0,0.0,0.0,1.0,0.0,0.0,0.0,1.0,-0.01916015625,-1.04901855469,10.0854272461,0.1,0.0,0.0,0.0,0.1,0.0,0.0,0.0,0.1
1446035738810149760,277,1446035738808020114,robocape,37.3161447407,18.1452553011,82.1689575129,0.0,10.0,0.0,0.0,0.0,10.0,0.0,0.0,0.0,10.0,0.0246342400832,0.0137152796139,0.00745685105222,1.0,0.0,0.0,0.0,1.0,0.0,0.0,0.0,1.0,0.0167651367188,-1.00710571289,10.0734521484,0.1,0.0,0.0,0.0,0.1,0.0,0.0,0.0,0.1
1446035738838147635,278,1446035738836426019,robocape,37.3813444347,18.1504469467,82.1876590862,0.0,10.0,0.0,0.0,0.0,10.0,0.0,0.0,0.0,10.0,0.0506000607115,0.0150468601589,0.00745685105222,1.0,0.0,0.0,0.0,1.0,0.0,0.0,0.0,1.0,-0.00718505859375,-0.857416992188,10.0506994629,0.1,0.0,0.0,0.0,0.1,0.0,0.0,0.0,0.1
1446035738871599260,279,1446035738869827032,robocape,37.445008065,18.1551655135,82.2055373093,0.0,10.0,0.0,0.0,0.0,10.0,0.0,0.0,0.0,10.0,0.0495347962755,0.0141147537774,0.00732369299772,1.0,0.0,0.0,0.0,1.0,0.0,0.0,0.0,1.0,-0.0131726074219,-0.639470214844,10.0471069336,0.1,0.0,0.0,0.0,0.1,0.0,0.0,0.0,0.1
1446035738908969177,280,1446035738906955003,robocape,37.4787877089,18.1590242066,82.2226800771,0.0,10.0,0.0,0.0,0.0,10.0,0.0,0.0,0.0,10.0,0.0237021337017,0.0127831732324,0.00759000910673,1.0,0.0,0.0,0.0,1.0,0.0,0.0,0.0,1.0,-0.0299377441406,-0.506546630859,10.0530944824,0.1,0.0,0.0,0.0,0.1,0.0,0.0,0.0,0.1
1446035738938036677,281,1446035738936301946,robocape,37.4775870414,18.1622971632,82.24090637,0.0,10.0,0.0,0.0,0.0,10.0,0.0,0.0,0.0,10.0,-0.00719053494321,0.0126500151779,0.00878843159726,1.0,0.0,0.0,0.0,1.0,0.0,0.0,0.0,1.0,-0.047900390625,-0.561632080078,10.0686621094,0.1,0.0,0.0,0.0,0.1,0.0,0.0,0.0,0.1
1446035738972177052,282,1446035738970273971,robocape,37.4519967964,18.165142154,82.2595872425,0.0,10.0,0.0,0.0,0.0,10.0,0.0,0.0,0.0,10.0,-0.0286289817184,0.0123836990689,0.00945422186978,1.0,0.0,0.0,0.0,1.0,0.0,0.0,0.0,1.0,-0.009580078125,-0.683778076172,10.0746496582,0.1,0.0,0.0,0.0,0.1,0.0,0.0,0.0,0.1
1446035739007943177,283,1446035739005992889,robocape,37.423823757,18.168244042,82.2763186358,0.0,10.0,0.0,0.0,0.0,10.0,0.0,0.0,0.0,10.0,-0.0302268783724,0.0117179087963,0.00798948327024,1.0,0.0,0.0,0.0,1.0,0.0,0.0,0.0,1.0,-0.0119750976563,-0.835861816406,10.0435144043,0.1,0.0,0.0,0.0,0.1,0.0,0.0,0.0,0.1
1446035739038038385,284,1446035739036334037,robocape,37.4178685817,18.1726321491,82.296049225,0.0,10.0,0.0,0.0,0.0,10.0,0.0,0.0,0.0,10.0,-0.0118510668509,0.0146473859954,0.00878843159726,1.0,0.0,0.0,0.0,1.0,0.0,0.0,0.0,1.0,-0.0263452148438,-0.93884765625,9.97765136719,0.1,0.0,0.0,0.0,0.1,0.0,0.0,0.0,0.1
1446035739071749968,285,1446035739069974899,robocape,37.4418358634,18.1757471654,82.3138404978,0.0,10.0,0.0,0.0,0.0,10.0,0.0,0.0,0.0,10.0,0.0149137021044,0.0122505410144,0.00865527354276,1.0,0.0,0.0,0.0,1.0,0.0,0.0,0.0,1.0,0.0754431152344,-0.887354736328,10.0626745605,0.1,0.0,0.0,0.0,0.1,0.0,0.0,0.0,0.1
1446035739108141052,286,1446035739106355905,robocape,37.4635084114,18.1808640358,82.363970224,0.0,10.0,0.0,0.0,0.0,10.0,0.0,0.0,0.0,10.0,0.00199737081756,0.0303600364269,0.0275637172823,1.0,0.0,0.0,0.0,1.0,0.0,0.0,0.0,1.0,-0.874182128906,-0.486188964844,10.1896105957,0.1,0.0,0.0,0.0,0.1,0.0,0.0,0.0,0.1
1446035739138117177,287,1446035739136348962,robocape,37.4436107256,18.1942712206,82.3724880144,0.0,10.0,0.0,0.0,0.0,10.0,0.0,0.0,0.0,10.0,-0.0202400242846,0.0194410759576,-0.00625842856169,1.0,0.0,0.0,0.0,1.0,0.0,0.0,0.0,1.0,-1.456171875,-0.376018066406,10.1261425781,0.1,0.0,0.0,0.0,0.1,0.0,0.0,0.0,0.1
1446035739171706177,288,1446035739169733047,robocape,37.3958936871,18.2232146243,82.4041027754,0.0,10.0,0.0,0.0,0.0,10.0,0.0,0.0,0.0,10.0,-0.0523311154201,0.0484695318394,-0.00506000607115,1.0,0.0,0.0,0.0,1.0,0.0,0.0,0.0,1.0,-1.34001342773,-0.495769042969,10.285411377,0.1,0.0,0.0,0.0,0.1,0.0,0.0,0.0,0.1
1446035739207646468,289,1446035739205862998,robocape,37.2819276541,18.2470427414,82.4186910774,0.0,10.0,0.0,0.0,0.0,10.0,0.0,0.0,0.0,10.0,-0.104395914731,0.034354778062,-0.0114515926873,1.0,0.0,0.0,0.0,1.0,0.0,0.0,0.0,1.0,-0.259859619141,-0.518521728516,10.136920166,0.1,0.0,0.0,0.0,0.1,0.0,0.0,0.0,0.1
1446035739238478468,290,1446035739236516952,robocape,37.1279977456,18.2650361728,82.4285844928,0.0,10.0,0.0,0.0,0.0,10.0,0.0,0.0,0.0,10.0,-0.137685428357,0.0254331884103,-0.00932106381528,1.0,0.0,0.0,0.0,1.0,0.0,0.0,0.0,1.0,-0.864602050781,-0.535286865234,9.84233276367,0.1,0.0,0.0,0.0,0.1,0.0,0.0,0.0,0.1
1446035739271786510,291,1446035739269967079,robocape,36.8994077964,18.272902669,82.4379619109,0.0,10.0,0.0,0.0,0.0,10.0,0.0,0.0,0.0,10.0,-0.202666558955,0.0135821215594,-0.000798948327024,1.0,0.0,0.0,0.0,1.0,0.0,0.0,0.0,1.0,-0.383203125,-0.488583984375,10.2662512207,0.1,0.0,0.0,0.0,0.1,0.0,0.0,0.0,0.1
1446035739306546677,292,1446035739304579019,robocape,36.6072276823,18.2838463526,82.436066642,0.0,10.0,0.0,0.0,0.0,10.0,0.0,0.0,0.0,10.0,-0.254331884103,0.0117179087963,-0.0106526443603,1.0,0.0,0.0,0.0,1.0,0.0,0.0,0.0,1.0,-0.336500244141,-0.471818847656,10.3680395508,0.1,0.0,0.0,0.0,0.1,0.0,0.0,0.0,0.1
1446035739338196927,293,1446035739336448907,robocape,36.1961637519,18.2860943489,82.527751744,0.0,10.0,0.0,0.0,0.0,10.0,0.0,0.0,0.0,10.0,-0.389886783588,0.0463390029674,0.0573911214912,1.0,0.0,0.0,0.0,1.0,0.0,0.0,0.0,1.0,-1.65016845703,0.370030517578,9.83395019531,0.1,0.0,0.0,0.0,0.1,0.0,0.0,0.0,0.1
1446035739371602010,294,1446035739369826078,robocape,35.6051733995,18.275202966,82.5081004408,0.0,10.0,0.0,0.0,0.0,10.0,0.0,0.0,0.0,10.0,-0.509063242369,-0.0219710789932,-0.00359526747161,1.0,0.0,0.0,0.0,1.0,0.0,0.0,0.0,1.0,-1.89446044922,0.201181640625,10.2746337891,0.1,0.0,0.0,0.0,0.1,0.0,0.0,0.0,0.1
1446035739406057760,295,1446035739404217958,robocape,34.7216154746,18.2186100684,82.5074720527,0.0,10.0,0.0,0.0,0.0,10.0,0.0,0.0,0.0,10.0,-0.770851977523,-0.066845343361,0.0464721610219,1.0,0.0,0.0,0.0,1.0,0.0,0.0,0.0,1.0,-0.705333251953,0.246687011719,9.94172607422,0.1,0.0,0.0,0.0,0.1,0.0,0.0,0.0,0.1
1446035739439543760,296,1446035739437504053,robocape,33.5716237269,18.2055873878,82.5968979439,0.0,10.0,0.0,0.0,0.0,10.0,0.0,0.0,0.0,10.0,-1.03383913517,0.0249005561922,0.0700411366691,1.0,0.0,0.0,0.0,1.0,0.0,0.0,0.0,1.0,-0.452658691406,0.261057128906,9.75491455078,0.1,0.0,0.0,0.0,0.1,0.0,0.0,0.0,0.1
1446035739471628344,297,1446035739469871044,robocape,31.9772277653,18.2215786507,82.7347692662,0.0,10.0,0.0,0.0,0.0,10.0,0.0,0.0,0.0,10.0,-1.43810698864,0.0793622004844,0.0808269390839,1.0,0.0,0.0,0.0,1.0,0.0,0.0,0.0,1.0,-0.438288574219,0.477806396484,8.95497802734,0.1,0.0,0.0,0.0,0.1,0.0,0.0,0.0,0.1
1446035739505518219,298,1446035739503756046,robocape,29.8576948447,18.1544497804,82.8734727238,0.0,10.0,0.0,0.0,0.0,10.0,0.0,0.0,0.0,10.0,-1.89670332835,-0.0253000303558,0.145275437464,1.0,0.0,0.0,0.0,1.0,0.0,0.0,0.0,1.0,-0.627495117188,0.858614501953,8.58375,0.1,0.0,0.0,0.0,0.1,0.0,0.0,0.0,0.1
1446035739539950177,299,1446035739538033008,robocape,27.1631119575,18.0759074586,83.0531158619,0.0,10.0,0.0,0.0,0.0,10.0,0.0,0.0,0.0,10.0,-2.41229131539,-0.0296942461544,0.180828638016,1.0,0.0,0.0,0.0,1.0,0.0,0.0,0.0,1.0,-4.52778442383,1.15439941406,8.72266113281,0.1,0.0,0.0,0.0,0.1,0.0,0.0,0.0,0.1
1446035739575306344,300,1446035739573548078,robocape,23.4896756446,17.9735312848,83.2943410245,0.0,10.0,0.0,0.0,0.0,10.0,0.0,0.0,0.0,10.0,-3.28740604959,-0.0487358479485,0.238352917562,1.0,0.0,0.0,0.0,1.0,0.0,0.0,0.0,1.0,-5.2151550293,0.858614501953,8.17899169922,0.1,0.0,0.0,0.0,0.1,0.0,0.0,0.0,0.1
1446035739605029552,301,1446035739603271961,robocape,19.0960460348,17.9248746892,83.6376926589,0.0,10.0,0.0,0.0,0.0,10.0,0.0,0.0,0.0,10.0,-3.95026684491,0.0362189908251,0.283493498039,1.0,0.0,0.0,0.0,1.0,0.0,0.0,0.0,1.0,-3.85598144531,1.6896862793,6.22585327148,0.1,0.0,0.0,0.0,0.1,0.0,0.0,0.0,0.1
1446035739640311302,302,1446035739638206005,robocape,13.7044966395,18.0431842456,82.6031975187,0.0,10.0,0.0,0.0,0.0,10.0,0.0,0.0,0.0,10.0,-4.36332312999,-0.0741690363587,-0.848882597463,1.0,0.0,0.0,0.0,1.0,0.0,0.0,0.0,1.0,-1.7974621582,-19.62,6.66893188477,0.1,0.0,0.0,0.0,0.1,0.0,0.0,0.0,0.1
1446035739672035677,303,1446035739670270919,robocape,12.1398929988,18.7286571369,80.5266183115,0.0,10.0,0.0,0.0,0.0,10.0,0.0,0.0,0.0,10.0,-0.654471837887,0.593884923088,-1.84676905792,1.0,0.0,0.0,0.0,1.0,0.0,0.0,0.0,1.0,6.06658447266,-19.62,8.09157348633,0.1,0.0,0.0,0.0,0.1,0.0,0.0,0.0,0.1
1446035739705378302,304,1446035739703604936,robocape,12.5054186373,19.7589367631,79.4809955526,0.0,10.0,0.0,0.0,0.0,10.0,0.0,0.0,0.0,10.0,0.698147679764,1.33357791586,-1.14103136904,1.0,0.0,0.0,0.0,1.0,0.0,0.0,0.0,1.0,2.77223510742,-12.7498864746,3.61408447266,0.1,0.0,0.0,0.0,0.1,0.0,0.0,0.0,0.1
1446035739740163094,305,1446035739738491058,robocape,13.2794213265,20.5659148757,78.795616152,0.0,10.0,0.0,0.0,0.0,10.0,0.0,0.0,0.0,10.0,0.939163758416,1.11027185845,-0.804940439476,1.0,0.0,0.0,0.0,1.0,0.0,0.0,0.0,1.0,-1.90284301758,1.45377685547,10.9679919434,0.1,0.0,0.0,0.0,0.1,0.0,0.0,0.0,0.1
1446035739771708802,306,1446035739769936084,robocape,13.3692253281,20.9177446347,78.2991548075,0.0,10.0,0.0,0.0,0.0,10.0,0.0,0.0,0.0,10.0,0.27643612115,0.461126342747,-0.505201658788,1.0,0.0,0.0,0.0,1.0,0.0,0.0,0.0,1.0,-2.70277954102,-0.523311767578,7.15512084961,0.1,0.0,0.0,0.0,0.1,0.0,0.0,0.0,0.1
1446035739805037885,307,1446035739803128957,robocape,12.4465519295,21.1867507141,77.663404131,0.0,10.0,0.0,0.0,0.0,10.0,0.0,0.0,0.0,10.0,-0.546613813739,0.317848276101,-0.576441217948,1.0,0.0,0.0,0.0,1.0,0.0,0.0,0.0,1.0,0.155676269531,-6.49170043945,9.08790161133,0.1,0.0,0.0,0.0,0.1,0.0,0.0,0.0,0.1
1446035739841605760,308,1446035739839694976,robocape,11.4984827977,21.4771292993,76.8163571432,0.0,10.0,0.0,0.0,0.0,10.0,0.0,0.0,0.0,10.0,-0.476838993179,0.334493032914,-0.736230883352,1.0,0.0,0.0,0.0,1.0,0.0,0.0,0.0,1.0,-0.398770751953,-6.21866821289,8.67236572266,0.1,0.0,0.0,0.0,0.1,0.0,0.0,0.0,0.1
1446035739871757344,309,1446035739870006084,robocape,10.9878908852,21.8990532523,76.2914241538,0.0,10.0,0.0,0.0,0.0,10.0,0.0,0.0,0.0,10.0,-0.223572373512,0.618119689007,-0.531433795525,1.0,0.0,0.0,0.0,1.0,0.0,0.0,0.0,1.0,4.53975952148,-9.28549072266,8.11791870117,0.1,0.0,0.0,0.0,0.1,0.0,0.0,0.0,0.1
1446035739905058052,310,1446035739903165102,robocape,10.3853433442,22.1928916315,75.6138830251,0.0,10.0,0.0,0.0,0.0,10.0,0.0,0.0,0.0,10.0,-0.233026595382,0.399474163512,-0.598145980832,1.0,0.0,0.0,0.0,1.0,0.0,0.0,0.0,1.0,3.00215698242,-6.02107910156,6.85334838867,0.1,0.0,0.0,0.0,0.1,0.0,0.0,0.0,0.1
1446035739942728885,311,1446035739940339088,robocape,10.0579497061,22.5455054361,74.839709288,0.0,10.0,0.0,0.0,0.0,10.0,0.0,0.0,0.0,10.0,0.0553937506736,0.501206917153,-0.682967661551,1.0,0.0,0.0,0.0,1.0,0.0,0.0,0.0,1.0,2.26688598633,-9.75371704102,7.63172973633,0.1,0.0,0.0,0.0,0.1,0.0,0.0,0.0,0.1
1446035739971715510,312,1446035739969870090,robocape,10.0672349821,22.7902808329,74.4839500549,0.0,10.0,0.0,0.0,0.0,10.0,0.0,0.0,0.0,10.0,0.16764599062,0.380166245609,-0.337955142331,1.0,0.0,0.0,0.0,1.0,0.0,0.0,0.0,1.0,2.34232910156,-5.10618164063,7.44491821289,0.1,0.0,0.0,0.0,0.1,0.0,0.0,0.0,0.1
1446035740005106594,313,1446035740003246068,robocape,9.91013726503,23.0713294952,73.9712851907,0.0,10.0,0.0,0.0,0.0,10.0,0.0,0.0,0.0,10.0,0.0964064314609,0.430899464375,-0.463390029674,1.0,0.0,0.0,0.0,1.0,0.0,0.0,0.0,1.0,-1.61903320313,-4.11464355469,7.13356567383,0.1,0.0,0.0,0.0,0.1,0.0,0.0,0.0,0.1
1446035740043180302,314,1446035740040914058,robocape,8.55250742302,23.4377276222,72.2752995081,0.0,10.0,0.0,0.0,0.0,10.0,0.0,0.0,0.0,10.0,-0.397476792694,0.460194236366,-1.34463003438,1.0,0.0,0.0,0.0,1.0,0.0,0.0,0.0,1.0,6.6294140625,-9.79562988281,6.81862060547,0.1,0.0,0.0,0.0,0.1,0.0,0.0,0.0,0.1
1446035740071561427,315,1446035740069771051,robocape,5.78395614481,24.0599467224,70.4920638543,0.0,10.0,0.0,0.0,0.0,10.0,0.0,0.0,0.0,10.0,-1.56420766626,0.998818566834,-1.43850646281,1.0,0.0,0.0,0.0,1.0,0.0,0.0,0.0,1.0,2.28724365234,-5.00199829102,3.11831542969,0.1,0.0,0.0,0.0,0.1,0.0,0.0,0.0,0.1
1446035740104999677,316,1446035740103239059,robocape,5.29465672755,24.9396739093,69.2539084068,0.0,10.0,0.0,0.0,0.0,10.0,0.0,0.0,0.0,10.0,0.190549175995,1.63744459624,-1.04981810171,1.0,0.0,0.0,0.0,1.0,0.0,0.0,0.0,1.0,3.60330688477,-14.3030566406,12.0589233398,0.1,0.0,0.0,0.0,0.1,0.0,0.0,0.0,0.1
1446035740145230052,317,1446035740143420934,robocape,6.08372632649,25.0729614931,69.2449075835,0.0,10.0,0.0,0.0,0.0,10.0,0.0,0.0,0.0,10.0,0.693220831748,0.268712953989,-0.0331563555715,1.0,0.0,0.0,0.0,1.0,0.0,0.0,0.0,1.0,0.0131726074219,-9.69982910156,6.71323974609,0.1,0.0,0.0,0.0,0.1,0.0,0.0,0.0,0.1
1446035740171554761,318,1446035740169791936,robocape,6.60494852839,25.1976831553,69.271946482,0.0,10.0,0.0,0.0,0.0,10.0,0.0,0.0,0.0,10.0,0.440886318463,0.255929780757,-0.00932106381528,1.0,0.0,0.0,0.0,1.0,0.0,0.0,0.0,1.0,-0.979562988281,-3.73024291992,6.84736083984,0.1,0.0,0.0,0.0,0.1,0.0,0.0,0.0,0.1
1446035740204973177,319,1446035740203279972,robocape,6.69222117945,25.2528175516,69.4571012926,0.0,10.0,0.0,0.0,0.0,10.0,0.0,0.0,0.0,10.0,-0.0199737081756,0.127831732324,0.115847507418,1.0,0.0,0.0,0.0,1.0,0.0,0.0,0.0,1.0,-0.758023681641,-2.94826904297,7.7826159668,0.1,0.0,0.0,0.0,0.1,0.0,0.0,0.0,0.1
1446035740242166136,320,1446035740240463972,robocape,6.41651254166,25.3115898613,69.4578969811,0.0,10.0,0.0,0.0,0.0,10.0,0.0,0.0,0.0,10.0,-0.241016078652,0.120774355435,-0.0133158054504,1.0,0.0,0.0,0.0,1.0,0.0,0.0,0.0,1.0,0.203576660156,-6.33362915039,8.26401489258,0.1,0.0,0.0,0.0,0.1,0.0,0.0,0.0,0.1
1446035740271708511,321,1446035740269917011,robocape,6.33247115716,25.3743705842,69.3590953382,0.0,10.0,0.0,0.0,0.0,10.0,0.0,0.0,0.0,10.0,-0.0217047628841,0.121839619871,-0.0830906260105,1.0,0.0,0.0,0.0,1.0,0.0,0.0,0.0,1.0,-0.690963134766,-7.41258544922,7.06171508789,0.1,0.0,0.0,0.0,0.1,0.0,0.0,0.0,0.1
1446035740305147969,322,1446035740303100109,robocape,6.3003675387,25.4243288712,69.2673023832,0.0,10.0,0.0,0.0,0.0,10.0,0.0,0.0,0.0,10.0,0.0201068662301,0.0964064314609,-0.0751011427402,1.0,0.0,0.0,0.0,1.0,0.0,0.0,0.0,1.0,0.350870361328,-8.047265625,7.67603759766,0.1,0.0,0.0,0.0,0.1,0.0,0.0,0.0,0.1
1446035740341116802,323,1446035740339354991,robocape,6.23984289684,25.4752510659,68.9388765101,0.0,10.0,0.0,0.0,0.0,10.0,0.0,0.0,0.0,10.0,0.119842249054,0.0808269390839,-0.239018707835,1.0,0.0,0.0,0.0,1.0,0.0,0.0,0.0,1.0,0.338895263672,-6.01748657227,7.81015869141,0.1,0.0,0.0,0.0,0.1,0.0,0.0,0.0,0.1
1446035740371788469,324,1446035740369900941,robocape,6.11504871135,25.5335170456,68.6421998205,0.0,10.0,0.0,0.0,0.0,10.0,0.0,0.0,0.0,10.0,0.0475374254579,0.09933590866,-0.218246051332,1.0,0.0,0.0,0.0,1.0,0.0,0.0,0.0,1.0,1.78788208008,-7.59340942383,8.59572509766,0.1,0.0,0.0,0.0,0.1,0.0,0.0,0.0,0.1
1446035740404987594,325,1446035740403117895,robocape,5.80186886949,25.6333707227,67.9428900604,0.0,10.0,0.0,0.0,0.0,10.0,0.0,0.0,0.0,10.0,0.0970722217334,0.159123875132,-0.504269552407,1.0,0.0,0.0,0.0,1.0,0.0,0.0,0.0,1.0,1.88368286133,-5.99832641602,6.50247802734,0.1,0.0,0.0,0.0,0.1,0.0,0.0,0.0,0.1
1446035740440287594,326,1446035740438395023,robocape,5.55675444864,25.7571823824,67.4592923148,0.0,10.0,0.0,0.0,0.0,10.0,0.0,0.0,0.0,10.0,0.0438089999318,0.228765537638,-0.358594640779,1.0,0.0,0.0,0.0,1.0,0.0,0.0,0.0,1.0,0.791553955078,-8.90228759766,8.85079467773,0.1,0.0,0.0,0.0,0.1,0.0,0.0,0.0,0.1
1446035740476327302,327,1446035740474451065,robocape,5.58024741756,25.858654628,67.209464858,0.0,10.0,0.0,0.0,0.0,10.0,0.0,0.0,0.0,10.0,0.154463343225,0.199603923701,-0.192280230704,1.0,0.0,0.0,0.0,1.0,0.0,0.0,0.0,1.0,0.625100097656,-5.47381713867,6.96591430664,0.1,0.0,0.0,0.0,0.1,0.0,0.0,0.0,0.1
1446035740504850719,328,1446035740503076076,robocape,5.20267559749,25.9250791888,66.9147056833,0.0,10.0,0.0,0.0,0.0,10.0,0.0,0.0,0.0,10.0,-0.170708625874,0.123437516525,-0.214917099969,1.0,0.0,0.0,0.0,1.0,0.0,0.0,0.0,1.0,1.54359008789,-5.83187255859,7.90715698242,0.1,0.0,0.0,0.0,0.1,0.0,0.0,0.0,0.1
1446035740538934969,329,1446035740537225961,robocape,5.18011243891,25.9956828399,66.8118013322,0.0,10.0,0.0,0.0,0.0,10.0,0.0,0.0,0.0,10.0,0.0359526747161,0.145808069682,-0.084022732392,1.0,0.0,0.0,0.0,1.0,0.0,0.0,0.0,1.0,-0.0335302734375,-4.55293212891,8.19216430664,0.1,0.0,0.0,0.0,0.1,0.0,0.0,0.0,0.1
1446035740572038927,330,1446035740569921970,robocape,5.00525987376,26.077372614,66.4964524327,0.0,10.0,0.0,0.0,0.0,10.0,0.0,0.0,0.0,10.0,0.0186421276306,0.157925452642,-0.230363434292,1.0,0.0,0.0,0.0,1.0,0.0,0.0,0.0,1.0,0.546064453125,-6.81502807617,7.39701782227,0.1,0.0,0.0,0.0,0.1,0.0,0.0,0.0,0.1
1446035740604875386,331,1446035740603127002,robocape,4.83696780322,26.1315303174,66.3804180516,0.0,10.0,0.0,0.0,0.0,10.0,0.0,0.0,0.0,10.0,-0.0836232582285,0.111186975511,-0.0889495804086,1.0,0.0,0.0,0.0,1.0,0.0,0.0,0.0,1.0,0.469423828125,-7.0090246582,8.46759155273,0.1,0.0,0.0,0.0,0.1,0.0,0.0,0.0,0.1
1446035740638917719,332,1446035740637082099,robocape,4.64241669789,26.2125882922,66.1535455901,0.0,10.0,0.0,0.0,0.0,10.0,0.0,0.0,0.0,10.0,-0.0456732126949,0.164716513421,-0.168444938948,1.0,0.0,0.0,0.0,1.0,0.0,0.0,0.0,1.0,-0.0730480957031,-5.83426757812,7.68921020508,0.1,0.0,0.0,0.0,0.1,0.0,0.0,0.0,0.1
1446035740679333469,333,1446035740671461105,robocape,3.99701569317,26.2813056653,65.5603934288,0.0,10.0,0.0,0.0,0.0,10.0,0.0,0.0,0.0,10.0,-0.237420811181,0.121040671544,-0.412523652853,1.0,0.0,0.0,0.0,1.0,0.0,0.0,0.0,1.0,1.78309204102,-9.83155517578,7.95625488281,0.1,0.0,0.0,0.0,0.1,0.0,0.0,0.0,0.1
1446035740705070719,334,1446035740703329086,robocape,3.59677171014,26.4817774289,65.0682497283,0.0,10.0,0.0,0.0,0.0,10.0,0.0,0.0,0.0,10.0,-0.0769653555033,0.424108403595,-0.36099148576,1.0,0.0,0.0,0.0,1.0,0.0,0.0,0.0,1.0,-0.410745849609,-9.41961181641,9.20166503906,0.1,0.0,0.0,0.0,0.1,0.0,0.0,0.0,0.1
1446035740738626011,335,1446035740736877918,robocape,3.76498711673,26.5189972414,65.0482642186,0.0,10.0,0.0,0.0,0.0,10.0,0.0,0.0,0.0,10.0,0.157925452642,0.082691151847,-0.0187752856851,1.0,0.0,0.0,0.0,1.0,0.0,0.0,0.0,1.0,-0.384400634766,-5.07624389648,6.83538574219,0.1,0.0,0.0,0.0,0.1,0.0,0.0,0.0,0.1
1446035740773771469,336,1446035740771986961,robocape,3.49854147526,26.5697448819,64.7149805808,0.0,10.0,0.0,0.0,0.0,10.0,0.0,0.0,0.0,10.0,-0.0464721610219,0.100134856987,-0.230363434292,1.0,0.0,0.0,0.0,1.0,0.0,0.0,0.0,1.0,0.93884765625,-7.26050170898,7.99936523438,0.1,0.0,0.0,0.0,0.1,0.0,0.0,0.0,0.1
1446035740804995761,337,1446035740803221940,robocape,3.24732779425,26.5920095386,64.6889462083,0.0,10.0,0.0,0.0,0.0,10.0,0.0,0.0,0.0,10.0,-0.204663929773,0.0492684801665,-0.0203731823391,1.0,0.0,0.0,0.0,1.0,0.0,0.0,0.0,1.0,0.913699951172,-7.12997314453,7.74309814453,0.1,0.0,0.0,0.0,0.1,0.0,0.0,0.0,0.1
1446035740838500303,338,1446035740836744070,robocape,3.19771118067,26.6523024968,64.4689471572,0.0,10.0,0.0,0.0,0.0,10.0,0.0,0.0,0.0,10.0,0.0800279907569,0.128364364542,-0.154596501279,1.0,0.0,0.0,0.0,1.0,0.0,0.0,0.0,1.0,-0.481398925781,-7.04494995117,7.58263183594,0.1,0.0,0.0,0.0,0.1,0.0,0.0,0.0,0.1
1446035740872869261,339,1446035740871094942,robocape,3.19135537353,26.7008249981,64.3716884872,0.0,10.0,0.0,0.0,0.0,10.0,0.0,0.0,0.0,10.0,0.049135322112,0.106792759712,-0.0709732430506,1.0,0.0,0.0,0.0,1.0,0.0,0.0,0.0,1.0,-0.475411376953,-6.39350463867,7.99816772461,0.1,0.0,0.0,0.0,0.1,0.0,0.0,0.0,0.1
1446035740904911469,340,1446035740903098106,robocape,2.91761296901,26.742621007,64.1101479572,0.0,10.0,0.0,0.0,0.0,10.0,0.0,0.0,0.0,10.0,-0.0914795834442,0.0861532612641,-0.179097583308,1.0,0.0,0.0,0.0,1.0,0.0,0.0,0.0,1.0,-1.46215942383,-4.42719360352,8.0819934082,0.1,0.0,0.0,0.0,0.1,0.0,0.0,0.0,0.1
1446035740938342719,341,1446035740936604022,robocape,2.5300276407,26.8761798797,63.657952783,0.0,10.0,0.0,0.0,0.0,10.0,0.0,0.0,0.0,10.0,-0.0821585196289,0.292814561854,-0.314519324738,1.0,0.0,0.0,0.0,1.0,0.0,0.0,0.0,1.0,-0.868194580078,-7.79698608398,9.55014038086,0.1,0.0,0.0,0.0,0.1,0.0,0.0,0.0,0.1
1446035740978180719,342,1446035740974339962,robocape,1.66106695282,26.9911066527,62.9790003096,0.0,10.0,0.0,0.0,0.0,10.0,0.0,0.0,0.0,10.0,-0.371244655957,0.250470300522,-0.458063707494,1.0,0.0,0.0,0.0,1.0,0.0,0.0,0.0,1.0,-0.265847167969,-4.65352294922,6.30967895508,0.1,0.0,0.0,0.0,0.1,0.0,0.0,0.0,0.1
1446035741005073178,343,1446035741003201007,robocape,0.874767481496,27.250580378,62.0071609491,0.0,10.0,0.0,0.0,0.0,10.0,0.0,0.0,0.0,10.0,-0.126500151779,0.597480190559,-0.650610254306,1.0,0.0,0.0,0.0,1.0,0.0,0.0,0.0,1.0,-0.00838256835938,-10.8709936523,8.8483996582,0.1,0.0,0.0,0.0,0.1,0.0,0.0,0.0,0.1
1446035741038330011,344,1446035741036607980,robocape,0.327351511078,27.5030228878,60.938524153,0.0,10.0,0.0,0.0,0.0,10.0,0.0,0.0,0.0,10.0,0.146207543845,0.600010193595,-0.699479260309,1.0,0.0,0.0,0.0,1.0,0.0,0.0,0.0,1.0,-6.30967895508,-6.35398681641,8.53465209961,0.1,0.0,0.0,0.0,0.1,0.0,0.0,0.0,0.1
1446035741074787386,345,1446035741072706937,robocape,-0.443387381108,27.8120727748,59.6443789649,0.0,10.0,0.0,0.0,0.0,10.0,0.0,0.0,0.0,10.0,0.0944090606433,0.761530913708,-0.828243099015,1.0,0.0,0.0,0.0,1.0,0.0,0.0,0.0,1.0,-2.35669921875,-5.26305541992,7.74908569336,0.1,0.0,0.0,0.0,0.1,0.0,0.0,0.0,0.1
1446035741105024053,346,1446035741103156089,robocape,-1.62264165307,28.1069929677,58.0028614699,0.0,10.0,0.0,0.0,0.0,10.0,0.0,0.0,0.0,10.0,-0.0404800485692,0.763128810362,-1.02318649081,1.0,0.0,0.0,0.0,1.0,0.0,0.0,0.0,1.0,-1.57831787109,-5.39837402344,8.19096679688,0.1,0.0,0.0,0.0,0.1,0.0,0.0,0.0,0.1
1446035741138342719,347,1446035741136641979,robocape,-3.05558556811,28.4532958606,56.230813539,0.0,10.0,0.0,0.0,0.0,10.0,0.0,0.0,0.0,10.0,-0.16498282953,0.943291658106,-1.06393285549,1.0,0.0,0.0,0.0,1.0,0.0,0.0,0.0,1.0,-0.573607177734,-6.83179321289,10.6422692871,0.1,0.0,0.0,0.0,0.1,0.0,0.0,0.0,0.1
1446035741176391469,348,1446035741173710107,robocape,-3.91977003581,28.748838898,54.8532982822,0.0,10.0,0.0,0.0,0.0,10.0,0.0,0.0,0.0,10.0,0.103996440568,0.839694691702,-0.792290424299,1.0,0.0,0.0,0.0,1.0,0.0,0.0,0.0,1.0,-2.78540771484,-3.05604492188,9.05197631836,0.1,0.0,0.0,0.0,0.1,0.0,0.0,0.0,0.1
1446035741204890386,349,1446035741203226089,robocape,-5.15249266955,28.9414133776,53.4781702678,0.0,10.0,0.0,0.0,0.0,10.0,0.0,0.0,0.0,10.0,-0.20812603919,0.590555971725,-0.784833573246,1.0,0.0,0.0,0.0,1.0,0.0,0.0,0.0,1.0,-1.03225341797,-3.26441162109,8.92384277344,0.1,0.0,0.0,0.0,0.1,0.0,0.0,0.0,0.1
1446035741238114928,350,1446035741236438989,robocape,-6.95429711954,29.1498989541,51.4675849977,0.0,10.0,0.0,0.0,0.0,10.0,0.0,0.0,0.0,10.0,-0.290417716873,0.704406108326,-1.13011240858,1.0,0.0,0.0,0.0,1.0,0.0,0.0,0.0,1.0,-1.6441809082,-7.10841796875,8.38256835938,0.1,0.0,0.0,0.0,0.1,0.0,0.0,0.0,0.1
1446035741275812678,351,1446035741273884057,robocape,-8.67004059468,29.4247408541,49.1796965383,0.0,10.0,0.0,0.0,0.0,10.0,0.0,0.0,0.0,10.0,-0.0199737081756,0.960335889083,-1.22412199505,1.0,0.0,0.0,0.0,1.0,0.0,0.0,0.0,1.0,-0.652642822266,-6.00790649414,9.05556884766,0.1,0.0,0.0,0.0,0.1,0.0,0.0,0.0,0.1
1446035741304814678,352,1446035741303107023,robocape,-10.3559096679,29.6775167704,47.0672394266,0.0,10.0,0.0,0.0,0.0,10.0,0.0,0.0,0.0,10.0,-0.0884169481906,0.933304804018,-1.07991182203,1.0,0.0,0.0,0.0,1.0,0.0,0.0,0.0,1.0,-0.553249511719,-2.72912475586,7.27966186523,0.1,0.0,0.0,0.0,0.1,0.0,0.0,0.0,0.1
1446035741338474594,353,1446035741336735010,robocape,-12.6975188486,29.919264717,44.6075810048,0.0,10.0,0.0,0.0,0.0,10.0,0.0,0.0,0.0,10.0,-0.412656810908,0.992959612436,-1.22212462424,1.0,0.0,0.0,0.0,1.0,0.0,0.0,0.0,1.0,0.44068359375,-3.90627685547,9.886640625,0.1,0.0,0.0,0.0,0.1,0.0,0.0,0.0,0.1
1446035741376047219,354,1446035741374247074,robocape,-15.0718651799,30.1787015339,41.8677836965,0.0,10.0,0.0,0.0,0.0,10.0,0.0,0.0,0.0,10.0,-0.231828172891,1.14715663955,-1.28923628371,1.0,0.0,0.0,0.0,1.0,0.0,0.0,0.0,1.0,0.450263671875,-5.441484375,7.3958203125,0.1,0.0,0.0,0.0,0.1,0.0,0.0,0.0,0.1
1446035741404968261,355,1446035741403270959,robocape,-17.4575163585,30.3856382732,39.0136139046,0.0,10.0,0.0,0.0,0.0,10.0,0.0,0.0,0.0,10.0,-0.141813328047,1.0703244421,-1.31520210434,1.0,0.0,0.0,0.0,1.0,0.0,0.0,0.0,1.0,0.859812011719,-5.27862304688,7.94068725586,0.1,0.0,0.0,0.0,0.1,0.0,0.0,0.0,0.1
1446035741438262261,356,1446035741436511993,robocape,-19.8641587572,30.5375072677,35.9534609389,0.0,10.0,0.0,0.0,0.0,10.0,0.0,0.0,0.0,10.0,-0.000932106381528,0.996554879908,-1.40601589751,1.0,0.0,0.0,0.0,1.0,0.0,0.0,0.0,1.0,1.91122558594,-4.40204589844,7.97661254883,0.1,0.0,0.0,0.0,0.1,0.0,0.0,0.0,0.1
1446035741475675219,357,1446035741473905086,robocape,-22.3980774773,30.7012667582,32.922521423,0.0,10.0,0.0,0.0,0.0,10.0,0.0,0.0,0.0,10.0,-0.115181717146,1.08870025362,-1.30907683383,1.0,0.0,0.0,0.0,1.0,0.0,0.0,0.0,1.0,-2.60817626953,-3.61767700195,10.632689209,0.1,0.0,0.0,0.0,0.1,0.0,0.0,0.0,0.1
1446035741505155303,358,1446035741503279924,robocape,-25.1763424195,30.8129710752,29.6303466469,0.0,10.0,0.0,0.0,0.0,10.0,0.0,0.0,0.0,10.0,-0.131693315904,1.0436928312,-1.43224803424,1.0,0.0,0.0,0.0,1.0,0.0,0.0,0.0,1.0,-2.42615478516,-5.07504638672,11.1356433105,0.1,0.0,0.0,0.0,0.1,0.0,0.0,0.0,0.1
1446035741538751470,359,1446035741536878108,robocape,-28.0259710179,30.8887887148,26.5660340623,0.0,10.0,0.0,0.0,0.0,10.0,0.0,0.0,0.0,10.0,-0.342482516184,0.947419557796,-1.31280525935,1.0,0.0,0.0,0.0,1.0,0.0,0.0,0.0,1.0,-0.335302734375,-2.99137939453,10.7308850098,0.1,0.0,0.0,0.0,0.1,0.0,0.0,0.0,0.1
1446035741574121470,360,1446035741572407007,robocape,-31.1186430952,30.8426257405,23.3979695581,0.0,10.0,0.0,0.0,0.0,10.0,0.0,0.0,0.0,10.0,-0.480301102596,0.676709232989,-1.51307497333,1.0,0.0,0.0,0.0,1.0,0.0,0.0,0.0,1.0,0.380808105469,-5.31095581055,7.740703125,0.1,0.0,0.0,0.0,0.1,0.0,0.0,0.0,0.1
1446035741604939761,361,1446035741603202104,robocape,-34.6677007154,30.9231399703,19.2504034143,0.0,10.0,0.0,0.0,0.0,10.0,0.0,0.0,0.0,10.0,-0.189883385723,1.40335273642,-1.66074725577,1.0,0.0,0.0,0.0,1.0,0.0,0.0,0.0,1.0,-4.56849975586,-8.15983154297,11.9283947754,0.1,0.0,0.0,0.0,0.1,0.0,0.0,0.0,0.1
1446035741638622553,362,1446035741636930942,robocape,-37.7074777686,30.9346077669,15.437753892,0.0,10.0,0.0,0.0,0.0,10.0,0.0,0.0,0.0,10.0,0.0259658206283,1.19749038415,-1.56980030455,1.0,0.0,0.0,0.0,1.0,0.0,0.0,0.0,1.0,-2.92431884766,-4.28109741211,10.0016015625,0.1,0.0,0.0,0.0,0.1,0.0,0.0,0.0,0.1
1446035741678848011,363,1446035741671257019,robocape,-40.9596871501,30.9123000591,11.691490223,0.0,10.0,0.0,0.0,0.0,10.0,0.0,0.0,0.0,10.0,-0.206794458645,1.17045929909,-1.54982659637,1.0,0.0,0.0,0.0,1.0,0.0,0.0,0.0,1.0,-1.2298425293,-0.637075195313,10.7931555176,0.1,0.0,0.0,0.0,0.1,0.0,0.0,0.0,0.1
1446035741705009886,364,1446035741703310012,robocape,-44.5028270059,30.8385084431,7.72088060279,0.0,10.0,0.0,0.0,0.0,10.0,0.0,0.0,0.0,10.0,-0.309858792831,1.21599935373,-1.68937623749,1.0,0.0,0.0,0.0,1.0,0.0,0.0,0.0,1.0,2.29921875,-1.2609777832,9.62318847656,0.1,0.0,0.0,0.0,0.1,0.0,0.0,0.0,0.1
1446035741738213303,365,1446035741736493110,robocape,-48.1856830614,30.739396051,3.6028818917,0.0,10.0,0.0,0.0,0.0,10.0,0.0,0.0,0.0,10.0,-0.341150935639,1.3305152806,-1.73411734381,1.0,0.0,0.0,0.0,1.0,0.0,0.0,0.0,1.0,-4.60442504883,-6.50726806641,11.302097168,0.1,0.0,0.0,0.0,0.1,0.0,0.0,0.0,0.1
1446035741772040470,366,1446035741770169973,robocape,-51.8005653653,30.5853804037,-0.744035929101,0.0,10.0,0.0,0.0,0.0,10.0,0.0,0.0,0.0,10.0,-0.141547011938,1.43557698561,-1.8757975138,1.0,0.0,0.0,0.0,1.0,0.0,0.0,0.0,1.0,-0.690963134766,-3.70270019531,9.37650146484,0.1,0.0,0.0,0.0,0.1,0.0,0.0,0.0,0.1
1446035741805320303,367,1446035741803355932,robocape,-55.0071669483,30.3999500918,-4.43838515006,0.0,10.0,0.0,0.0,0.0,10.0,0.0,0.0,0.0,10.0,-0.259791364337,1.23490779747,-1.67153305819,1.0,0.0,0.0,0.0,1.0,0.0,0.0,0.0,1.0,0.0838256835938,-1.43940673828,10.1512902832,0.1,0.0,0.0,0.0,0.1,0.0,0.0,0.0,0.1
1446035741838282136,368,1446035741836514949,robocape,-58.4090429269,30.1330784384,-8.48383144579,0.0,10.0,0.0,0.0,0.0,10.0,0.0,0.0,0.0,10.0,-0.220776054368,1.38764008599,-1.9261312584,1.0,0.0,0.0,0.0,1.0,0.0,0.0,0.0,1.0,3.49433349609,-3.67036743164,11.7200280762,0.1,0.0,0.0,0.0,0.1,0.0,0.0,0.0,0.1
1446035741871775470,369,1446035741869947910,robocape,-61.4564908271,29.9371501517,-12.056053571,0.0,10.0,0.0,0.0,0.0,10.0,0.0,0.0,0.0,10.0,-0.261788735155,1.42092959961,-1.52319498547,1.0,0.0,0.0,0.0,1.0,0.0,0.0,0.0,1.0,2.62853393555,0.839454345703,7.71675292969,0.1,0.0,0.0,0.0,0.1,0.0,0.0,0.0,0.1
1446035741906646303,370,1446035741904812097,robocape,-64.0850000686,29.6962092584,-14.83362482,0.0,10.0,0.0,0.0,0.0,10.0,0.0,0.0,0.0,10.0,-0.450473698387,1.06686233269,-1.3674000617,1.0,0.0,0.0,0.0,1.0,0.0,0.0,0.0,1.0,1.86572021484,-1.97948364258,9.09867919922,0.1,0.0,0.0,0.0,0.1,0.0,0.0,0.0,0.1
1446035741938361886,371,1446035741936603069,robocape,-66.8347007517,29.3675237579,-17.9598649154,0.0,10.0,0.0,0.0,0.0,10.0,0.0,0.0,0.0,10.0,-0.354999373308,1.24369622907,-1.62625931966,1.0,0.0,0.0,0.0,1.0,0.0,0.0,0.0,1.0,5.6294934082,-12.7606640625,9.57409057617,0.1,0.0,0.0,0.0,0.1,0.0,0.0,0.0,0.1
1446035741971568678,372,1446035741969811916,robocape,-68.8938192089,29.0685287448,-20.943658093,0.0,10.0,0.0,0.0,0.0,10.0,0.0,0.0,0.0,10.0,0.122904884307,1.31027525632,-1.44849331689,1.0,0.0,0.0,0.0,1.0,0.0,0.0,0.0,1.0,0.401165771484,-4.01165771484,10.8111181641,0.1,0.0,0.0,0.0,0.1,0.0,0.0,0.0,0.1
1446035742007001928,373,1446035742005235910,robocape,-70.5992337683,28.7710600764,-22.9384513252,0.0,10.0,0.0,0.0,0.0,10.0,0.0,0.0,0.0,10.0,-0.224637637948,0.839827849756,-1.18324247232,1.0,0.0,0.0,0.0,1.0,0.0,0.0,0.0,1.0,6.17196533203,-0.749641113281,9.89741821289,0.1,0.0,0.0,0.0,0.1,0.0,0.0,0.0,0.1
1446035742040759095,374,1446035742038891077,robocape,-72.4371741318,28.4108282918,-24.7788828826,0.0,10.0,0.0,0.0,0.0,10.0,0.0,0.0,0.0,10.0,-0.457930549439,0.76246302009,-1.26912941748,1.0,0.0,0.0,0.0,1.0,0.0,0.0,0.0,1.0,-0.511336669922,-2.99856445313,7.88560180664,0.1,0.0,0.0,0.0,0.1,0.0,0.0,0.0,0.1
1446035742071630470,375,1446035742069891929,robocape,-74.2238010192,28.0187285081,-26.7098630696,0.0,10.0,0.0,0.0,0.0,10.0,0.0,0.0,0.0,10.0,-0.380299403663,0.863396825404,-1.31506894628,1.0,0.0,0.0,0.0,1.0,0.0,0.0,0.0,1.0,1.11368408203,-5.8282800293,11.306887207,0.1,0.0,0.0,0.0,0.1,0.0,0.0,0.0,0.1
1446035742107283220,376,1446035742105547904,robocape,-75.7795834269,27.6267482286,-28.6118752461,0.0,10.0,0.0,0.0,0.0,10.0,0.0,0.0,0.0,10.0,-0.220376580204,0.914795834442,-1.25781098284,1.0,0.0,0.0,0.0,1.0,0.0,0.0,0.0,1.0,1.02387084961,-5.68457885742,7.15392333984,0.1,0.0,0.0,0.0,0.1,0.0,0.0,0.0,0.1
1446035742138553886,377,1446035742136842012,robocape,-77.3953965733,27.205398504,-30.6042740426,0.0,10.0,0.0,0.0,0.0,10.0,0.0,0.0,0.0,10.0,-0.24421187196,1.01905859112,-1.28843733538,1.0,0.0,0.0,0.0,1.0,0.0,0.0,0.0,1.0,0.686173095703,-6.53840332031,12.0445532227,0.1,0.0,0.0,0.0,0.1,0.0,0.0,0.0,0.1
1446035742171752386,378,1446035742170072078,robocape,-78.8612407465,26.823973732,-32.3943506219,0.0,10.0,0.0,0.0,0.0,10.0,0.0,0.0,0.0,10.0,-0.254065567994,0.970189585116,-1.11533186453,1.0,0.0,0.0,0.0,1.0,0.0,0.0,0.0,1.0,-1.08135131836,-4.16254394531,8.07600585937,0.1,0.0,0.0,0.0,0.1,0.0,0.0,0.0,0.1
1446035742210426303,379,1446035742208620071,robocape,-80.1205230181,26.3598665045,-33.9046141637,0.0,10.0,0.0,0.0,0.0,10.0,0.0,0.0,0.0,10.0,-0.253532935776,0.802543594495,-1.21799672455,1.0,0.0,0.0,0.0,1.0,0.0,0.0,0.0,1.0,0.507744140625,-6.04383178711,9.96807128906,0.1,0.0,0.0,0.0,0.1,0.0,0.0,0.0,0.1
1446035742238283970,380,1446035742236615896,robocape,-81.3502200976,25.8051728521,-35.489070293,0.0,10.0,0.0,0.0,0.0,10.0,0.0,0.0,0.0,10.0,-0.210389726116,0.871652624783,-1.36926427446,1.0,0.0,0.0,0.0,1.0,0.0,0.0,0.0,1.0,5.46663208008,-6.26776611328,7.38743774414,0.1,0.0,0.0,0.0,0.1,0.0,0.0,0.0,0.1
1446035742271655720,381,1446035742269861936,robocape,-82.2482486351,25.3221560574,-36.8551039866,0.0,10.0,0.0,0.0,0.0,10.0,0.0,0.0,0.0,10.0,-0.0608532309083,0.79322253068,-1.14236294959,1.0,0.0,0.0,0.0,1.0,0.0,0.0,0.0,1.0,-2.16988769531,-3.08239013672,8.17899169922,0.1,0.0,0.0,0.0,0.1,0.0,0.0,0.0,0.1
1446035742309819928,382,1446035742307893037,robocape,-83.3889632022,24.8723629016,-38.1238823324,0.0,10.0,0.0,0.0,0.0,10.0,0.0,0.0,0.0,10.0,-0.341284093694,0.771517767796,-1.02331964886,1.0,0.0,0.0,0.0,1.0,0.0,0.0,0.0,1.0,1.00830322266,-4.08111328125,9.63396606445,0.1,0.0,0.0,0.0,0.1,0.0,0.0,0.0,0.1
1446035742338250137,383,1446035742336514949,robocape,-84.6414324699,24.2518295881,-39.4496658989,0.0,10.0,0.0,0.0,0.0,10.0,0.0,0.0,0.0,10.0,-0.42956788383,0.815060451619,-1.31773210737,1.0,0.0,0.0,0.0,1.0,0.0,0.0,0.0,1.0,-0.384400634766,-9.20885009766,9.22441772461,0.1,0.0,0.0,0.0,0.1,0.0,0.0,0.0,0.1
1446035742371733803,384,1446035742369983911,robocape,-85.4773761586,23.6249219407,-41.0124945924,0.0,10.0,0.0,0.0,0.0,10.0,0.0,0.0,0.0,10.0,0.0253000303558,1.02917860326,-1.28577417429,1.0,0.0,0.0,0.0,1.0,0.0,0.0,0.0,1.0,0.09580078125,-7.55628662109,10.9009313965,0.1,0.0,0.0,0.0,0.1,0.0,0.0,0.0,0.1
1446035742408641012,385,1446035742406683921,robocape,-86.1374202382,23.1555996481,-42.0685274406,0.0,10.0,0.0,0.0,0.0,10.0,0.0,0.0,0.0,10.0,-0.0818922035199,0.712661907705,-0.919323208295,1.0,0.0,0.0,0.0,1.0,0.0,0.0,0.0,1.0,0.774788818359,-4.76129882813,8.02690795898,0.1,0.0,0.0,0.0,0.1,0.0,0.0,0.0,0.1
1446035742438450678,386,1446035742436718940,robocape,-87.0240611794,22.5604243886,-43.3504039422,0.0,10.0,0.0,0.0,0.0,10.0,0.0,0.0,0.0,10.0,-0.192280230704,0.890561068522,-1.11985923838,1.0,0.0,0.0,0.0,1.0,0.0,0.0,0.0,1.0,-1.54359008789,-4.11344604492,10.0231567383,0.1,0.0,0.0,0.0,0.1,0.0,0.0,0.0,0.1
1446035742471722303,387,1446035742469980001,robocape,-87.8112612262,21.9066575071,-44.453758459,0.0,10.0,0.0,0.0,0.0,10.0,0.0,0.0,0.0,10.0,-0.204663929773,0.781637779938,-1.16766297995,1.0,0.0,0.0,0.0,1.0,0.0,0.0,0.0,1.0,-2.4489074707,-6.38152954102,9.85071533203,0.1,0.0,0.0,0.0,0.1,0.0,0.0,0.0,0.1
1446035742508379303,388,1446035742506422996,robocape,-88.7251569162,21.1878440739,-45.8638732648,0.0,10.0,0.0,0.0,0.0,10.0,0.0,0.0,0.0,10.0,-0.206128668372,1.04249440871,-1.23304358471,1.0,0.0,0.0,0.0,1.0,0.0,0.0,0.0,1.0,2.01660644531,-4.89302490234,8.24006469727,0.1,0.0,0.0,0.0,0.1,0.0,0.0,0.0,0.1
1446035742538434803,389,1446035742536710977,robocape,-89.6217612104,20.3837970076,-47.3279687291,0.0,10.0,0.0,0.0,0.0,10.0,0.0,0.0,0.0,10.0,-0.196541288448,1.11679660312,-1.31067473048,1.0,0.0,0.0,0.0,1.0,0.0,0.0,0.0,1.0,1.07296875,-5.05109619141,11.5966845703,0.1,0.0,0.0,0.0,0.1,0.0,0.0,0.0,0.1
1446035742571722678,390,1446035742569986104,robocape,-90.430281753,19.5965938455,-48.5869084696,0.0,10.0,0.0,0.0,0.0,10.0,0.0,0.0,0.0,10.0,-0.226501850711,0.989364344964,-1.22079304369,1.0,0.0,0.0,0.0,1.0,0.0,0.0,0.0,1.0,-2.46088256836,-4.37570068359,8.75499389648,0.1,0.0,0.0,0.0,0.1,0.0,0.0,0.0,0.1
