%time,field.header.seq,field.header.stamp,field.header.frame_id,field.orientation.x,field.orientation.y,field.orientation.z,field.orientation.w,field.orientation_covariance0,field.orientation_covariance1,field.orientation_covariance2,field.orientation_covariance3,field.orientation_covariance4,field.orientation_covariance5,field.orientation_covariance6,field.orientation_covariance7,field.orientation_covariance8,field.angular_velocity.x,field.angular_velocity.y,field.angular_velocity.z,field.angular_velocity_covariance0,field.angular_velocity_covariance1,field.angular_velocity_covariance2,field.angular_velocity_covariance3,field.angular_velocity_covariance4,field.angular_velocity_covariance5,field.angular_velocity_covariance6,field.angular_velocity_covariance7,field.angular_velocity_covariance8,field.linear_acceleration.x,field.linear_acceleration.y,field.linear_acceleration.z,field.linear_acceleration_covariance0,field.linear_acceleration_covariance1,field.linear_acceleration_covariance2,field.linear_acceleration_covariance3,field.linear_acceleration_covariance4,field.linear_acceleration_covariance5,field.linear_acceleration_covariance6,field.linear_acceleration_covariance7,field.linear_acceleration_covariance8
1446038274966887265,1,1446038274963623046,robocape,13.5259081127,6.41544913692,-22.0538527498,0.0,10.0,0.0,0.0,0.0,10.0,0.0,0.0,0.0,10.0,0.133024896449,0.0190416017941,-0.366850440158,1.0,0.0,0.0,0.0,1.0,0.0,0.0,0.0,1.0,0.216749267578,1.02267333984,10.1908081055,0.1,0.0,0.0,0.0,0.1,0.0,0.0,0.0,0.1
1446038274997192682,2,1446038274994242906,robocape,13.1633747702,6.53809968216,-22.5136591894,0.0,10.0,0.0,0.0,0.0,10.0,0.0,0.0,0.0,10.0,-0.14101437972,0.0129163312869,-0.282694549712,1.0,0.0,0.0,0.0,1.0,0.0,0.0,0.0,1.0,0.246687011719,2.21180053711,9.87466552734,0.1,0.0,0.0,0.0,0.1,0.0,0.0,0.0,0.1
1446038275030533640,3,1446038275027580022,robocape,12.130487453,6.54498223062,-22.4091561026,0.0,10.0,0.0,0.0,0.0,10.0,0.0,0.0,0.0,10.0,-0.539689594905,0.0175768631945,0.0394147841332,1.0,0.0,0.0,0.0,1.0,0.0,0.0,0.0,1.0,0.00119750976563,0.0323327636719,10.0339343262,0.1,0.0,0.0,0.0,0.1,0.0,0.0,0.0,0.1
1446038275066294807,4,1446038275062927961,robocape,11.1966666265,6.53002019538,-22.3755884383,0.0,10.0,0.0,0.0,0.0,10.0,0.0,0.0,0.0,10.0,-0.482431631468,-0.00133158054504,0.00279631914458,1.0,0.0,0.0,0.0,1.0,0.0,0.0,0.0,1.0,-0.480201416016,-0.129331054688,9.99561401367,0.1,0.0,0.0,0.0,0.1,0.0,0.0,0.0,0.1
1446038275096839807,5,1446038275093897104,robocape,10.3523115371,6.49547908198,-22.2675502717,0.0,10.0,0.0,0.0,0.0,10.0,0.0,0.0,0.0,10.0,-0.440753160408,-0.00439421579863,0.0431432096593,1.0,0.0,0.0,0.0,1.0,0.0,0.0,0.0,1.0,0.13412109375,-1.4178515625,10.1213525391,0.1,0.0,0.0,0.0,0.1,0.0,0.0,0.0,0.1
1446038275129683349,6,1446038275126585960,robocape,9.81218242667,6.49645689838,-22.2140641355,0.0,10.0,0.0,0.0,0.0,10.0,0.0,0.0,0.0,10.0,-0.276169805041,0.00932106381528,0.00692421883421,1.0,0.0,0.0,0.0,1.0,0.0,0.0,0.0,1.0,0.0179626464844,-0.962797851563,10.1740429688,0.1,0.0,0.0,0.0,0.1,0.0,0.0,0.0,0.1
1446038275163277057,7,1446038275160279989,robocape,9.22175500657,6.45805603387,-21.9697842763,0.0,10.0,0.0,0.0,0.0,10.0,0.0,0.0,0.0,10.0,-0.316516695556,0.00426105774413,0.113317504383,1.0,0.0,0.0,0.0,1.0,0.0,0.0,0.0,1.0,0.00598754882813,-0.855021972656,10.0914147949,0.1,0.0,0.0,0.0,0.1,0.0,0.0,0.0,0.1
1446038275196704974,8,1446038275193700075,robocape,8.87648050011,6.41175330649,-21.628537173,0.0,10.0,0.0,0.0,0.0,10.0,0.0,0.0,0.0,10.0,-0.193878127358,0.00719053494321,0.16378440704,1.0,0.0,0.0,0.0,1.0,0.0,0.0,0.0,1.0,0.067060546875,-2.94587402344,10.0722546387,0.1,0.0,0.0,0.0,0.1,0.0,0.0,0.0,0.1
1446038275229590099,9,1446038275226423978,robocape,9.25698066759,6.44801321028,-21.5695135689,0.0,10.0,0.0,0.0,0.0,10.0,0.0,0.0,0.0,10.0,0.208924987517,0.0295610880999,-0.00066579027252,1.0,0.0,0.0,0.0,1.0,0.0,0.0,0.0,1.0,-0.0203576660156,-2.06450683594,10.1201550293,0.1,0.0,0.0,0.0,0.1,0.0,0.0,0.0,0.1
1446038275262828474,10,1446038275259875059,robocape,10.1044967369,6.5680824861,-21.9380043776,0.0,10.0,0.0,0.0,0.0,10.0,0.0,0.0,0.0,10.0,0.486959005321,0.0386158358061,-0.242081343088,1.0,0.0,0.0,0.0,1.0,0.0,0.0,0.0,1.0,-0.0754431152344,-1.54478759766,10.1991906738,0.1,0.0,0.0,0.0,0.1,0.0,0.0,0.0,0.1
1446038275295964432,11,1446038275293018102,robocape,11.113853123,6.7048232636,-22.3838374782,0.0,10.0,0.0,0.0,0.0,10.0,0.0,0.0,0.0,10.0,0.581501224019,0.0374174133156,-0.289618768546,1.0,0.0,0.0,0.0,1.0,0.0,0.0,0.0,1.0,0.122145996094,-0.0790356445313,10.1201550293,0.1,0.0,0.0,0.0,0.1,0.0,0.0,0.0,0.1
1446038275328930599,12,1446038275325968980,robocape,11.6348582859,6.70105805249,-22.1798436702,0.0,10.0,0.0,0.0,0.0,10.0,0.0,0.0,0.0,10.0,0.276835595314,0.0247673981377,0.0749679846857,1.0,0.0,0.0,0.0,1.0,0.0,0.0,0.0,1.0,-0.174836425781,0.0443078613281,10.1393151855,0.1,0.0,0.0,0.0,0.1,0.0,0.0,0.0,0.1
1446038275363022307,13,1446038275359755039,robocape,12.2004295463,6.7222784386,-22.1592025173,0.0,10.0,0.0,0.0,0.0,10.0,0.0,0.0,0.0,10.0,0.315051956956,0.0197073920666,-0.0262321367373,1.0,0.0,0.0,0.0,1.0,0.0,0.0,0.0,1.0,-0.0562829589844,0.979562988281,10.096204834,0.1,0.0,0.0,0.0,0.1,0.0,0.0,0.0,0.1
1446038275395923932,14,1446038275392908096,robocape,12.4702663689,6.74184341822,-22.1442158461,0.0,10.0,0.0,0.0,0.0,10.0,0.0,0.0,0.0,10.0,0.159123875132,0.0175768631945,-0.0259658206283,1.0,0.0,0.0,0.0,1.0,0.0,0.0,0.0,1.0,0.270637207031,1.14362182617,10.1105749512,0.1,0.0,0.0,0.0,0.1,0.0,0.0,0.0,0.1
1446038275429156141,15,1446038275426040887,robocape,12.46556513,6.77488698674,-22.1845921441,0.0,10.0,0.0,0.0,0.0,10.0,0.0,0.0,0.0,10.0,0.0175768631945,0.0178431793035,-0.0536626959651,1.0,0.0,0.0,0.0,1.0,0.0,0.0,0.0,1.0,-0.0826281738281,1.33043334961,10.0950073242,0.1,0.0,0.0,0.0,0.1,0.0,0.0,0.0,0.1
1446038275463207766,16,1446038275459840059,robocape,12.0848088463,6.77916775786,-22.150174874,0.0,10.0,0.0,0.0,0.0,10.0,0.0,0.0,0.0,10.0,-0.188285489069,0.0102531701968,-0.00572579634367,1.0,0.0,0.0,0.0,1.0,0.0,0.0,0.0,1.0,0.162861328125,1.74237670898,9.96088623047,0.1,0.0,0.0,0.0,0.1,0.0,0.0,0.0,0.1
1446038275495967557,17,1446038275492909908,robocape,11.1437750415,6.68445402886,-21.7655909508,0.0,10.0,0.0,0.0,0.0,10.0,0.0,0.0,0.0,10.0,-0.512392193731,-0.00692421883421,0.19867181732,1.0,0.0,0.0,0.0,1.0,0.0,0.0,0.0,1.0,-0.176033935547,-0.214354248047,10.285411377,0.1,0.0,0.0,0.0,0.1,0.0,0.0,0.0,0.1
1446038275529280307,18,1446038275526204109,robocape,10.2019896567,6.59770294154,-21.3367659777,0.0,10.0,0.0,0.0,0.0,10.0,0.0,0.0,0.0,10.0,-0.515721145094,-0.00199737081756,0.221042370477,1.0,0.0,0.0,0.0,1.0,0.0,0.0,0.0,1.0,-0.294587402344,-0.276624755859,10.0866247559,0.1,0.0,0.0,0.0,0.1,0.0,0.0,0.0,0.1
1446038275562816974,19,1446038275559535980,robocape,9.42229621349,6.54534811848,-20.9561917817,0.0,10.0,0.0,0.0,0.0,10.0,0.0,0.0,0.0,10.0,-0.426372090522,0.00878843159726,0.190149701832,1.0,0.0,0.0,0.0,1.0,0.0,0.0,0.0,1.0,-0.0514929199219,-1.62502075195,10.1788330078,0.1,0.0,0.0,0.0,0.1,0.0,0.0,0.0,0.1
1446038275595904974,20,1446038275592840909,robocape,8.84776075548,6.52140980887,-20.7943557492,0.0,10.0,0.0,0.0,0.0,10.0,0.0,0.0,0.0,10.0,-0.303067732051,0.00452737385313,0.0692421883421,1.0,0.0,0.0,0.0,1.0,0.0,0.0,0.0,1.0,0.279019775391,-0.591569824219,10.0327368164,0.1,0.0,0.0,0.0,0.1,0.0,0.0,0.0,0.1
1446038275629262224,21,1446038275626200914,robocape,8.55985598625,6.53018838751,-20.7463610993,0.0,10.0,0.0,0.0,0.0,10.0,0.0,0.0,0.0,10.0,-0.144210173028,0.0130494893414,0.0033289513626,1.0,0.0,0.0,0.0,1.0,0.0,0.0,0.0,1.0,-0.170046386719,-2.29442871094,10.0938098145,0.1,0.0,0.0,0.0,0.1,0.0,0.0,0.0,0.1
1446038275662966849,22,1446038275659723997,robocape,8.48022212824,6.51703682144,-20.5873089466,0.0,10.0,0.0,0.0,0.0,10.0,0.0,0.0,0.0,10.0,-0.0420779452233,0.0101200121423,0.0628506017259,1.0,0.0,0.0,0.0,1.0,0.0,0.0,0.0,1.0,0.142503662109,-1.2226574707,10.1812280273,0.1,0.0,0.0,0.0,0.1,0.0,0.0,0.0,0.1
1446038275696014182,23,1446038275693001031,robocape,8.83387080813,6.56233864557,-20.5828671971,0.0,10.0,0.0,0.0,0.0,10.0,0.0,0.0,0.0,10.0,0.197473394829,0.0300937203179,-0.0279631914458,1.0,0.0,0.0,0.0,1.0,0.0,0.0,0.0,1.0,-0.132923583984,-1.91002807617,10.0997973633,0.1,0.0,0.0,0.0,0.1,0.0,0.0,0.0,0.1
1446038275728929057,24,1446038275725946903,robocape,9.49335320404,6.65363039557,-20.8562093396,0.0,10.0,0.0,0.0,0.0,10.0,0.0,0.0,0.0,10.0,0.379367297282,0.032756881408,-0.183358641052,1.0,0.0,0.0,0.0,1.0,0.0,0.0,0.0,1.0,0.154478759766,-1.24541015625,10.1393151855,0.1,0.0,0.0,0.0,0.1,0.0,0.0,0.0,0.1
1446038275762610599,25,1446038275759567022,robocape,9.97596590874,6.70214440423,-20.9488937419,0.0,10.0,0.0,0.0,0.0,10.0,0.0,0.0,0.0,10.0,0.274438750333,0.0239684498107,-0.082957467956,1.0,0.0,0.0,0.0,1.0,0.0,0.0,0.0,1.0,0.0467028808594,0.506546630859,10.0698596191,0.1,0.0,0.0,0.0,0.1,0.0,0.0,0.0,0.1
1446038275795705266,26,1446038275792694091,robocape,9.90333721724,6.63038361682,-20.4486125862,0.0,10.0,0.0,0.0,0.0,10.0,0.0,0.0,0.0,10.0,-0.0612527050718,0.0110521185238,0.249005561922,1.0,0.0,0.0,0.0,1.0,0.0,0.0,0.0,1.0,-0.0550854492188,-0.293389892578,10.0854272461,0.1,0.0,0.0,0.0,0.1,0.0,0.0,0.0,0.1
1446038275828989724,27,1446038275825932025,robocape,10.1031001405,6.61097751374,-20.1751432523,0.0,10.0,0.0,0.0,0.0,10.0,0.0,0.0,0.0,10.0,0.0990695925509,0.0194410759576,0.121440145708,1.0,0.0,0.0,0.0,1.0,0.0,0.0,0.0,1.0,-0.0586779785156,-2.01780395508,10.2243383789,0.1,0.0,0.0,0.0,0.1,0.0,0.0,0.0,0.1
1446038275869622808,28,1446038275860800981,robocape,10.5245177705,6.59957142152,-19.9513635309,0.0,10.0,0.0,0.0,0.0,10.0,0.0,0.0,0.0,10.0,0.22024342215,0.0203731823391,0.0924116898257,1.0,0.0,0.0,0.0,1.0,0.0,0.0,0.0,1.0,0.0550854492188,-0.00119750976563,10.0291442871,0.1,0.0,0.0,0.0,0.1,0.0,0.0,0.0,0.1
1446038275897190474,29,1446038275893889904,robocape,11.1242914714,6.62360488332,-19.9276655672,0.0,10.0,0.0,0.0,0.0,10.0,0.0,0.0,0.0,10.0,0.329699342952,0.0213052887206,-0.0190416017941,1.0,0.0,0.0,0.0,1.0,0.0,0.0,0.0,1.0,0.0467028808594,-1.69806884766,10.1237475586,0.1,0.0,0.0,0.0,0.1,0.0,0.0,0.0,0.1
1446038275929296058,30,1446038275926126956,robocape,12.0625705406,6.70881936662,-20.2180341126,0.0,10.0,0.0,0.0,0.0,10.0,0.0,0.0,0.0,10.0,0.533697482452,0.0221042370477,-0.196141814284,1.0,0.0,0.0,0.0,1.0,0.0,0.0,0.0,1.0,-0.0047900390625,-0.602347412109,10.1512902832,0.1,0.0,0.0,0.0,0.1,0.0,0.0,0.0,0.1
1446038275963809766,31,1446038275960269927,robocape,12.7570739735,6.78708974074,-20.5399435229,0.0,10.0,0.0,0.0,0.0,10.0,0.0,0.0,0.0,10.0,0.409061543436,0.0123836990689,-0.211454990552,1.0,0.0,0.0,0.0,1.0,0.0,0.0,0.0,1.0,-0.219144287109,1.73399414063,10.0985998535,0.1,0.0,0.0,0.0,0.1,0.0,0.0,0.0,0.1
1446038275996418349,32,1446038275993021011,robocape,12.8912080078,6.85163195477,-20.74116407,0.0,10.0,0.0,0.0,0.0,10.0,0.0,0.0,0.0,10.0,0.103330650295,0.0162452826495,-0.14101437972,1.0,0.0,0.0,0.0,1.0,0.0,0.0,0.0,1.0,0.228724365234,2.12438232422,9.98962646484,0.1,0.0,0.0,0.0,0.1,0.0,0.0,0.0,0.1
1446038276029603391,33,1446038276026182889,robocape,12.2621648079,6.86724980116,-20.6793399704,0.0,10.0,0.0,0.0,0.0,10.0,0.0,0.0,0.0,10.0,-0.322641966063,0.0185089695761,0.0126500151779,1.0,0.0,0.0,0.0,1.0,0.0,0.0,0.0,1.0,0.161663818359,1.5292199707,9.85550537109,0.1,0.0,0.0,0.0,0.1,0.0,0.0,0.0,0.1
1446038276062832766,34,1446038276059432983,robocape,11.25872604,6.87761166113,-20.4390554426,0.0,10.0,0.0,0.0,0.0,10.0,0.0,0.0,0.0,10.0,-0.535162221051,0.032756881408,0.112119081892,1.0,0.0,0.0,0.0,1.0,0.0,0.0,0.0,1.0,-0.384400634766,0.274229736328,10.2147583008,0.1,0.0,0.0,0.0,0.1,0.0,0.0,0.0,0.1
1446038276096228933,35,1446038276093029022,robocape,9.9160429482,6.75548016795,-19.8571378452,0.0,10.0,0.0,0.0,0.0,10.0,0.0,0.0,0.0,10.0,-0.739959308879,-0.00759000910673,0.310524583103,1.0,0.0,0.0,0.0,1.0,0.0,0.0,0.0,1.0,-0.264649658203,-0.159268798828,10.0674645996,0.1,0.0,0.0,0.0,0.1,0.0,0.0,0.0,0.1
1446038276129161849,36,1446038276125931024,robocape,8.67795053981,6.60242087566,-19.2037322698,0.0,10.0,0.0,0.0,0.0,10.0,0.0,0.0,0.0,10.0,-0.688427141785,-0.0243679239742,0.349007260855,1.0,0.0,0.0,0.0,1.0,0.0,0.0,0.0,1.0,-0.0455053710938,-2.16390014648,10.2770288086,0.1,0.0,0.0,0.0,0.1,0.0,0.0,0.0,0.1
1446038276162606474,37,1446038276159420013,robocape,8.4599584492,6.62999022372,-19.1542558673,0.0,10.0,0.0,0.0,0.0,10.0,0.0,0.0,0.0,10.0,-0.107991182203,0.0230363434292,0.00439421579863,1.0,0.0,0.0,0.0,1.0,0.0,0.0,0.0,1.0,0.445473632813,-2.91234375,10.0830322266,0.1,0.0,0.0,0.0,0.1,0.0,0.0,0.0,0.1
1446038276195849141,38,1446038276192842960,robocape,8.80481113107,6.71173840984,-19.327572651,0.0,10.0,0.0,0.0,0.0,10.0,0.0,0.0,0.0,10.0,0.204663929773,0.0359526747161,-0.122771726253,1.0,0.0,0.0,0.0,1.0,0.0,0.0,0.0,1.0,0.0443078613281,-1.53760253906,9.99202148437,0.1,0.0,0.0,0.0,0.1,0.0,0.0,0.0,0.1
1446038276228977433,39,1446038276225984096,robocape,9.07490087691,6.75156995675,-19.3448022793,0.0,10.0,0.0,0.0,0.0,10.0,0.0,0.0,0.0,10.0,0.154862817388,0.0255663464648,-0.0363521488796,1.0,0.0,0.0,0.0,1.0,0.0,0.0,0.0,1.0,0.0886157226563,-0.633482666016,10.0878222656,0.1,0.0,0.0,0.0,0.1,0.0,0.0,0.0,0.1
1446038276262771766,40,1446038276259716033,robocape,9.34107898448,6.78418689211,-19.3630236037,0.0,10.0,0.0,0.0,0.0,10.0,0.0,0.0,0.0,10.0,0.153264920734,0.0217047628841,-0.0364853069341,1.0,0.0,0.0,0.0,1.0,0.0,0.0,0.0,1.0,0.100590820313,-0.984353027344,10.1967956543,0.1,0.0,0.0,0.0,0.1,0.0,0.0,0.0,0.1
1446038276297479933,41,1446038276294455051,robocape,9.82944987165,6.8573974146,-19.585349285,0.0,10.0,0.0,0.0,0.0,10.0,0.0,0.0,0.0,10.0,0.286023501075,0.0263652947918,-0.150734917698,1.0,0.0,0.0,0.0,1.0,0.0,0.0,0.0,1.0,-0.0910107421875,-0.978365478516,10.1441052246,0.1,0.0,0.0,0.0,0.1,0.0,0.0,0.0,0.1
1446038276330249349,42,1446038276327174901,robocape,10.1358431993,6.88754683144,-19.6059521887,0.0,10.0,0.0,0.0,0.0,10.0,0.0,0.0,0.0,10.0,0.176034948054,0.0202400242846,-0.0390153099697,1.0,0.0,0.0,0.0,1.0,0.0,0.0,0.0,1.0,-0.0443078613281,0.182021484375,10.0662670898,0.1,0.0,0.0,0.0,0.1,0.0,0.0,0.0,0.1
1446038276363915474,43,1446038276360879898,robocape,10.0144677149,6.81844040274,-19.1394829643,0.0,10.0,0.0,0.0,0.0,10.0,0.0,0.0,0.0,10.0,-0.0854874709915,0.0101200121423,0.232227647055,1.0,0.0,0.0,0.0,1.0,0.0,0.0,0.0,1.0,-0.00838256835938,-0.379610595703,10.055489502,0.1,0.0,0.0,0.0,0.1,0.0,0.0,0.0,0.1
1446038276396397349,44,1446038276393285989,robocape,10.1896444336,6.80450334835,-18.9301102588,0.0,10.0,0.0,0.0,0.0,10.0,0.0,0.0,0.0,10.0,0.0900148448447,0.0170442309765,0.0888164223541,1.0,0.0,0.0,0.0,1.0,0.0,0.0,0.0,1.0,0.0550854492188,-1.89446044922,10.2518811035,0.1,0.0,0.0,0.0,0.1,0.0,0.0,0.0,0.1
1446038276431081308,45,1446038276427640914,robocape,10.8749587324,6.89653851764,-19.1995901132,0.0,10.0,0.0,0.0,0.0,10.0,0.0,0.0,0.0,10.0,0.395479421877,0.0302268783724,-0.179363899417,1.0,0.0,0.0,0.0,1.0,0.0,0.0,0.0,1.0,0.110170898438,-1.11727661133,10.1309326172,0.1,0.0,0.0,0.0,0.1,0.0,0.0,0.0,0.1
1446038276464834808,46,1446038276461389064,robocape,11.3494285955,6.90311237032,-19.1308480566,0.0,10.0,0.0,0.0,0.0,10.0,0.0,0.0,0.0,10.0,0.260190838501,0.0167779148675,0.00878843159726,1.0,0.0,0.0,0.0,1.0,0.0,0.0,0.0,1.0,-0.0969982910156,0.664617919922,9.93693603516,0.1,0.0,0.0,0.0,0.1,0.0,0.0,0.0,0.1
1446038276497747433,47,1446038276494388103,robocape,11.3325614537,6.82439565008,-18.645487223,0.0,10.0,0.0,0.0,0.0,10.0,0.0,0.0,0.0,10.0,-0.0306263525359,0.0126500151779,0.242081343088,1.0,0.0,0.0,0.0,1.0,0.0,0.0,0.0,1.0,0.0490979003906,0.228724365234,10.0914147949,0.1,0.0,0.0,0.0,0.1,0.0,0.0,0.0,0.1
1446038276530068350,48,1446038276526623010,robocape,11.3580820561,6.75564897257,-18.2159607776,0.0,10.0,0.0,0.0,0.0,10.0,0.0,0.0,0.0,10.0,-0.00386158358061,0.0123836990689,0.211721306661,1.0,0.0,0.0,0.0,1.0,0.0,0.0,0.0,1.0,0.0371228027344,-0.961600341797,10.1764379883,0.1,0.0,0.0,0.0,0.1,0.0,0.0,0.0,0.1
1446038276564414600,49,1446038276561115980,robocape,11.8091968358,6.76122496485,-18.1502409545,0.0,10.0,0.0,0.0,0.0,10.0,0.0,0.0,0.0,10.0,0.248472929704,0.0159789665405,0.00892158965177,1.0,0.0,0.0,0.0,1.0,0.0,0.0,0.0,1.0,0.142503662109,-0.930465087891,10.2470910645,0.1,0.0,0.0,0.0,0.1,0.0,0.0,0.0,0.1
1446038276600062308,50,1446038276596259117,robocape,12.1962546198,6.75621020631,-18.0445564781,0.0,10.0,0.0,0.0,0.0,10.0,0.0,0.0,0.0,10.0,0.212253938879,0.0147805440499,0.0314253008629,1.0,0.0,0.0,0.0,1.0,0.0,0.0,0.0,1.0,-0.0886157226563,0.493374023438,10.0902172852,0.1,0.0,0.0,0.0,0.1,0.0,0.0,0.0,0.1
1446038276632790058,51,1446038276628987073,robocape,12.3658138076,6.71804627346,-17.7930058306,0.0,10.0,0.0,0.0,0.0,10.0,0.0,0.0,0.0,10.0,0.0865527354276,0.0130494893414,0.113716978546,1.0,0.0,0.0,0.0,1.0,0.0,0.0,0.0,1.0,0.0323327636719,0.131726074219,10.1117724609,0.1,0.0,0.0,0.0,0.1,0.0,0.0,0.0,0.1
1446038276664248558,52,1446038276660661935,robocape,12.5198899742,6.69484799707,-17.6210882591,0.0,10.0,0.0,0.0,0.0,10.0,0.0,0.0,0.0,10.0,0.084289048501,0.0123836990689,0.0707069269416,1.0,0.0,0.0,0.0,1.0,0.0,0.0,0.0,1.0,0.0155676269531,0.186811523438,10.0926123047,0.1,0.0,0.0,0.0,0.1,0.0,0.0,0.0,0.1
1446038276698974683,53,1446038276695822000,robocape,12.6218266286,6.68921952373,-17.5134826026,0.0,10.0,0.0,0.0,0.0,10.0,0.0,0.0,0.0,10.0,0.0613858631263,0.0143810698864,0.0356863586071,1.0,0.0,0.0,0.0,1.0,0.0,0.0,0.0,1.0,0.0395178222656,0.1149609375,10.1465002441,0.1,0.0,0.0,0.0,0.1,0.0,0.0,0.0,0.1
1446038276733200058,54,1446038276729170083,robocape,12.6699726395,6.6964198246,-17.4503032794,0.0,10.0,0.0,0.0,0.0,10.0,0.0,0.0,0.0,10.0,0.0360858327706,0.0159789665405,0.0115847507418,1.0,0.0,0.0,0.0,1.0,0.0,0.0,0.0,1.0,0.067060546875,0.246687011719,10.1141674805,0.1,0.0,0.0,0.0,0.1,0.0,0.0,0.0,0.1
1446038276767867391,55,1446038276763473987,robocape,12.6273516863,6.70854275757,-17.3970531711,0.0,10.0,0.0,0.0,0.0,10.0,0.0,0.0,0.0,10.0,-0.0114515926873,0.017177389031,0.0067910607797,1.0,0.0,0.0,0.0,1.0,0.0,0.0,0.0,1.0,0.0455053710938,0.222736816406,10.0974023437,0.1,0.0,0.0,0.0,0.1,0.0,0.0,0.0,0.1
1446038276799870600,56,1446038276795963048,robocape,12.5758388487,6.73695687773,-17.378415162,0.0,10.0,0.0,0.0,0.0,10.0,0.0,0.0,0.0,10.0,-0.0137152796139,0.0217047628841,-0.0130494893414,1.0,0.0,0.0,0.0,1.0,0.0,0.0,0.0,1.0,0.0167651367188,-0.820294189453,10.1488952637,0.1,0.0,0.0,0.0,0.1,0.0,0.0,0.0,0.1
1446038276834927558,57,1446038276831526041,robocape,12.7350123444,6.80487725545,-17.6040038997,0.0,10.0,0.0,0.0,0.0,10.0,0.0,0.0,0.0,10.0,0.116113823527,0.015579492377,-0.147405966336,1.0,0.0,0.0,0.0,1.0,0.0,0.0,0.0,1.0,0.100590820313,1.57712036133,9.97166381836,0.1,0.0,0.0,0.0,0.1,0.0,0.0,0.0,0.1
1446038276868331350,58,1446038276862548112,robocape,12.3405916845,6.81816287768,-17.5152748537,0.0,10.0,0.0,0.0,0.0,10.0,0.0,0.0,0.0,10.0,-0.201068662301,0.0207726565026,0.0284958236638,1.0,0.0,0.0,0.0,1.0,0.0,0.0,0.0,1.0,-0.168848876953,-0.553249511719,10.3045715332,0.1,0.0,0.0,0.0,0.1,0.0,0.0,0.0,0.1
1446038276900676933,59,1446038276896725893,robocape,12.2497531456,6.85367084847,-17.5816024497,0.0,10.0,0.0,0.0,0.0,10.0,0.0,0.0,0.0,10.0,-0.0287621397729,0.0162452826495,-0.0579237537092,1.0,0.0,0.0,0.0,1.0,0.0,0.0,0.0,1.0,0.110170898438,-0.0215551757813,10.0578845215,0.1,0.0,0.0,0.0,0.1,0.0,0.0,0.0,0.1
1446038276933103433,60,1446038276929629087,robocape,12.1534553559,6.86271080557,-17.49208776,0.0,10.0,0.0,0.0,0.0,10.0,0.0,0.0,0.0,10.0,-0.0431432096593,0.0193079179031,0.0266316109008,1.0,0.0,0.0,0.0,1.0,0.0,0.0,0.0,1.0,-0.106578369141,-1.01668579102,10.1632653809,0.1,0.0,0.0,0.0,0.1,0.0,0.0,0.0,0.1
1446038276966545058,61,1446038276962887048,robocape,12.3678349443,6.89980453444,-17.5446318249,0.0,10.0,0.0,0.0,0.0,10.0,0.0,0.0,0.0,10.0,0.132359106177,0.0194410759576,-0.0537958540196,1.0,0.0,0.0,0.0,1.0,0.0,0.0,0.0,1.0,0.102985839844,-0.735270996094,10.1309326172,0.1,0.0,0.0,0.0,0.1,0.0,0.0,0.0,0.1
1446038277000328016,62,1446038276996798038,robocape,12.7304906233,6.96730386737,-17.732798754,0.0,10.0,0.0,0.0,0.0,10.0,0.0,0.0,0.0,10.0,0.221841318804,0.0205063403936,-0.13009541925,1.0,0.0,0.0,0.0,1.0,0.0,0.0,0.0,1.0,-0.106578369141,0.00359252929688,10.1476977539,0.1,0.0,0.0,0.0,0.1,0.0,0.0,0.0,0.1
1446038277033547808,63,1446038277030426979,robocape,13.1383751348,7.08549532365,-18.1579154232,0.0,10.0,0.0,0.0,0.0,10.0,0.0,0.0,0.0,10.0,0.264984528463,0.0193079179031,-0.261389260991,1.0,0.0,0.0,0.0,1.0,0.0,0.0,0.0,1.0,-0.184416503906,0.605939941406,10.1560803223,0.1,0.0,0.0,0.0,0.1,0.0,0.0,0.0,0.1
1446038277066483266,64,1446038277063142061,robocape,13.2986346383,7.19910475423,-18.5957245825,0.0,10.0,0.0,0.0,0.0,10.0,0.0,0.0,0.0,10.0,0.135554899485,0.0138484376684,-0.266182950953,1.0,0.0,0.0,0.0,1.0,0.0,0.0,0.0,1.0,0.251477050781,1.31845825195,9.98004638672,0.1,0.0,0.0,0.0,0.1,0.0,0.0,0.0,0.1
1446038277099386058,65,1446038277096242904,robocape,12.8814240369,7.28608354146,-18.9320859084,0.0,10.0,0.0,0.0,0.0,10.0,0.0,0.0,0.0,10.0,-0.179363899417,0.0107858024148,-0.204264455609,1.0,0.0,0.0,0.0,1.0,0.0,0.0,0.0,1.0,0.0682580566406,2.45489501953,10.0650695801,0.1,0.0,0.0,0.0,0.1,0.0,0.0,0.0,0.1
1446038277132712891,66,1446038277129611015,robocape,11.9017528299,7.29162149701,-18.8564346852,0.0,10.0,0.0,0.0,0.0,10.0,0.0,0.0,0.0,10.0,-0.511060613186,0.0139815957229,0.0272974011733,1.0,0.0,0.0,0.0,1.0,0.0,0.0,0.0,1.0,0.228724365234,0.120948486328,10.3297192383,0.1,0.0,0.0,0.0,0.1,0.0,0.0,0.0,0.1
1446038277165254725,67,1446038277162058115,robocape,11.0103485653,7.27959700298,-18.8367846147,0.0,10.0,0.0,0.0,0.0,10.0,0.0,0.0,0.0,10.0,-0.46032739442,-0.000798948327024,-0.00119842249054,1.0,0.0,0.0,0.0,1.0,0.0,0.0,0.0,1.0,-0.603544921875,-0.615520019531,9.98244140625,0.1,0.0,0.0,0.0,0.1,0.0,0.0,0.0,0.1
1446038277199241433,68,1446038277195964097,robocape,10.2864250604,7.29374940842,-18.9783843319,0.0,10.0,0.0,0.0,0.0,10.0,0.0,0.0,0.0,10.0,-0.359659905215,-0.00159789665405,-0.0908137931717,1.0,0.0,0.0,0.0,1.0,0.0,0.0,0.0,1.0,0.120948486328,-0.987945556641,9.96807128906,0.1,0.0,0.0,0.0,0.1,0.0,0.0,0.0,0.1
1446038277232699308,69,1446038277229598999,robocape,9.64520178076,7.28920671125,-18.9858230096,0.0,10.0,0.0,0.0,0.0,10.0,0.0,0.0,0.0,10.0,-0.326503549644,0.00146473859954,-0.0193079179031,1.0,0.0,0.0,0.0,1.0,0.0,0.0,0.0,1.0,0.201181640625,-0.484991455078,10.1465002441,0.1,0.0,0.0,0.0,0.1,0.0,0.0,0.0,0.1
1446038277265662767,70,1446038277262481927,robocape,8.98644172508,7.26217535127,-18.9032848037,0.0,10.0,0.0,0.0,0.0,10.0,0.0,0.0,0.0,10.0,-0.343015148402,-0.00292947719909,0.0303600364269,1.0,0.0,0.0,0.0,1.0,0.0,0.0,0.0,1.0,-0.261057128906,-0.712518310547,9.99441650391,0.1,0.0,0.0,0.0,0.1,0.0,0.0,0.0,0.1
1446038277298722142,71,1446038277295434951,robocape,8.60624692903,7.24716496941,-18.8360247076,0.0,10.0,0.0,0.0,0.0,10.0,0.0,0.0,0.0,10.0,-0.195076549848,0.00253000303558,0.0189084437396,1.0,0.0,0.0,0.0,1.0,0.0,0.0,0.0,1.0,0.05748046875,-2.35789672852,10.1453027344,0.1,0.0,0.0,0.0,0.1,0.0,0.0,0.0,0.1
1446038277331119183,72,1446038277328097105,robocape,8.71956965061,7.29359815098,-18.9066598344,0.0,10.0,0.0,0.0,0.0,10.0,0.0,0.0,0.0,10.0,0.0757669330128,0.0254331884103,-0.0631169178349,1.0,0.0,0.0,0.0,1.0,0.0,0.0,0.0,1.0,0.215551757813,-2.00343383789,10.1165625,0.1,0.0,0.0,0.0,0.1,0.0,0.0,0.0,0.1
1446038277364362808,73,1446038277361004114,robocape,9.15107711457,7.36468381449,-19.0191971997,0.0,10.0,0.0,0.0,0.0,10.0,0.0,0.0,0.0,10.0,0.247540823323,0.0356863586071,-0.0902811609537,1.0,0.0,0.0,0.0,1.0,0.0,0.0,0.0,1.0,-0.170046386719,-1.02985839844,10.1105749512,0.1,0.0,0.0,0.0,0.1,0.0,0.0,0.0,0.1
1446038277397315475,74,1446038277394268035,robocape,9.44735589026,7.39900764399,-18.9987163984,0.0,10.0,0.0,0.0,0.0,10.0,0.0,0.0,0.0,10.0,0.166580726184,0.0264984528463,-0.016112124595,1.0,0.0,0.0,0.0,1.0,0.0,0.0,0.0,1.0,-0.208366699219,0.580792236328,10.0938098145,0.1,0.0,0.0,0.0,0.1,0.0,0.0,0.0,0.1
1446038277429845308,75,1446038277426760911,robocape,9.42309250542,7.37803648959,-18.6967854075,0.0,10.0,0.0,0.0,0.0,10.0,0.0,0.0,0.0,10.0,-0.0242347659197,0.0197073920666,0.140348589447,1.0,0.0,0.0,0.0,1.0,0.0,0.0,0.0,1.0,0.240699462891,-1.06099365234,10.1237475586,0.1,0.0,0.0,0.0,0.1,0.0,0.0,0.0,0.1
1446038277463778017,76,1446038277460499048,robocape,9.6391905919,7.39052382655,-18.6329080379,0.0,10.0,0.0,0.0,0.0,10.0,0.0,0.0,0.0,10.0,0.121040671544,0.0185089695761,0.00985369603329,1.0,0.0,0.0,0.0,1.0,0.0,0.0,0.0,1.0,-0.009580078125,-0.0167651367188,10.0914147949,0.1,0.0,0.0,0.0,0.1,0.0,0.0,0.0,0.1
1446038277496898892,77,1446038277493859052,robocape,9.65251728315,7.38615061045,-18.4543975049,0.0,10.0,0.0,0.0,0.0,10.0,0.0,0.0,0.0,10.0,0.00519316412565,0.0187752856851,0.0736364041407,1.0,0.0,0.0,0.0,1.0,0.0,0.0,0.0,1.0,-0.0203576660156,-0.526904296875,10.2423010254,0.1,0.0,0.0,0.0,0.1,0.0,0.0,0.0,0.1
1446038277529531808,78,1446038277526454925,robocape,9.82604584241,7.4205918657,-18.4918610627,0.0,10.0,0.0,0.0,0.0,10.0,0.0,0.0,0.0,10.0,0.106526443603,0.0214384467751,-0.0451405804768,1.0,0.0,0.0,0.0,1.0,0.0,0.0,0.0,1.0,0.00598754882813,-0.505349121094,10.0830322266,0.1,0.0,0.0,0.0,0.1,0.0,0.0,0.0,0.1
1446038277563009142,79,1446038277559746980,robocape,9.97048383917,7.45843568399,-18.5943947849,0.0,10.0,0.0,0.0,0.0,10.0,0.0,0.0,0.0,10.0,0.0964064314609,0.0175768631945,-0.0797616746479,1.0,0.0,0.0,0.0,1.0,0.0,0.0,0.0,1.0,-0.146096191406,0.352067871094,10.1045874023,0.1,0.0,0.0,0.0,0.1,0.0,0.0,0.0,0.1
1446038277596343017,80,1446038277593313932,robocape,9.84087661316,7.44194429318,-18.3961605815,0.0,10.0,0.0,0.0,0.0,10.0,0.0,0.0,0.0,10.0,-0.0717721913776,0.0142479118319,0.0862864193186,1.0,0.0,0.0,0.0,1.0,0.0,0.0,0.0,1.0,0.0443078613281,-0.833466796875,10.1740429688,0.1,0.0,0.0,0.0,0.1,0.0,0.0,0.0,0.1
1446038277629521058,81,1446038277626507043,robocape,9.82089605848,7.45431656684,-18.3662387484,0.0,10.0,0.0,0.0,0.0,10.0,0.0,0.0,0.0,10.0,-0.000932106381528,0.0151800182135,-0.00585895439817,1.0,0.0,0.0,0.0,1.0,0.0,0.0,0.0,1.0,0.0,-0.0934057617188,10.0985998535,0.1,0.0,0.0,0.0,0.1,0.0,0.0,0.0,0.1
1446038277662789225,82,1446038277659564971,robocape,9.60069995524,7.43343609264,-18.1464002237,0.0,10.0,0.0,0.0,0.0,10.0,0.0,0.0,0.0,10.0,-0.121573303762,0.0131826473959,0.0992027506055,1.0,0.0,0.0,0.0,1.0,0.0,0.0,0.0,1.0,0.0239501953125,-0.701740722656,10.0626745605,0.1,0.0,0.0,0.0,0.1,0.0,0.0,0.0,0.1
1446038277696265142,83,1446038277693214893,robocape,9.54104068392,7.44238795931,-18.1105964812,0.0,10.0,0.0,0.0,0.0,10.0,0.0,0.0,0.0,10.0,-0.0227700273202,0.0137152796139,-0.00159789665405,1.0,0.0,0.0,0.0,1.0,0.0,0.0,0.0,1.0,0.0227526855469,-0.276624755859,10.1129699707,0.1,0.0,0.0,0.0,0.1,0.0,0.0,0.0,0.1
1446038277729200142,84,1446038277726183891,robocape,9.30396719768,7.41756368121,-17.8858618285,0.0,10.0,0.0,0.0,0.0,10.0,0.0,0.0,0.0,10.0,-0.131160683686,0.0109189604693,0.102664860023,1.0,0.0,0.0,0.0,1.0,0.0,0.0,0.0,1.0,0.00598754882813,-0.748443603516,10.1153649902,0.1,0.0,0.0,0.0,0.1,0.0,0.0,0.0,0.1
1446038277762812767,85,1446038277759510040,robocape,9.36248979694,7.45375616061,-17.9483311578,0.0,10.0,0.0,0.0,0.0,10.0,0.0,0.0,0.0,10.0,0.0468716351854,0.0202400242846,-0.0563258570552,1.0,0.0,0.0,0.0,1.0,0.0,0.0,0.0,1.0,-0.0047900390625,-1.17236206055,10.1536853027,0.1,0.0,0.0,0.0,0.1,0.0,0.0,0.0,0.1
1446038277796160225,86,1446038277793128967,robocape,9.57615286447,7.53384233373,-18.2472776353,0.0,10.0,0.0,0.0,0.0,10.0,0.0,0.0,0.0,10.0,0.147405966336,0.0242347659197,-0.18655443436,1.0,0.0,0.0,0.0,1.0,0.0,0.0,0.0,1.0,-0.0179626464844,-0.226329345703,10.2015856934,0.1,0.0,0.0,0.0,0.1,0.0,0.0,0.0,0.1
1446038277829305142,87,1446038277826258897,robocape,9.49223420418,7.55048049142,-18.2740260217,0.0,10.0,0.0,0.0,0.0,10.0,0.0,0.0,0.0,10.0,-0.0307595105904,0.0126500151779,-0.0352868844435,1.0,0.0,0.0,0.0,1.0,0.0,0.0,0.0,1.0,0.0,0.164058837891,10.1081799316,0.1,0.0,0.0,0.0,0.1,0.0,0.0,0.0,0.1
1446038277866423517,88,1446038277861488103,robocape,9.11906764774,7.50563810704,-17.992580003,0.0,10.0,0.0,0.0,0.0,10.0,0.0,0.0,0.0,10.0,-0.207726565026,0.00452737385313,0.135288583376,1.0,0.0,0.0,0.0,1.0,0.0,0.0,0.0,1.0,0.0802331542969,-0.467028808594,10.1057849121,0.1,0.0,0.0,0.0,0.1,0.0,0.0,0.0,0.1
1446038277897717434,89,1446038277894668102,robocape,8.99430838025,7.51729668951,-17.9550331664,0.0,10.0,0.0,0.0,0.0,10.0,0.0,0.0,0.0,10.0,-0.0579237537092,0.0150468601589,0.0,1.0,0.0,0.0,0.0,1.0,0.0,0.0,0.0,1.0,0.0550854492188,-1.38432128906,10.1429077148,0.1,0.0,0.0,0.0,0.1,0.0,0.0,0.0,0.1
1446038277931135684,90,1446038277928045034,robocape,9.0854051783,7.56718415801,-18.073834841,0.0,10.0,0.0,0.0,0.0,10.0,0.0,0.0,0.0,10.0,0.068176923906,0.0234358175927,-0.0874848418091,1.0,0.0,0.0,0.0,1.0,0.0,0.0,0.0,1.0,0.0586779785156,-0.784368896484,10.2123632813,0.1,0.0,0.0,0.0,0.1,0.0,0.0,0.0,0.1
1446038277962764684,91,1446038277959471940,robocape,9.12016298772,7.60257919854,-18.1502430764,0.0,10.0,0.0,0.0,0.0,10.0,0.0,0.0,0.0,10.0,0.0352868844435,0.0190416017941,-0.0636495500529,1.0,0.0,0.0,0.0,1.0,0.0,0.0,0.0,1.0,-0.0347277832031,-0.246687011719,10.1105749512,0.1,0.0,0.0,0.0,0.1,0.0,0.0,0.0,0.1
1446038277997560517,92,1446038277994471073,robocape,9.08283534832,7.62337693419,-18.1973772367,0.0,10.0,0.0,0.0,0.0,10.0,0.0,0.0,0.0,10.0,-0.00506000607115,0.0135821215594,-0.0464721610219,1.0,0.0,0.0,0.0,1.0,0.0,0.0,0.0,1.0,0.0107775878906,-0.417930908203,10.0985998535,0.1,0.0,0.0,0.0,0.1,0.0,0.0,0.0,0.1
1446038278029118892,93,1446038278026045083,robocape,8.99269246494,7.64831950517,-18.2767549414,0.0,10.0,0.0,0.0,0.0,10.0,0.0,0.0,0.0,10.0,-0.0304931944814,0.0131826473959,-0.0635163919984,1.0,0.0,0.0,0.0,1.0,0.0,0.0,0.0,1.0,-0.0311352539063,-0.0634680175781,10.1512902832,0.1,0.0,0.0,0.0,0.1,0.0,0.0,0.0,0.1
1446038278064629309,94,1446038278061131954,robocape,8.51339268711,7.58653605808,-17.9218404653,0.0,10.0,0.0,0.0,0.0,10.0,0.0,0.0,0.0,10.0,-0.270044534534,-0.000399474163512,0.176301264163,1.0,0.0,0.0,0.0,1.0,0.0,0.0,0.0,1.0,0.0646655273438,-0.583187255859,10.1165625,0.1,0.0,0.0,0.0,0.1,0.0,0.0,0.0,0.1
1446038278095764434,95,1446038278092648029,robocape,8.30779986314,7.60353678247,-17.9028029419,0.0,10.0,0.0,0.0,0.0,10.0,0.0,0.0,0.0,10.0,-0.099868540878,0.0162452826495,-0.00932106381528,1.0,0.0,0.0,0.0,1.0,0.0,0.0,0.0,1.0,0.0455053710938,-2.05612426758,10.0411193848,0.1,0.0,0.0,0.0,0.1,0.0,0.0,0.0,0.1
1446038278129104059,96,1446038278126045942,robocape,8.37886147069,7.60369948921,-17.7751927736,0.0,10.0,0.0,0.0,0.0,10.0,0.0,0.0,0.0,10.0,0.0376837294246,0.015845808486,0.0475374254579,1.0,0.0,0.0,0.0,1.0,0.0,0.0,0.0,1.0,0.0107775878906,-0.950822753906,10.535690918,0.1,0.0,0.0,0.0,0.1,0.0,0.0,0.0,0.1
1446038278162605142,97,1446038278159427881,robocape,8.25647242064,7.47098746938,-17.2498253887,0.0,10.0,0.0,0.0,0.0,10.0,0.0,0.0,0.0,10.0,-0.0949416928613,-0.0258326625738,0.26991137648,1.0,0.0,0.0,0.0,1.0,0.0,0.0,0.0,1.0,-0.438288574219,-0.742456054688,12.2385498047,0.1,0.0,0.0,0.0,0.1,0.0,0.0,0.0,0.1
1446038278195813475,98,1446038278192778110,robocape,7.86537576233,6.94381938165,-16.4544995755,0.0,10.0,0.0,0.0,0.0,10.0,0.0,0.0,0.0,10.0,-0.255929780757,-0.21465078386,0.445680008425,1.0,0.0,0.0,0.0,1.0,0.0,0.0,0.0,1.0,-4.97924560547,-0.707728271484,9.85670288086,0.1,0.0,0.0,0.0,0.1,0.0,0.0,0.0,0.1
1446038278229161684,99,1446038278226139068,robocape,6.82327944718,6.68597789339,-15.2681619836,0.0,10.0,0.0,0.0,0.0,10.0,0.0,0.0,0.0,10.0,-0.62144864037,-0.0565921731642,0.633299707221,1.0,0.0,0.0,0.0,1.0,0.0,0.0,0.0,1.0,-8.39813598633,-2.81893798828,10.3201391602,0.1,0.0,0.0,0.0,0.1,0.0,0.0,0.0,0.1
1446038278263169059,100,1446038278259896993,robocape,5.62262055577,6.16014190304,-13.7644690216,0.0,10.0,0.0,0.0,0.0,10.0,0.0,0.0,0.0,10.0,-0.720118758757,-0.191747598486,0.815193609673,1.0,0.0,0.0,0.0,1.0,0.0,0.0,0.0,1.0,-4.36731811523,-0.190404052734,9.44835205078,0.1,0.0,0.0,0.0,0.1,0.0,0.0,0.0,0.1
1446038278296149975,101,1446038278292834997,robocape,3.83276964412,6.02660649782,-12.6392142548,0.0,10.0,0.0,0.0,0.0,10.0,0.0,0.0,0.0,10.0,-1.00081593765,-0.0226368692657,0.592686500597,1.0,0.0,0.0,0.0,1.0,0.0,0.0,0.0,1.0,-9.30584838867,-1.11368408203,11.629017334,0.1,0.0,0.0,0.0,0.1,0.0,0.0,0.0,0.1
1446038278329314267,102,1446038278326020956,robocape,1.76221202547,5.63473586997,-12.2419194202,0.0,10.0,0.0,0.0,0.0,10.0,0.0,0.0,0.0,10.0,-1.10494553627,-0.193878127358,0.214384467751,1.0,0.0,0.0,0.0,1.0,0.0,0.0,0.0,1.0,-8.03529052734,-0.367635498047,8.13707885742,0.1,0.0,0.0,0.0,0.1,0.0,0.0,0.0,0.1
1446038278363162850,103,1446038278359509944,robocape,-0.999418713121,5.97783341268,-12.5144426695,0.0,10.0,0.0,0.0,0.0,10.0,0.0,0.0,0.0,10.0,-1.43211487619,0.183358641052,-0.153264920734,1.0,0.0,0.0,0.0,1.0,0.0,0.0,0.0,1.0,-4.43198364258,1.16637451172,12.5630749512,0.1,0.0,0.0,0.0,0.1,0.0,0.0,0.0,0.1
1446038278396537100,104,1446038278393146991,robocape,-4.64423158537,5.72562387689,-13.0160581189,0.0,10.0,0.0,0.0,0.0,10.0,0.0,0.0,0.0,10.0,-1.88658331621,-0.11265171411,-0.281895601385,1.0,0.0,0.0,0.0,1.0,0.0,0.0,0.0,1.0,-8.26281738281,-1.62621826172,9.26752807617,0.1,0.0,0.0,0.0,0.1,0.0,0.0,0.0,0.1
1446038278429379809,105,1446038278426125049,robocape,-8.03153562359,6.153139805,-14.4072500578,0.0,10.0,0.0,0.0,0.0,10.0,0.0,0.0,0.0,10.0,-1.71467626785,0.317715118046,-0.727042977592,1.0,0.0,0.0,0.0,1.0,0.0,0.0,0.0,1.0,-13.815670166,-3.03927978516,12.1319714355,0.1,0.0,0.0,0.0,0.1,0.0,0.0,0.0,0.1
1446038278462665517,106,1446038278459340095,robocape,-11.0376243874,6.49139891327,-16.6455555247,0.0,10.0,0.0,0.0,0.0,10.0,0.0,0.0,0.0,10.0,-1.47658966639,0.392416786623,-1.17059245714,1.0,0.0,0.0,0.0,1.0,0.0,0.0,0.0,1.0,-6.15999023438,-0.661025390625,11.3907128906,0.1,0.0,0.0,0.0,0.1,0.0,0.0,0.0,0.1
1446038278496118017,107,1446038278492834091,robocape,-13.7968934562,6.68178317985,-19.0282402319,0.0,10.0,0.0,0.0,0.0,10.0,0.0,0.0,0.0,10.0,-1.34862477602,0.396677844367,-1.25767782479,1.0,0.0,0.0,0.0,1.0,0.0,0.0,0.0,1.0,-6.81143554688,-3.0692175293,10.898536377,0.1,0.0,0.0,0.0,0.1,0.0,0.0,0.0,0.1
1446038278529402392,108,1446038278526272058,robocape,-15.46086542,6.84794455228,-21.8044016192,0.0,10.0,0.0,0.0,0.0,10.0,0.0,0.0,0.0,10.0,-0.756870381801,0.48869006003,-1.45994490958,1.0,0.0,0.0,0.0,1.0,0.0,0.0,0.0,1.0,-7.56826171875,-4.15655639648,11.0266699219,0.1,0.0,0.0,0.0,0.1,0.0,0.0,0.0,0.1
1446038278562778809,109,1446038278559561967,robocape,-16.1847421035,7.08299366969,-24.6114383168,0.0,10.0,0.0,0.0,0.0,10.0,0.0,0.0,0.0,10.0,-0.259791364337,0.560062777244,-1.4663364962,1.0,0.0,0.0,0.0,1.0,0.0,0.0,0.0,1.0,-9.24836791992,-3.12669799805,12.3331530762,0.1,0.0,0.0,0.0,0.1,0.0,0.0,0.0,0.1
1446038278596035267,110,1446038278592910051,robocape,-15.8687855242,7.4683395617,-26.5021362813,0.0,10.0,0.0,0.0,0.0,10.0,0.0,0.0,0.0,10.0,0.24833977165,0.499609020499,-0.965129579045,1.0,0.0,0.0,0.0,1.0,0.0,0.0,0.0,1.0,-7.89997192383,-1.06458618164,11.6912878418,0.1,0.0,0.0,0.0,0.1,0.0,0.0,0.0,0.1
1446038278629408892,111,1446038278626355886,robocape,-16.4443504809,7.51810640767,-27.4543332613,0.0,10.0,0.0,0.0,0.0,10.0,0.0,0.0,0.0,10.0,-0.275903488932,0.193744969303,-0.539955911014,1.0,0.0,0.0,0.0,1.0,0.0,0.0,0.0,1.0,-7.90835449219,-0.470621337891,9.34057617188,0.1,0.0,0.0,0.0,0.1,0.0,0.0,0.0,0.1
1446038278663993101,112,1446038278660780906,robocape,-17.4811184985,7.91178757943,-27.9953508361,0.0,10.0,0.0,0.0,0.0,10.0,0.0,0.0,0.0,10.0,-0.546613813739,0.31132353143,-0.281096653058,1.0,0.0,0.0,0.0,1.0,0.0,0.0,0.0,1.0,-10.0219592285,-0.803529052734,11.7343981934,0.1,0.0,0.0,0.0,0.1,0.0,0.0,0.0,0.1
1446038278697328851,113,1446038278694093942,robocape,-19.5937564484,7.74117369938,-28.0234304713,0.0,10.0,0.0,0.0,0.0,10.0,0.0,0.0,0.0,10.0,-1.15394770033,-0.0460726868584,-0.118910142672,1.0,0.0,0.0,0.0,1.0,0.0,0.0,0.0,1.0,-4.90380249023,0.302969970703,7.71675292969,0.1,0.0,0.0,0.0,0.1,0.0,0.0,0.0,0.1
1446038278729269892,114,1446038278726243019,robocape,-22.7380872743,7.77654616948,-28.1875196096,0.0,10.0,0.0,0.0,0.0,10.0,0.0,0.0,0.0,10.0,-1.71787206116,0.0984038022784,-0.180695479962,1.0,0.0,0.0,0.0,1.0,0.0,0.0,0.0,1.0,-3.40452026367,-0.779578857422,12.8576623535,0.1,0.0,0.0,0.0,0.1,0.0,0.0,0.0,0.1
1446038278763254142,115,1446038278759859085,robocape,-27.2916070797,7.62902603691,-27.8539138979,0.0,10.0,0.0,0.0,0.0,10.0,0.0,0.0,0.0,10.0,-2.53945725745,-0.0757669330128,-0.0126500151779,1.0,0.0,0.0,0.0,1.0,0.0,0.0,0.0,1.0,-4.01644775391,1.46455444336,6.1659777832,0.1,0.0,0.0,0.0,0.1,0.0,0.0,0.0,0.1
1446038278799976892,116,1446038278796793937,robocape,-32.6816028828,6.99785756175,-28.21629876,0.0,10.0,0.0,0.0,0.0,10.0,0.0,0.0,0.0,10.0,-3.04292786152,-0.082424835738,-0.53955643685,1.0,0.0,0.0,0.0,1.0,0.0,0.0,0.0,1.0,-2.42974731445,-15.2790270996,8.6951184082,0.1,0.0,0.0,0.0,0.1,0.0,0.0,0.0,0.1
1446038278829961809,117,1446038278826867103,robocape,-32.9640387506,8.40423244594,-32.0655994618,0.0,10.0,0.0,0.0,0.0,10.0,0.0,0.0,0.0,10.0,-0.0765658813398,1.81973797285,-1.46380649316,1.0,0.0,0.0,0.0,1.0,0.0,0.0,0.0,1.0,-1.81063476563,-19.4044482422,19.3373876953,0.1,0.0,0.0,0.0,0.1,0.0,0.0,0.0,0.1
1446038278868216351,118,1446038278859694004,robocape,-30.7422153248,9.84784359192,-35.0626800289,0.0,10.0,0.0,0.0,0.0,10.0,0.0,0.0,0.0,10.0,1.32971633228,1.52079814049,-1.01053647563,1.0,0.0,0.0,0.0,1.0,0.0,0.0,0.0,1.0,-5.79115722656,-0.192799072266,8.10354858398,0.1,0.0,0.0,0.0,0.1,0.0,0.0,0.0,0.1
1446038278897679642,119,1446038278894634008,robocape,-30.8615115488,9.85678762078,-35.3862730844,0.0,10.0,0.0,0.0,0.0,10.0,0.0,0.0,0.0,10.0,-0.110920659402,0.143943856919,-0.232893437327,1.0,0.0,0.0,0.0,1.0,0.0,0.0,0.0,1.0,-9.09867919922,3.63923217773,7.34791992188,0.1,0.0,0.0,0.0,0.1,0.0,0.0,0.0,0.1
1446038278929364351,120,1446038278926243066,robocape,-33.9527541186,9.84958039139,-33.8304914688,0.0,10.0,0.0,0.0,0.0,10.0,0.0,0.0,0.0,10.0,-1.87260172049,-0.364986227395,0.559396986971,1.0,0.0,0.0,0.0,1.0,0.0,0.0,0.0,1.0,-3.13029052734,2.53632568359,7.60777954102,0.1,0.0,0.0,0.0,0.1,0.0,0.0,0.0,0.1
1446038278962535892,121,1446038278959409952,robocape,-34.9863865447,9.60902851725,-33.8274405588,0.0,10.0,0.0,0.0,0.0,10.0,0.0,0.0,0.0,10.0,-0.658732895631,-0.0326237233535,-0.183491799106,1.0,0.0,0.0,0.0,1.0,0.0,0.0,0.0,1.0,9.42919189453,-16.4765368652,10.7284899902,0.1,0.0,0.0,0.0,0.1,0.0,0.0,0.0,0.1
1446038278995921434,122,1446038278992813110,robocape,-32.7884996313,9.38732224525,-36.147390509,0.0,10.0,0.0,0.0,0.0,10.0,0.0,0.0,0.0,10.0,1.280181536,0.622513904806,-1.13863452406,1.0,0.0,0.0,0.0,1.0,0.0,0.0,0.0,1.0,3.41290283203,-8.19575683594,10.7644152832,0.1,0.0,0.0,0.0,0.1,0.0,0.0,0.0,0.1
1446038279029423517,123,1446038279026345014,robocape,-30.61565949,9.56937072505,-38.4897578287,0.0,10.0,0.0,0.0,0.0,10.0,0.0,0.0,0.0,10.0,1.25967519561,0.779374093012,-1.08390656366,1.0,0.0,0.0,0.0,1.0,0.0,0.0,0.0,1.0,-6.86891601563,-2.44411743164,7.77064086914,0.1,0.0,0.0,0.0,0.1,0.0,0.0,0.0,0.1
1446038279062700976,124,1446038279059643983,robocape,-28.493943667,10.2938029068,-40.8163921543,0.0,10.0,0.0,0.0,0.0,10.0,0.0,0.0,0.0,10.0,1.23530727163,0.997486986289,-0.988831712746,1.0,0.0,0.0,0.0,1.0,0.0,0.0,0.0,1.0,-1.20708984375,-0.675395507813,14.0036791992,0.1,0.0,0.0,0.0,0.1,0.0,0.0,0.0,0.1
1446038279095963517,125,1446038279092905998,robocape,-26.8748340515,10.9879457305,-42.4287601605,0.0,10.0,0.0,0.0,0.0,10.0,0.0,0.0,0.0,10.0,0.927046375457,0.781504621884,-0.701210315018,1.0,0.0,0.0,0.0,1.0,0.0,0.0,0.0,1.0,2.31239135742,1.51125732422,9.86867797852,0.1,0.0,0.0,0.0,0.1,0.0,0.0,0.0,0.1
1446038279129490809,126,1446038279126470088,robocape,-27.1149714238,11.1251807043,-42.8624593786,0.0,10.0,0.0,0.0,0.0,10.0,0.0,0.0,0.0,10.0,-0.159789665405,0.238486075617,-0.306662999523,1.0,0.0,0.0,0.0,1.0,0.0,0.0,0.0,1.0,-3.48834594727,0.793948974609,9.26393554688,0.1,0.0,0.0,0.0,0.1,0.0,0.0,0.0,0.1
1446038279162728434,127,1446038279159691095,robocape,-28.8411423452,11.4972461397,-43.000259355,0.0,10.0,0.0,0.0,0.0,10.0,0.0,0.0,0.0,10.0,-0.995622773526,0.300271412906,-0.15020228548,1.0,0.0,0.0,0.0,1.0,0.0,0.0,0.0,1.0,2.24173828125,1.95194091797,12.1080212402,0.1,0.0,0.0,0.0,0.1,0.0,0.0,0.0,0.1
1446038279195920059,128,1446038279192903995,robocape,-31.9342106303,11.6359017352,-42.6670100735,0.0,10.0,0.0,0.0,0.0,10.0,0.0,0.0,0.0,10.0,-1.79483741666,0.0910801092807,-0.0238352917562,1.0,0.0,0.0,0.0,1.0,0.0,0.0,0.0,1.0,-0.458646240234,0.319735107422,4.68106567383,0.1,0.0,0.0,0.0,0.1,0.0,0.0,0.0,0.1
1446038279229479059,129,1446038279226300001,robocape,-34.0647482087,12.041003565,-44.3424182046,0.0,10.0,0.0,0.0,0.0,10.0,0.0,0.0,0.0,10.0,-1.16593192524,0.84289048501,-0.931174275146,1.0,0.0,0.0,0.0,1.0,0.0,0.0,0.0,1.0,8.41370361328,-12.9007727051,17.2022277832,0.1,0.0,0.0,0.0,0.1,0.0,0.0,0.0,0.1
1446038279262741809,130,1446038279259423017,robocape,-32.4446485064,11.992962657,-47.7993064292,0.0,10.0,0.0,0.0,0.0,10.0,0.0,0.0,0.0,10.0,1.03916545735,1.13930031434,-1.80229426771,1.0,0.0,0.0,0.0,1.0,0.0,0.0,0.0,1.0,4.76489135742,-4.81877929688,10.9979296875,0.1,0.0,0.0,0.0,0.1,0.0,0.0,0.0,0.1
1446038279295781101,131,1446038279292752027,robocape,-29.2648011837,12.2483922228,-51.3697498643,0.0,10.0,0.0,0.0,0.0,10.0,0.0,0.0,0.0,10.0,1.91361440128,1.22705147225,-1.80442479658,1.0,0.0,0.0,0.0,1.0,0.0,0.0,0.0,1.0,1.3448034668,-4.47748901367,12.9331054688,0.1,0.0,0.0,0.0,0.1,0.0,0.0,0.0,0.1
1446038279329354226,132,1446038279325970888,robocape,-24.2566452823,12.6358670849,-54.8545502248,0.0,10.0,0.0,0.0,0.0,10.0,0.0,0.0,0.0,10.0,2.91962350305,1.13983294655,-1.79896531635,1.0,0.0,0.0,0.0,1.0,0.0,0.0,0.0,1.0,0.940045166016,-3.84999389648,11.0602001953,0.1,0.0,0.0,0.0,0.1,0.0,0.0,0.0,0.1
1446038279362512101,133,1446038279359287977,robocape,-17.8295861303,12.9855498241,-57.9251654626,0.0,10.0,0.0,0.0,0.0,10.0,0.0,0.0,0.0,10.0,3.66717282104,0.882704743307,-1.72626101859,1.0,0.0,0.0,0.0,1.0,0.0,0.0,0.0,1.0,-3.55420898438,-2.86923339844,9.45194458008,0.1,0.0,0.0,0.0,0.1,0.0,0.0,0.0,0.1
1446038279396003726,134,1446038279392693996,robocape,-10.2051317217,13.4782083946,-60.5297048998,0.0,10.0,0.0,0.0,0.0,10.0,0.0,0.0,0.0,10.0,4.29594515441,0.729439822573,-1.64183881203,1.0,0.0,0.0,0.0,1.0,0.0,0.0,0.0,1.0,-2.84767822266,-2.78421020508,8.11552368164,0.1,0.0,0.0,0.0,0.1,0.0,0.0,0.0,0.1
1446038279432405434,135,1446038279428570985,robocape,-2.39015395384,13.4864396664,-62.3281232153,0.0,10.0,0.0,0.0,0.0,10.0,0.0,0.0,0.0,10.0,4.36318997193,0.251269248849,-1.41227432607,1.0,0.0,0.0,0.0,1.0,0.0,0.0,0.0,1.0,-0.968785400391,-1.79985717773,5.33849853516,0.1,0.0,0.0,0.0,0.1,0.0,0.0,0.0,0.1
1446038279465671726,136,1446038279462421894,robocape,5.4527180768,13.4191035538,-63.4114470124,0.0,10.0,0.0,0.0,0.0,10.0,0.0,0.0,0.0,10.0,4.36318997193,0.0757669330128,-1.14396084624,1.0,0.0,0.0,0.0,1.0,0.0,0.0,0.0,1.0,0.643062744141,-1.58670043945,3.01293457031,0.1,0.0,0.0,0.0,0.1,0.0,0.0,0.0,0.1
1446038279499105726,137,1446038279495858907,robocape,13.2681653832,13.6012356452,-63.8480346435,0.0,10.0,0.0,0.0,0.0,10.0,0.0,0.0,0.0,10.0,4.36318997193,0.157525978478,-0.934769542618,1.0,0.0,0.0,0.0,1.0,0.0,0.0,0.0,1.0,2.81654296875,-0.778381347656,3.19974609375,0.1,0.0,0.0,0.0,0.1,0.0,0.0,0.0,0.1
1446038279530917768,138,1446038279527749061,robocape,21.12061214,14.3170573851,-63.3296298743,0.0,10.0,0.0,0.0,0.0,10.0,0.0,0.0,0.0,10.0,4.36318997193,0.502139023534,-0.625043907842,1.0,0.0,0.0,0.0,1.0,0.0,0.0,0.0,1.0,4.67627563477,-0.076640625,2.14713500977,0.1,0.0,0.0,0.0,0.1,0.0,0.0,0.0,0.1
1446038279565415643,139,1446038279562037944,robocape,29.4398391749,14.742211062,-60.385071794,0.0,10.0,0.0,0.0,0.0,10.0,0.0,0.0,0.0,10.0,4.23003191743,0.859535241823,0.77724356414,1.0,0.0,0.0,0.0,1.0,0.0,0.0,0.0,1.0,10.7692053223,19.6194012451,10.7488476563,0.1,0.0,0.0,0.0,0.1,0.0,0.0,0.0,0.1
1446038279598705559,140,1446038279595482110,robocape,28.3031663574,16.523498487,-55.7764296271,0.0,10.0,0.0,0.0,0.0,10.0,0.0,0.0,0.0,10.0,-1.5476960675,1.93212337085,2.1465078386,1.0,0.0,0.0,0.0,1.0,0.0,0.0,0.0,1.0,2.11001220703,19.6194012451,15.9735827637,0.1,0.0,0.0,0.0,0.1,0.0,0.0,0.0,0.1
1446038279631155059,141,1446038279628057956,robocape,23.911032121,17.8331418155,-52.9087518794,0.0,10.0,0.0,0.0,0.0,10.0,0.0,0.0,0.0,10.0,-3.02987837218,1.21626566984,1.53850816174,1.0,0.0,0.0,0.0,1.0,0.0,0.0,0.0,1.0,-5.56123535156,2.19024536133,3.70150268555,0.1,0.0,0.0,0.0,0.1,0.0,0.0,0.0,0.1
1446038279664767476,142,1446038279661513090,robocape,19.6873142884,18.325575719,-51.6684984197,0.0,10.0,0.0,0.0,0.0,10.0,0.0,0.0,0.0,10.0,-2.54571568601,0.437956841264,0.752343007947,1.0,0.0,0.0,0.0,1.0,0.0,0.0,0.0,1.0,-1.77830200195,-1.4944921875,9.26872558594,0.1,0.0,0.0,0.0,0.1,0.0,0.0,0.0,0.1
1446038279697118559,143,1446038279693734884,robocape,16.8190448784,16.8048570861,-51.2837545482,0.0,10.0,0.0,0.0,0.0,10.0,0.0,0.0,0.0,10.0,-1.62825669047,-0.715325068795,0.577905956547,1.0,0.0,0.0,0.0,1.0,0.0,0.0,0.0,1.0,-6.80544799805,-0.880169677734,15.6334899902,0.1,0.0,0.0,0.0,0.1,0.0,0.0,0.0,0.1
1446038279730450768,144,1446038279727376937,robocape,14.5247743895,16.9418386496,-50.9136747845,0.0,10.0,0.0,0.0,0.0,10.0,0.0,0.0,0.0,10.0,-1.25434887343,0.120508039326,0.150734917698,1.0,0.0,0.0,0.0,1.0,0.0,0.0,0.0,1.0,2.1806652832,-0.767603759766,0.793948974609,0.1,0.0,0.0,0.0,0.1,0.0,0.0,0.0,0.1
1446038279764098434,145,1446038279760855913,robocape,13.2824917706,17.9735540366,-50.1871650619,0.0,10.0,0.0,0.0,0.0,10.0,0.0,0.0,0.0,10.0,-0.737562463897,0.625976014223,0.150868075753,1.0,0.0,0.0,0.0,1.0,0.0,0.0,0.0,1.0,-1.45736938477,-0.456251220703,16.6429907227,0.1,0.0,0.0,0.0,0.1,0.0,0.0,0.0,0.1
1446038279797154184,146,1446038279793889045,robocape,12.8525738299,18.0198246823,-49.6471856616,0.0,10.0,0.0,0.0,0.0,10.0,0.0,0.0,0.0,10.0,-0.280697178894,0.102398543914,0.173771261128,1.0,0.0,0.0,0.0,1.0,0.0,0.0,0.0,1.0,2.15432006836,0.0634680175781,11.2901220703,0.1,0.0,0.0,0.0,0.1,0.0,0.0,0.0,0.1
1446038279829652143,147,1446038279826528072,robocape,12.5394066188,17.9457122604,-48.6878248421,0.0,10.0,0.0,0.0,0.0,10.0,0.0,0.0,0.0,10.0,-0.308394054231,0.0735032460862,0.446745272861,1.0,0.0,0.0,0.0,1.0,0.0,0.0,0.0,1.0,-1.43102416992,2.17348022461,9.08909912109,0.1,0.0,0.0,0.0,0.1,0.0,0.0,0.0,0.1
1446038279869415726,148,1446038279861371040,robocape,11.0088425167,18.0271580848,-46.4551807887,0.0,10.0,0.0,0.0,0.0,10.0,0.0,0.0,0.0,10.0,-1.22119251786,0.227966589311,1.24356307101,1.0,0.0,0.0,0.0,1.0,0.0,0.0,0.0,1.0,-5.41513916016,5.18401977539,12.4038061523,0.1,0.0,0.0,0.0,0.1,0.0,0.0,0.0,0.1
1446038279897411184,149,1446038279894373893,robocape,5.95909491455,18.1647134706,-43.321623442,0.0,10.0,0.0,0.0,0.0,10.0,0.0,0.0,0.0,10.0,-3.25251863931,0.197340236775,1.89230911256,1.0,0.0,0.0,0.0,1.0,0.0,0.0,0.0,1.0,-1.78069702148,5.81989746094,9.08909912109,0.1,0.0,0.0,0.0,0.1,0.0,0.0,0.0,0.1
1446038279929440101,150,1446038279926351070,robocape,-1.31009711656,18.3603434745,-40.5061519115,0.0,10.0,0.0,0.0,0.0,10.0,0.0,0.0,0.0,10.0,-4.30926095986,0.0516653251475,1.68910992138,1.0,0.0,0.0,0.0,1.0,0.0,0.0,0.0,1.0,-3.50151855469,1.8741027832,4.98403564453,0.1,0.0,0.0,0.0,0.1,0.0,0.0,0.0,0.1
1446038279962670893,151,1446038279959575891,robocape,-9.01619184743,18.2606209962,-39.3084257644,0.0,10.0,0.0,0.0,0.0,10.0,0.0,0.0,0.0,10.0,-4.23455929128,-0.137951744466,0.659665002013,1.0,0.0,0.0,0.0,1.0,0.0,0.0,0.0,1.0,-3.23686889648,-2.13994995117,6.50846557617,0.1,0.0,0.0,0.0,0.1,0.0,0.0,0.0,0.1
1446038279995887935,152,1446038279992780923,robocape,-16.3327697052,18.0152208292,-38.883227713,0.0,10.0,0.0,0.0,0.0,10.0,0.0,0.0,0.0,10.0,-3.9248336565,-0.131293841741,0.103596966404,1.0,0.0,0.0,0.0,1.0,0.0,0.0,0.0,1.0,-4.44635375977,-2.42016723633,6.67731445313,0.1,0.0,0.0,0.0,0.1,0.0,0.0,0.0,0.1
1446038280031180768,153,1446038280028088092,robocape,-22.7745351935,17.6555657858,-38.9947563472,0.0,10.0,0.0,0.0,0.0,10.0,0.0,0.0,0.0,10.0,-3.43481201593,-0.04966795433,-0.291616139364,1.0,0.0,0.0,0.0,1.0,0.0,0.0,0.0,1.0,-2.80217285156,-4.39845336914,7.5838293457,0.1,0.0,0.0,0.0,0.1,0.0,0.0,0.0,0.1
1446038280062514268,154,1446038280059401035,robocape,-27.2597340859,17.0871824292,-40.7652926379,0.0,10.0,0.0,0.0,0.0,10.0,0.0,0.0,0.0,10.0,-2.22986478072,0.302801415942,-1.22199146618,1.0,0.0,0.0,0.0,1.0,0.0,0.0,0.0,1.0,-1.85853515625,-6.20190307617,10.6817871094,0.1,0.0,0.0,0.0,0.1,0.0,0.0,0.0,0.1
1446038280095970518,155,1446038280092660903,robocape,-29.1159603216,16.8277875972,-43.6426989527,0.0,10.0,0.0,0.0,0.0,10.0,0.0,0.0,0.0,10.0,-0.716789807395,0.796551482043,-1.67166621624,1.0,0.0,0.0,0.0,1.0,0.0,0.0,0.0,1.0,-1.61184814453,-6.18513793945,13.6504138184,0.1,0.0,0.0,0.0,0.1,0.0,0.0,0.0,0.1
1446038280129390768,156,1446038280126384973,robocape,-28.1092526648,16.4524424086,-46.4974616861,0.0,10.0,0.0,0.0,0.0,10.0,0.0,0.0,0.0,10.0,0.82424835738,0.698813470037,-1.62546037133,1.0,0.0,0.0,0.0,1.0,0.0,0.0,0.0,1.0,-3.20333862305,-4.58167236328,11.5284265137,0.1,0.0,0.0,0.0,0.1,0.0,0.0,0.0,0.1
1446038280162570935,157,1446038280159569978,robocape,-25.5620323557,15.9546933827,-48.901141091,0.0,10.0,0.0,0.0,0.0,10.0,0.0,0.0,0.0,10.0,1.60002718292,0.45087317255,-1.41786696436,1.0,0.0,0.0,0.0,1.0,0.0,0.0,0.0,1.0,-3.77455078125,-2.65847167969,10.8937463379,0.1,0.0,0.0,0.0,0.1,0.0,0.0,0.0,0.1
1446038280199308685,158,1446038280196177005,robocape,-21.7818005347,15.5845602935,-51.2826950808,0.0,10.0,0.0,0.0,0.0,10.0,0.0,0.0,0.0,10.0,2.25662954968,0.430499990211,-1.40228747198,1.0,0.0,0.0,0.0,1.0,0.0,0.0,0.0,1.0,-1.61065063477,-2.81774047852,9.25196044922,0.1,0.0,0.0,0.0,0.1,0.0,0.0,0.0,0.1
1446038280238065643,159,1446038280234381914,robocape,-16.42862406,15.3394282486,-53.6636634008,0.0,10.0,0.0,0.0,0.0,10.0,0.0,0.0,0.0,10.0,3.09965319274,0.394547315495,-1.4265222379,1.0,0.0,0.0,0.0,1.0,0.0,0.0,0.0,1.0,-2.89557861328,-2.07169189453,9.16933227539,0.1,0.0,0.0,0.0,0.1,0.0,0.0,0.0,0.1
1446038280265634685,160,1446038280262356996,robocape,-10.8513124252,15.4635753444,-54.9382583972,0.0,10.0,0.0,0.0,0.0,10.0,0.0,0.0,0.0,10.0,3.08966633866,0.308394054231,-0.829840995669,1.0,0.0,0.0,0.0,1.0,0.0,0.0,0.0,1.0,-5.52650756836,1.46814697266,8.40891357422,0.1,0.0,0.0,0.0,0.1,0.0,0.0,0.0,0.1
1446038280300450351,161,1446038280296276092,robocape,-7.29116289008,15.6634251532,-54.4613509479,0.0,10.0,0.0,0.0,0.0,10.0,0.0,0.0,0.0,10.0,1.79869900024,0.100001698932,0.160854929841,1.0,0.0,0.0,0.0,1.0,0.0,0.0,0.0,1.0,-4.77447143555,5.32772094727,6.95992675781,0.1,0.0,0.0,0.0,0.1,0.0,0.0,0.0,0.1
1446038280334324060,162,1446038280330835103,robocape,-7.50615033986,15.969575897,-52.1727514338,0.0,10.0,0.0,0.0,0.0,10.0,0.0,0.0,0.0,10.0,-0.439155263754,-0.0307595105904,1.28177943266,1.0,0.0,0.0,0.0,1.0,0.0,0.0,0.0,1.0,-1.63460083008,7.17068847656,10.8925488281,0.1,0.0,0.0,0.0,0.1,0.0,0.0,0.0,0.1
1446038280366425435,163,1446038280362799882,robocape,-11.1211798332,15.8415082565,-49.7352742351,0.0,10.0,0.0,0.0,0.0,10.0,0.0,0.0,0.0,10.0,-2.23332689014,-0.31545143112,1.33957002831,1.0,0.0,0.0,0.0,1.0,0.0,0.0,0.0,1.0,-5.72529418945,4.7936315918,6.76114013672,0.1,0.0,0.0,0.0,0.1,0.0,0.0,0.0,0.1
1446038280400151060,164,1446038280396641969,robocape,-17.2994836563,15.6501299004,-47.6309380897,0.0,10.0,0.0,0.0,0.0,10.0,0.0,0.0,0.0,10.0,-3.52922107657,-0.375239397592,1.04688862451,1.0,0.0,0.0,0.0,1.0,0.0,0.0,0.0,1.0,-3.23686889648,2.19503540039,6.97908691406,0.1,0.0,0.0,0.0,0.1,0.0,0.0,0.0,0.1
1446038280433483685,165,1446038280430394887,robocape,-24.3787152483,15.1803435827,-46.6305627848,0.0,10.0,0.0,0.0,0.0,10.0,0.0,0.0,0.0,10.0,-3.9128494316,-0.332362504042,0.221841318804,1.0,0.0,0.0,0.0,1.0,0.0,0.0,0.0,1.0,-1.74117919922,-0.290994873047,7.0090246582,0.1,0.0,0.0,0.0,0.1,0.0,0.0,0.0,0.1
1446038280462375351,166,1446038280459315061,robocape,-31.4876874008,14.9753781479,-45.9797035838,0.0,10.0,0.0,0.0,0.0,10.0,0.0,0.0,0.0,10.0,-3.98169214578,-0.0844222065555,-0.0548611184556,1.0,0.0,0.0,0.0,1.0,0.0,0.0,0.0,1.0,-1.07895629883,-1.08614135742,8.15983154297,0.1,0.0,0.0,0.0,0.1,0.0,0.0,0.0,0.1
1446038280495748893,167,1446038280492650032,robocape,-38.0721006131,14.7632518762,-46.0258722399,0.0,10.0,0.0,0.0,0.0,10.0,0.0,0.0,0.0,10.0,-3.75718766588,0.195875498175,-0.508930084314,1.0,0.0,0.0,0.0,1.0,0.0,0.0,0.0,1.0,1.23583007813,-2.97700927734,7.62693969727,0.1,0.0,0.0,0.0,0.1,0.0,0.0,0.0,0.1
1446038280529396560,168,1446038280526171922,robocape,-42.2918192076,14.3658795431,-47.5038432465,0.0,10.0,0.0,0.0,0.0,10.0,0.0,0.0,0.0,10.0,-2.42813712388,0.682834503496,-1.20574618353,1.0,0.0,0.0,0.0,1.0,0.0,0.0,0.0,1.0,0.00359252929688,-7.5526940918,12.5067919922,0.1,0.0,0.0,0.0,0.1,0.0,0.0,0.0,0.1
1446038280564843768,169,1446038280561758995,robocape,-42.8068330452,14.0514970036,-50.4718344234,0.0,10.0,0.0,0.0,0.0,10.0,0.0,0.0,0.0,10.0,-0.239684498107,1.23011410751,-1.66114672994,1.0,0.0,0.0,0.0,1.0,0.0,0.0,0.0,1.0,2.58183105469,-9.98124389648,16.4465991211,0.1,0.0,0.0,0.0,0.1,0.0,0.0,0.0,0.1
1446038280595683393,170,1446038280592601060,robocape,-42.2430984714,14.0071706721,-52.0693287806,0.0,10.0,0.0,0.0,0.0,10.0,0.0,0.0,0.0,10.0,0.286422975238,0.737562463897,-0.895621074594,1.0,0.0,0.0,0.0,1.0,0.0,0.0,0.0,1.0,-3.53744384766,1.73998168945,6.86891601563,0.1,0.0,0.0,0.0,0.1,0.0,0.0,0.0,0.1
1446038280629269851,171,1446038280625957965,robocape,-43.5947352753,13.9166445918,-51.8518796,0.0,10.0,0.0,0.0,0.0,10.0,0.0,0.0,0.0,10.0,-0.934503226509,0.0721716655411,-0.210256568062,1.0,0.0,0.0,0.0,1.0,0.0,0.0,0.0,1.0,-5.80313232422,-2.05492675781,7.75267822266,0.1,0.0,0.0,0.0,0.1,0.0,0.0,0.0,0.1
1446038280665408310,172,1446038280662295103,robocape,-43.7172544798,13.4529901277,-52.3172252247,0.0,10.0,0.0,0.0,0.0,10.0,0.0,0.0,0.0,10.0,-0.196541288448,0.164183881203,-0.586028597872,1.0,0.0,0.0,0.0,1.0,0.0,0.0,0.0,1.0,3.65360229492,-14.7042224121,13.7701647949,0.1,0.0,0.0,0.0,0.1,0.0,0.0,0.0,0.1
1446038280696022518,173,1446038280692691087,robocape,-41.6146830638,13.1636563371,-54.4493490641,0.0,10.0,0.0,0.0,0.0,10.0,0.0,0.0,0.0,10.0,1.1827098401,0.803608858931,-1.15354822617,1.0,0.0,0.0,0.0,1.0,0.0,0.0,0.0,1.0,-4.58406738281,-6.71323974609,11.5655493164,0.1,0.0,0.0,0.0,0.1,0.0,0.0,0.0,0.1
1446038280729948227,174,1446038280726516962,robocape,-40.1785793694,13.0799360901,-55.301120734,0.0,10.0,0.0,0.0,0.0,10.0,0.0,0.0,0.0,10.0,0.730505087009,0.377636242573,-0.548211710393,1.0,0.0,0.0,0.0,1.0,0.0,0.0,0.0,1.0,-2.20581298828,2.10162963867,6.10610229492,0.1,0.0,0.0,0.0,0.1,0.0,0.0,0.0,0.1
1446038280763061060,175,1446038280759609937,robocape,-40.9890423232,13.0046503638,-54.6939274548,0.0,10.0,0.0,0.0,0.0,10.0,0.0,0.0,0.0,10.0,-0.62411180146,-0.108257498312,0.0146473859954,1.0,0.0,0.0,0.0,1.0,0.0,0.0,0.0,1.0,-5.23910522461,2.18186279297,7.2006262207,0.1,0.0,0.0,0.0,0.1,0.0,0.0,0.0,0.1
1446038280795653435,176,1446038280792644977,robocape,-42.3946727917,12.7842141343,-54.6935249989,0.0,10.0,0.0,0.0,0.0,10.0,0.0,0.0,0.0,10.0,-0.952213247758,0.115581191309,-0.390818889969,1.0,0.0,0.0,0.0,1.0,0.0,0.0,0.0,1.0,6.17915039063,-9.6531262207,12.1319714355,0.1,0.0,0.0,0.0,0.1,0.0,0.0,0.0,0.1
1446038280829001310,177,1446038280825947046,robocape,-40.9547181968,12.4405677993,-57.3402301734,0.0,10.0,0.0,0.0,0.0,10.0,0.0,0.0,0.0,10.0,0.792290424299,1.04116282817,-1.54809554166,1.0,0.0,0.0,0.0,1.0,0.0,0.0,0.0,1.0,10.1465002441,-7.72034545898,14.6144091797,0.1,0.0,0.0,0.0,0.1,0.0,0.0,0.0,0.1
1446038280866150102,178,1446038280860749959,robocape,-37.6043316196,12.3985432954,-60.6095278746,0.0,10.0,0.0,0.0,0.0,10.0,0.0,0.0,0.0,10.0,1.91161703046,1.29469576394,-1.71214626481,1.0,0.0,0.0,0.0,1.0,0.0,0.0,0.0,1.0,-1.96271850586,-4.6786706543,12.9738208008,0.1,0.0,0.0,0.0,0.1,0.0,0.0,0.0,0.1
1446038280895725352,179,1446038280892695903,robocape,-32.5716836515,12.3889645334,-63.876162195,0.0,10.0,0.0,0.0,0.0,10.0,0.0,0.0,0.0,10.0,2.85344394997,1.17472035683,-1.75449052614,1.0,0.0,0.0,0.0,1.0,0.0,0.0,0.0,1.0,0.752036132813,-3.21291870117,10.9967321777,0.1,0.0,0.0,0.0,0.1,0.0,0.0,0.0,0.1
1446038280930206810,180,1446038280927196979,robocape,-25.6039236668,12.1725962508,-66.7532092725,0.0,10.0,0.0,0.0,0.0,10.0,0.0,0.0,0.0,10.0,3.88741624319,0.785366205464,-1.68591412807,1.0,0.0,0.0,0.0,1.0,0.0,0.0,0.0,1.0,2.35071166992,-2.46327758789,8.94779296875,0.1,0.0,0.0,0.0,0.1,0.0,0.0,0.0,0.1
1446038280963221935,181,1446038280959956884,robocape,-17.6781379603,12.3009465755,-69.0439230361,0.0,10.0,0.0,0.0,0.0,10.0,0.0,0.0,0.0,10.0,4.36318997193,0.653539731505,-1.45581700989,1.0,0.0,0.0,0.0,1.0,0.0,0.0,0.0,1.0,4.91218505859,-1.22026245117,9.37530395508,0.1,0.0,0.0,0.0,0.1,0.0,0.0,0.0,0.1
1446038280996551310,182,1446038280993290901,robocape,-9.68186691735,12.2854606623,-70.6053810999,0.0,10.0,0.0,0.0,0.0,10.0,0.0,0.0,0.0,10.0,4.36318997193,0.334359874859,-1.26034098588,1.0,0.0,0.0,0.0,1.0,0.0,0.0,0.0,1.0,2.02498901367,-1.10410400391,2.17467773438,0.1,0.0,0.0,0.0,0.1,0.0,0.0,0.0,0.1
1446038281029350643,183,1446038281026267051,robocape,-1.6564368633,12.6844105863,-71.4990954418,0.0,10.0,0.0,0.0,0.0,10.0,0.0,0.0,0.0,10.0,4.36318997193,0.395079947713,-1.01639543003,1.0,0.0,0.0,0.0,1.0,0.0,0.0,0.0,1.0,-2.62374389648,-0.416733398438,6.95154418945,0.1,0.0,0.0,0.0,0.1,0.0,0.0,0.0,0.1
1446038281062956643,184,1446038281059706926,robocape,6.45132910896,12.6650049729,-71.4990550382,0.0,10.0,0.0,0.0,0.0,10.0,0.0,0.0,0.0,10.0,4.36318997193,0.0884169481906,-0.582965962618,1.0,0.0,0.0,0.0,1.0,0.0,0.0,0.0,1.0,-2.59859619141,0.184416503906,3.39134765625,0.1,0.0,0.0,0.0,0.1,0.0,0.0,0.0,0.1
1446038281095922518,185,1446038281092849969,robocape,14.5252563692,12.7529528239,-70.9452546617,0.0,10.0,0.0,0.0,0.0,10.0,0.0,0.0,0.0,10.0,4.36318997193,0.164583355367,-0.40679785651,1.0,0.0,0.0,0.0,1.0,0.0,0.0,0.0,1.0,-1.8812878418,0.683778076172,2.8321105957,0.1,0.0,0.0,0.0,0.1,0.0,0.0,0.0,0.1
1446038281129512643,186,1446038281126364946,robocape,22.774119914,12.7970903663,-69.2484808229,0.0,10.0,0.0,0.0,0.0,10.0,0.0,0.0,0.0,10.0,4.36318997193,0.321709859682,0.208791829462,1.0,0.0,0.0,0.0,1.0,0.0,0.0,0.0,1.0,-1.67172363281,9.85670288086,9.16094970703,0.1,0.0,0.0,0.0,0.1,0.0,0.0,0.0,0.1
1446038281162735727,187,1446038281159588098,robocape,24.147670146,14.3846456872,-65.3094981112,0.0,10.0,0.0,0.0,0.0,10.0,0.0,0.0,0.0,10.0,0.0968059056244,1.56167766322,1.84370642266,1.0,0.0,0.0,0.0,1.0,0.0,0.0,0.0,1.0,9.52020263672,19.6194012451,16.6980761719,0.1,0.0,0.0,0.0,0.1,0.0,0.0,0.0,0.1
1446038281195761018,188,1446038281192753076,robocape,20.4611963956,15.7929184005,-62.6545934603,0.0,10.0,0.0,0.0,0.0,10.0,0.0,0.0,0.0,10.0,-2.50070826358,1.1856393173,1.48870704935,1.0,0.0,0.0,0.0,1.0,0.0,0.0,0.0,1.0,-5.21994506836,4.07752075195,8.17779418945,0.1,0.0,0.0,0.0,0.1,0.0,0.0,0.0,0.1
1446038281229530310,189,1446038281226224899,robocape,16.9269437535,16.4801387968,-61.6421690861,0.0,10.0,0.0,0.0,0.0,10.0,0.0,0.0,0.0,10.0,-2.05902299679,0.494682172482,0.530634847198,1.0,0.0,0.0,0.0,1.0,0.0,0.0,0.0,1.0,-3.76377319336,-2.27047851563,6.27016113281,0.1,0.0,0.0,0.0,0.1,0.0,0.0,0.0,0.1
1446038281262604643,190,1446038281259562969,robocape,15.0463817209,16.3543779526,-61.5327700984,0.0,10.0,0.0,0.0,0.0,10.0,0.0,0.0,0.0,10.0,-0.959403782701,-0.0376837294246,-0.0462058449129,1.0,0.0,0.0,0.0,1.0,0.0,0.0,0.0,1.0,-1.44299926758,-1.84177001953,8.70829101563,0.1,0.0,0.0,0.0,0.1,0.0,0.0,0.0,0.1
1446038281296422643,191,1446038281293097972,robocape,14.9800745078,16.1501436402,-61.3408904756,0.0,10.0,0.0,0.0,0.0,10.0,0.0,0.0,0.0,10.0,0.0181094954125,-0.0544616442921,-0.107991182203,1.0,0.0,0.0,0.0,1.0,0.0,0.0,0.0,1.0,-0.904119873047,-1.64897094727,7.93948974609,0.1,0.0,0.0,0.0,0.1,0.0,0.0,0.0,0.1
1446038281329666143,192,1446038281326548099,robocape,17.023470313,15.6658362596,-61.0043178575,0.0,10.0,0.0,0.0,0.0,10.0,0.0,0.0,0.0,10.0,1.14569190095,-0.164716513421,-0.0913464253897,1.0,0.0,0.0,0.0,1.0,0.0,0.0,0.0,1.0,-3.70509521484,-1.40228393555,8.20533691406,0.1,0.0,0.0,0.0,0.1,0.0,0.0,0.0,0.1
1446038281362717977,193,1446038281359585046,robocape,20.4578707042,15.5488017508,-60.4691133863,0.0,10.0,0.0,0.0,0.0,10.0,0.0,0.0,0.0,10.0,1.90695649855,0.0640490242164,-0.153531236843,1.0,0.0,0.0,0.0,1.0,0.0,0.0,0.0,1.0,-1.1460168457,-1.17715209961,9.13939453125,0.1,0.0,0.0,0.0,0.1,0.0,0.0,0.0,0.1
1446038281396182519,194,1446038281393054008,robocape,24.4655439549,15.769607784,-59.1817539353,0.0,10.0,0.0,0.0,0.0,10.0,0.0,0.0,0.0,10.0,2.10909042529,0.379500455336,0.161920194277,1.0,0.0,0.0,0.0,1.0,0.0,0.0,0.0,1.0,3.89070922852,11.128458252,11.3847253418,0.1,0.0,0.0,0.0,0.1,0.0,0.0,0.0,0.1
1446038281429404352,195,1446038281426212072,robocape,25.2035484875,16.291971976,-57.1363532344,0.0,10.0,0.0,0.0,0.0,10.0,0.0,0.0,0.0,10.0,0.0965395895154,0.681103448788,0.807736758621,1.0,0.0,0.0,0.0,1.0,0.0,0.0,0.0,1.0,1.43701171875,17.6333312988,10.6231091309,0.1,0.0,0.0,0.0,0.1,0.0,0.0,0.0,0.1
1446038281462606977,196,1446038281459469079,robocape,23.5671472765,16.5985876302,-56.0008662389,0.0,10.0,0.0,0.0,0.0,10.0,0.0,0.0,0.0,10.0,-1.05620968833,0.378701507009,0.515055354821,1.0,0.0,0.0,0.0,1.0,0.0,0.0,0.0,1.0,-1.73040161133,1.67411865234,7.60658203125,0.1,0.0,0.0,0.0,0.1,0.0,0.0,0.0,0.1
1446038281495937977,197,1446038281492820024,robocape,23.1049132533,16.6554341537,-55.5198311336,0.0,10.0,0.0,0.0,0.0,10.0,0.0,0.0,0.0,10.0,-0.246475558887,0.131826473959,0.0753674588492,1.0,0.0,0.0,0.0,1.0,0.0,0.0,0.0,1.0,-0.383203125,-1.32684082031,7.62095214844,0.1,0.0,0.0,0.0,0.1,0.0,0.0,0.0,0.1
1446038281530867894,198,1446038281527677059,robocape,24.3268816576,16.7774692465,-54.614735008,0.0,10.0,0.0,0.0,0.0,10.0,0.0,0.0,0.0,10.0,0.612393892664,0.257128203247,0.183225482997,1.0,0.0,0.0,0.0,1.0,0.0,0.0,0.0,1.0,2.16509765625,4.72657104492,11.4781311035,0.1,0.0,0.0,0.0,0.1,0.0,0.0,0.0,0.1
1446038281562426394,199,1446038281559350967,robocape,25.1348850858,17.1910395099,-53.3265348846,0.0,10.0,0.0,0.0,0.0,10.0,0.0,0.0,0.0,10.0,0.298806674307,0.477371625397,0.362323066305,1.0,0.0,0.0,0.0,1.0,0.0,0.0,0.0,1.0,1.6477734375,6.02467163086,10.7668103027,0.1,0.0,0.0,0.0,0.1,0.0,0.0,0.0,0.1
1446038281595665810,200,1446038281592605113,robocape,25.2973203534,17.6723961862,-51.9842723216,0.0,10.0,0.0,0.0,0.0,10.0,0.0,0.0,0.0,10.0,-0.0838895743375,0.520381677001,0.425306826086,1.0,0.0,0.0,0.0,1.0,0.0,0.0,0.0,1.0,-1.8357824707,5.26185791016,8.63763793945,0.1,0.0,0.0,0.0,0.1,0.0,0.0,0.0,0.1
1446038281629666644,201,1446038281626055955,robocape,25.2505020121,17.7318837286,-51.0032370153,0.0,10.0,0.0,0.0,0.0,10.0,0.0,0.0,0.0,10.0,-0.136753321976,0.244478188069,0.35300200249,1.0,0.0,0.0,0.0,1.0,0.0,0.0,0.0,1.0,0.0359252929688,3.05245239258,9.93573852539,0.1,0.0,0.0,0.0,0.1,0.0,0.0,0.0,0.1
1446038281662333310,202,1446038281659275054,robocape,25.6795930473,17.6316878728,-50.1122042454,0.0,10.0,0.0,0.0,0.0,10.0,0.0,0.0,0.0,10.0,0.149935969371,0.155262291552,0.311057215321,1.0,0.0,0.0,0.0,1.0,0.0,0.0,0.0,1.0,-0.105380859375,3.77455078125,8.41011108398,0.1,0.0,0.0,0.0,0.1,0.0,0.0,0.0,0.1
1446038281695729602,203,1446038281692722082,robocape,26.2675376868,18.8816319325,-48.5002487655,0.0,10.0,0.0,0.0,0.0,10.0,0.0,0.0,0.0,10.0,0.116646455745,0.955009566902,0.313454060302,1.0,0.0,0.0,0.0,1.0,0.0,0.0,0.0,1.0,8.00176025391,4.37689819336,12.4109912109,0.1,0.0,0.0,0.0,0.1,0.0,0.0,0.0,0.1
1446038281729407227,204,1446038281726077079,robocape,26.3034107615,18.3599049112,-47.2903027336,0.0,10.0,0.0,0.0,0.0,10.0,0.0,0.0,0.0,10.0,-0.17976337358,0.0217047628841,0.653406573451,1.0,0.0,0.0,0.0,1.0,0.0,0.0,0.0,1.0,-3.28476928711,4.4834765625,4.88344482422,0.1,0.0,0.0,0.0,0.1,0.0,0.0,0.0,0.1
1446038281762503852,205,1446038281759411096,robocape,27.0467793351,18.6243918341,-46.2604747477,0.0,10.0,0.0,0.0,0.0,10.0,0.0,0.0,0.0,10.0,0.306130367305,0.37191044623,0.260856628773,1.0,0.0,0.0,0.0,1.0,0.0,0.0,0.0,1.0,2.55907836914,3.98291748047,12.0744909668,0.1,0.0,0.0,0.0,0.1,0.0,0.0,0.0,0.1
1446038281796159060,206,1446038281792829036,robocape,27.311360325,18.5157840225,-45.3284402782,0.0,10.0,0.0,0.0,0.0,10.0,0.0,0.0,0.0,10.0,0.0387489938607,0.172173364474,0.355132531362,1.0,0.0,0.0,0.0,1.0,0.0,0.0,0.0,1.0,4.3337878418,4.19846923828,8.38137084961,0.1,0.0,0.0,0.0,0.1,0.0,0.0,0.0,0.1
1446038281829036144,207,1446038281826003074,robocape,27.6271835123,18.6217067917,-44.4881500942,0.0,10.0,0.0,0.0,0.0,10.0,0.0,0.0,0.0,10.0,0.0997353828235,0.257261361302,0.236488704799,1.0,0.0,0.0,0.0,1.0,0.0,0.0,0.0,1.0,1.76872192383,3.47756835938,8.60291015625,0.1,0.0,0.0,0.0,0.1,0.0,0.0,0.0,0.1
1446038281873098019,208,1446038281863430023,robocape,27.8021913666,18.636520847,-43.640112178,0.0,10.0,0.0,0.0,0.0,10.0,0.0,0.0,0.0,10.0,0.0119842249054,0.215849206351,0.28056402084,1.0,0.0,0.0,0.0,1.0,0.0,0.0,0.0,1.0,-0.465831298828,3.7206628418,9.50822753906,0.1,0.0,0.0,0.0,0.1,0.0,0.0,0.0,0.1
1446038281898802519,209,1446038281895716905,robocape,27.8915087246,18.6564748034,-42.8125941448,0.0,10.0,0.0,0.0,0.0,10.0,0.0,0.0,0.0,10.0,-0.0331563555715,0.213851835533,0.276302963096,1.0,0.0,0.0,0.0,1.0,0.0,0.0,0.0,1.0,2.92551635742,4.2188269043,8.59931762695,0.1,0.0,0.0,0.0,0.1,0.0,0.0,0.0,0.1
1446038281931820144,210,1446038281928545951,robocape,27.9984923759,18.7872979551,-41.9054472055,0.0,10.0,0.0,0.0,0.0,10.0,0.0,0.0,0.0,10.0,-0.0387489938607,0.284558762475,0.286156659129,1.0,0.0,0.0,0.0,1.0,0.0,0.0,0.0,1.0,3.07041503906,3.81406860352,10.0171691895,0.1,0.0,0.0,0.0,0.1,0.0,0.0,0.0,0.1
1446038281964724310,211,1446038281961611032,robocape,28.3177728878,18.7106319503,-41.0993179243,0.0,10.0,0.0,0.0,0.0,10.0,0.0,0.0,0.0,10.0,0.0984038022784,0.168711255057,0.282028759439,1.0,0.0,0.0,0.0,1.0,0.0,0.0,0.0,1.0,-2.99377441406,3.24046142578,8.76936401367,0.1,0.0,0.0,0.0,0.1,0.0,0.0,0.0,0.1
1446038281997893769,212,1446038281994801998,robocape,28.7524114976,18.5257846866,-40.3433739936,0.0,10.0,0.0,0.0,0.0,10.0,0.0,0.0,0.0,10.0,0.17323862891,0.110521185238,0.282161917494,1.0,0.0,0.0,0.0,1.0,0.0,0.0,0.0,1.0,5.19240234375,4.12542114258,9.3920690918,0.1,0.0,0.0,0.0,0.1,0.0,0.0,0.0,0.1
1446038282030371019,213,1446038282027019023,robocape,28.8339838493,18.2207951825,-39.393651362,0.0,10.0,0.0,0.0,0.0,10.0,0.0,0.0,0.0,10.0,-0.0801611488114,0.0949416928613,0.447277905079,1.0,0.0,0.0,0.0,1.0,0.0,0.0,0.0,1.0,3.1458581543,4.97685058594,9.15975219727,0.1,0.0,0.0,0.0,0.1,0.0,0.0,0.0,0.1
1446038282063350644,214,1446038282060293912,robocape,28.7089212911,18.2923757794,-38.4871377597,0.0,10.0,0.0,0.0,0.0,10.0,0.0,0.0,0.0,10.0,-0.173638103073,0.259258732119,0.325837759371,1.0,0.0,0.0,0.0,1.0,0.0,0.0,0.0,1.0,-1.25978027344,4.2188269043,10.7380700684,0.1,0.0,0.0,0.0,0.1,0.0,0.0,0.0,0.1
1446038282096520352,215,1446038282093472003,robocape,29.0307347452,18.0395900517,-37.8424951425,0.0,10.0,0.0,0.0,0.0,10.0,0.0,0.0,0.0,10.0,0.130494893414,0.0544616442921,0.262188209318,1.0,0.0,0.0,0.0,1.0,0.0,0.0,0.0,1.0,-2.24892333984,4.43437866211,8.21611450195,0.1,0.0,0.0,0.0,0.1,0.0,0.0,0.0,0.1
1446038282129996311,216,1446038282126946926,robocape,29.3391554105,18.0363449373,-36.9411295508,0.0,10.0,0.0,0.0,0.0,10.0,0.0,0.0,0.0,10.0,0.0753674588492,0.231428698728,0.320378279137,1.0,0.0,0.0,0.0,1.0,0.0,0.0,0.0,1.0,-1.94954589844,5.17922973633,9.92615844727,0.1,0.0,0.0,0.0,0.1,0.0,0.0,0.0,0.1
1446038282163735394,217,1446038282160499095,robocape,29.5247788018,18.5141949689,-35.7509301838,0.0,10.0,0.0,0.0,0.0,10.0,0.0,0.0,0.0,10.0,-0.0434095257683,0.522645363928,0.327835130189,1.0,0.0,0.0,0.0,1.0,0.0,0.0,0.0,1.0,-1.22864501953,3.38416259766,11.0637927246,0.1,0.0,0.0,0.0,0.1,0.0,0.0,0.0,0.1
1446038282197269144,218,1446038282194160938,robocape,29.828096175,18.3750988367,-35.1117010135,0.0,10.0,0.0,0.0,0.0,10.0,0.0,0.0,0.0,10.0,0.123836990689,0.111719607729,0.231295540673,1.0,0.0,0.0,0.0,1.0,0.0,0.0,0.0,1.0,-0.444276123047,3.27758422852,7.60418701172,0.1,0.0,0.0,0.0,0.1,0.0,0.0,0.0,0.1
1446038282230863477,219,1446038282227499008,robocape,30.3532794379,18.5794176247,-34.2493232586,0.0,10.0,0.0,0.0,0.0,10.0,0.0,0.0,0.0,10.0,0.21611552246,0.329033552679,0.223572373512,1.0,0.0,0.0,0.0,1.0,0.0,0.0,0.0,1.0,-1.39509887695,4.75411376953,9.28429321289,0.1,0.0,0.0,0.0,0.1,0.0,0.0,0.0,0.1
1446038282263201227,220,1446038282259879112,robocape,30.6322984422,18.4343616712,-33.0804878663,0.0,10.0,0.0,0.0,0.0,10.0,0.0,0.0,0.0,10.0,-0.0099868540878,0.239018707835,0.497744807736,1.0,0.0,0.0,0.0,1.0,0.0,0.0,0.0,1.0,-2.5674609375,6.11208984375,9.68665649414,0.1,0.0,0.0,0.0,0.1,0.0,0.0,0.0,0.1
1446038282297620186,221,1446038282294322967,robocape,30.6385976018,18.0718910156,-32.3375166114,0.0,10.0,0.0,0.0,0.0,10.0,0.0,0.0,0.0,10.0,-0.0794953585389,0.03488741028,0.373774658993,1.0,0.0,0.0,0.0,1.0,0.0,0.0,0.0,1.0,-3.12430297852,3.89190673828,10.0890197754,0.1,0.0,0.0,0.0,0.1,0.0,0.0,0.0,0.1
1446038282329217352,222,1446038282326096057,robocape,30.8939008908,18.1986337661,-31.4732284097,0.0,10.0,0.0,0.0,0.0,10.0,0.0,0.0,0.0,10.0,0.0579237537092,0.294146142399,0.268846112043,1.0,0.0,0.0,0.0,1.0,0.0,0.0,0.0,1.0,-5.23551269531,1.49329467773,9.67587890625,0.1,0.0,0.0,0.0,0.1,0.0,0.0,0.0,0.1
1446038282362205727,223,1446038282359220981,robocape,31.2764614448,18.2331659071,-30.3869549288,0.0,10.0,0.0,0.0,0.0,10.0,0.0,0.0,0.0,10.0,0.0789627263208,0.309725634776,0.397476792694,1.0,0.0,0.0,0.0,1.0,0.0,0.0,0.0,1.0,-3.67036743164,4.15296386719,10.9919421387,0.1,0.0,0.0,0.0,0.1,0.0,0.0,0.0,0.1
1446038282395669894,224,1446038282392620086,robocape,31.6401620236,18.3150417027,-29.4466038171,0.0,10.0,0.0,0.0,0.0,10.0,0.0,0.0,0.0,10.0,0.102398543914,0.298806674307,0.312921428084,1.0,0.0,0.0,0.0,1.0,0.0,0.0,0.0,1.0,-3.83921630859,5.57800048828,8.93941040039,0.1,0.0,0.0,0.0,0.1,0.0,0.0,0.0,0.1
1446038282429414727,225,1446038282426248073,robocape,31.7237847919,18.5788621269,-28.5177333628,0.0,10.0,0.0,0.0,0.0,10.0,0.0,0.0,0.0,10.0,-0.051265850984,0.376704136192,0.264984528463,1.0,0.0,0.0,0.0,1.0,0.0,0.0,0.0,1.0,-0.838256835938,3.7134777832,10.7069348145,0.1,0.0,0.0,0.0,0.1,0.0,0.0,0.0,0.1
1446038282462396727,226,1446038282459328889,robocape,31.9146306169,18.6455103902,-27.7993024675,0.0,10.0,0.0,0.0,0.0,10.0,0.0,0.0,0.0,10.0,0.0482032157304,0.237553969235,0.222373951022,1.0,0.0,0.0,0.0,1.0,0.0,0.0,0.0,1.0,-3.15903076172,1.88368286133,7.49641113281,0.1,0.0,0.0,0.0,0.1,0.0,0.0,0.0,0.1
1446038282495929644,227,1446038282492791891,robocape,32.1164745413,18.4420690571,-27.2549412307,0.0,10.0,0.0,0.0,0.0,10.0,0.0,0.0,0.0,10.0,0.0821585196289,0.0723048235957,0.226102376548,1.0,0.0,0.0,0.0,1.0,0.0,0.0,0.0,1.0,0.913699951172,3.02490966797,8.78852416992,0.1,0.0,0.0,0.0,0.1,0.0,0.0,0.0,0.1
1446038282529246227,228,1446038282525965929,robocape,32.6223385463,18.5990094892,-26.4985462061,0.0,10.0,0.0,0.0,0.0,10.0,0.0,0.0,0.0,10.0,0.228099747365,0.296676145435,0.196274972339,1.0,0.0,0.0,0.0,1.0,0.0,0.0,0.0,1.0,-1.43581420898,4.23080200195,9.39446411133,0.1,0.0,0.0,0.0,0.1,0.0,0.0,0.0,0.1
1446038282562200811,229,1446038282559179067,robocape,32.8146760064,18.6271486514,-25.2472019738,0.0,10.0,0.0,0.0,0.0,10.0,0.0,0.0,0.0,10.0,-0.066845343361,0.360725169651,0.479768470378,1.0,0.0,0.0,0.0,1.0,0.0,0.0,0.0,1.0,-2.36029174805,6.15041015625,12.6672583008,0.1,0.0,0.0,0.0,0.1,0.0,0.0,0.0,0.1
1446038282595691519,230,1446038282592601060,robocape,32.648243171,18.7854625782,-24.3325439544,0.0,10.0,0.0,0.0,0.0,10.0,0.0,0.0,0.0,10.0,-0.198405501211,0.328367762407,0.302268783724,1.0,0.0,0.0,0.0,1.0,0.0,0.0,0.0,1.0,-0.113763427734,3.75778564453,7.04015991211,0.1,0.0,0.0,0.0,0.1,0.0,0.0,0.0,0.1
1446038282633311311,231,1446038282630072116,robocape,32.7445550615,19.1012076447,-23.4714876223,0.0,10.0,0.0,0.0,0.0,10.0,0.0,0.0,0.0,10.0,-0.0299605622634,0.391351522187,0.217180786896,1.0,0.0,0.0,0.0,1.0,0.0,0.0,0.0,1.0,0.130528564453,2.09923461914,12.0649108887,0.1,0.0,0.0,0.0,0.1,0.0,0.0,0.0,0.1
1446038282666694894,232,1446038282663539886,robocape,32.9696218323,18.5213753357,-22.7588214963,0.0,10.0,0.0,0.0,0.0,10.0,0.0,0.0,0.0,10.0,0.0424774193868,-0.048869006003,0.427304196903,1.0,0.0,0.0,0.0,1.0,0.0,0.0,0.0,1.0,-4.09548339844,3.22489379883,8.64961303711,0.1,0.0,0.0,0.0,0.1,0.0,0.0,0.0,0.1
1446038282695496102,233,1446038282692470073,robocape,33.6007767574,19.234504842,-21.3393967462,0.0,10.0,0.0,0.0,0.0,10.0,0.0,0.0,0.0,10.0,0.178431793035,0.728907190355,0.317848276101,1.0,0.0,0.0,0.0,1.0,0.0,0.0,0.0,1.0,3.72904541016,3.92902954102,13.2109277344,0.1,0.0,0.0,0.0,0.1,0.0,0.0,0.0,0.1
1446038282729130727,234,1446038282725913047,robocape,33.3870264319,19.2931748169,-19.8816529106,0.0,10.0,0.0,0.0,0.0,10.0,0.0,0.0,0.0,10.0,-0.349406735018,0.428502619394,0.573911214912,1.0,0.0,0.0,0.0,1.0,0.0,0.0,0.0,1.0,-0.603544921875,2.18665283203,7.38264770508,0.1,0.0,0.0,0.0,0.1,0.0,0.0,0.0,0.1
1446038282762733477,235,1446038282759547948,robocape,33.3706159249,19.621447323,-19.0577813727,0.0,10.0,0.0,0.0,0.0,10.0,0.0,0.0,0.0,10.0,-0.0900148448447,0.390818889969,0.20279971701,1.0,0.0,0.0,0.0,1.0,0.0,0.0,0.0,1.0,1.01189575195,0.890947265625,9.09987670898,0.1,0.0,0.0,0.0,0.1,0.0,0.0,0.0,0.1
1446038282795528894,236,1446038282792573928,robocape,33.5563088967,19.5050834092,-18.2440861586,0.0,10.0,0.0,0.0,0.0,10.0,0.0,0.0,0.0,10.0,0.0121173829599,0.192546546813,0.331030923497,1.0,0.0,0.0,0.0,1.0,0.0,0.0,0.0,1.0,-0.608334960938,1.89685546875,8.96216308594,0.1,0.0,0.0,0.0,0.1,0.0,0.0,0.0,0.1
1446038282828861269,237,1446038282825886011,robocape,34.0647841006,19.5935445629,-17.3292336387,0.0,10.0,0.0,0.0,0.0,10.0,0.0,0.0,0.0,10.0,0.187220224633,0.321177227464,0.298540358198,1.0,0.0,0.0,0.0,1.0,0.0,0.0,0.0,1.0,-3.25962158203,4.57807983398,11.5020812988,0.1,0.0,0.0,0.0,0.1,0.0,0.0,0.0,0.1
1446038282868891978,238,1446038282865567922,robocape,34.1610877064,19.204790733,-16.6734424732,0.0,10.0,0.0,0.0,0.0,10.0,0.0,0.0,0.0,10.0,-0.0141147537774,0.031957933081,0.352602528326,1.0,0.0,0.0,0.0,1.0,0.0,0.0,0.0,1.0,-4.96727050781,3.96375732422,9.64234863281,0.1,0.0,0.0,0.0,0.1,0.0,0.0,0.0,0.1
1446038282899445894,239,1446038282896233081,robocape,34.6294701781,19.4006189738,-16.0008090398,0.0,10.0,0.0,0.0,0.0,10.0,0.0,0.0,0.0,10.0,0.222373951022,0.308394054231,0.161787036222,1.0,0.0,0.0,0.0,1.0,0.0,0.0,0.0,1.0,1.91841064453,3.21172119141,10.1261425781,0.1,0.0,0.0,0.0,0.1,0.0,0.0,0.0,0.1
1446038282928894269,240,1446038282925892114,robocape,35.0418251096,19.3264193162,-14.7957865426,0.0,10.0,0.0,0.0,0.0,10.0,0.0,0.0,0.0,10.0,0.0699079786146,0.333028294314,0.475906886797,1.0,0.0,0.0,0.0,1.0,0.0,0.0,0.0,1.0,0.556842041016,3.23926391602,8.09756103516,0.1,0.0,0.0,0.0,0.1,0.0,0.0,0.0,0.1
1446038282962803311,241,1446038282959553956,robocape,35.1014700083,19.4638255459,-13.9335304182,0.0,10.0,0.0,0.0,0.0,10.0,0.0,0.0,0.0,10.0,-0.0560595409462,0.328634078516,0.273906118115,1.0,0.0,0.0,0.0,1.0,0.0,0.0,0.0,1.0,-4.70381835938,2.57344848633,10.0770446777,0.1,0.0,0.0,0.0,0.1,0.0,0.0,0.0,0.1
1446038282995842853,242,1446038282992645978,robocape,35.7083982541,19.9531169033,-12.8683527997,0.0,10.0,0.0,0.0,0.0,10.0,0.0,0.0,0.0,10.0,0.233692385654,0.556334351718,0.226901324875,1.0,0.0,0.0,0.0,1.0,0.0,0.0,0.0,1.0,-7.98020507813,3.0308972168,11.439810791,0.1,0.0,0.0,0.0,0.1,0.0,0.0,0.0,0.1
1446038283029099228,243,1446038283026031970,robocape,36.0893842478,19.6687920656,-12.217412705,0.0,10.0,0.0,0.0,0.0,10.0,0.0,0.0,0.0,10.0,0.160854929841,0.0989364344964,0.310391425049,1.0,0.0,0.0,0.0,1.0,0.0,0.0,0.0,1.0,1.32803833008,5.35765869141,7.47485595703,0.1,0.0,0.0,0.0,0.1,0.0,0.0,0.0,0.1
1446038283062221311,244,1446038283059184074,robocape,36.0653119479,20.3561233268,-10.9257522838,0.0,10.0,0.0,0.0,0.0,10.0,0.0,0.0,0.0,10.0,-0.175235999727,0.69535136062,0.269645060371,1.0,0.0,0.0,0.0,1.0,0.0,0.0,0.0,1.0,-4.47629150391,4.65112792969,11.0446325684,0.1,0.0,0.0,0.0,0.1,0.0,0.0,0.0,0.1
1446038283095960561,245,1446038283092850923,robocape,35.3993122348,20.0506937805,-10.12257884,0.0,10.0,0.0,0.0,0.0,10.0,0.0,0.0,0.0,10.0,-0.486559531157,0.103996440568,0.410526282036,1.0,0.0,0.0,0.0,1.0,0.0,0.0,0.0,1.0,-3.31231201172,-0.377215576172,10.8650061035,0.1,0.0,0.0,0.0,0.1,0.0,0.0,0.0,0.1
1446038283128943769,246,1446038283125942945,robocape,35.6543766911,19.6189171715,-9.88448572158,0.0,10.0,0.0,0.0,0.0,10.0,0.0,0.0,0.0,10.0,0.163651248985,-0.084289048501,0.196408130393,1.0,0.0,0.0,0.0,1.0,0.0,0.0,0.0,1.0,-7.02578979492,0.227526855469,8.98611328125,0.1,0.0,0.0,0.0,0.1,0.0,0.0,0.0,0.1
1446038283165752978,247,1446038283162502050,robocape,36.1724923548,19.9023298802,-9.04852476254,0.0,10.0,0.0,0.0,0.0,10.0,0.0,0.0,0.0,10.0,0.22290658324,0.406265224292,0.205995510318,1.0,0.0,0.0,0.0,1.0,0.0,0.0,0.0,1.0,-2.96263916016,3.91106689453,10.8937463379,0.1,0.0,0.0,0.0,0.1,0.0,0.0,0.0,0.1
1446038283196019228,248,1446038283192708015,robocape,36.7115588868,19.6340806753,-8.27546911005,0.0,10.0,0.0,0.0,0.0,10.0,0.0,0.0,0.0,10.0,0.231029224564,0.151134391862,0.357396218289,1.0,0.0,0.0,0.0,1.0,0.0,0.0,0.0,1.0,4.36372558594,3.81406860352,11.6242272949,0.1,0.0,0.0,0.0,0.1,0.0,0.0,0.0,0.1
1446038283228997978,249,1446038283225930929,robocape,36.8359885032,19.4615897237,-7.3643417424,0.0,10.0,0.0,0.0,0.0,10.0,0.0,0.0,0.0,10.0,-0.033023197517,0.22410500573,0.392150470514,1.0,0.0,0.0,0.0,1.0,0.0,0.0,0.0,1.0,-1.50167724609,5.83546508789,7.45809082031,0.1,0.0,0.0,0.0,0.1,0.0,0.0,0.0,0.1
1446038283264346019,250,1446038283261163949,robocape,36.6979823933,19.678826565,-6.51305996382,0.0,10.0,0.0,0.0,0.0,10.0,0.0,0.0,0.0,10.0,-0.161387562059,0.370046233467,0.247673981377,1.0,0.0,0.0,0.0,1.0,0.0,0.0,0.0,1.0,0.166453857422,2.69679199219,12.2636975098,0.1,0.0,0.0,0.0,0.1,0.0,0.0,0.0,0.1
1446038283297125269,251,1446038283293862104,robocape,36.8673874998,19.3471506015,-5.88887226163,0.0,10.0,0.0,0.0,0.0,10.0,0.0,0.0,0.0,10.0,0.0451405804768,0.0752343007947,0.329832501006,1.0,0.0,0.0,0.0,1.0,0.0,0.0,0.0,1.0,-2.40579711914,1.68609375,9.07951904297,0.1,0.0,0.0,0.0,0.1,0.0,0.0,0.0,0.1
1446038283328862061,252,1446038283325886964,robocape,37.3785055251,19.3363353442,-5.13096484965,0.0,10.0,0.0,0.0,0.0,10.0,0.0,0.0,0.0,10.0,0.232493963164,0.265384002626,0.273107169788,1.0,0.0,0.0,0.0,1.0,0.0,0.0,0.0,1.0,2.75307495117,3.07281005859,10.4039648437,0.1,0.0,0.0,0.0,0.1,0.0,0.0,0.0,0.1
1446038283362693603,253,1446038283359262943,robocape,37.6233362682,19.1836963599,-4.21382357537,0.0,10.0,0.0,0.0,0.0,10.0,0.0,0.0,0.0,10.0,0.0435426838228,0.246475558887,0.38788941277,1.0,0.0,0.0,0.0,1.0,0.0,0.0,0.0,1.0,-0.282612304688,3.74221801758,10.3895947266,0.1,0.0,0.0,0.0,0.1,0.0,0.0,0.0,0.1
1446038283395944144,254,1446038283392898082,robocape,37.7575983919,19.0599858285,-3.3816064401,0.0,10.0,0.0,0.0,0.0,10.0,0.0,0.0,0.0,10.0,-0.00199737081756,0.233026595382,0.347409364201,1.0,0.0,0.0,0.0,1.0,0.0,0.0,0.0,1.0,-2.70397705078,6.07975708008,7.56466918945,0.1,0.0,0.0,0.0,0.1,0.0,0.0,0.0,0.1
1446038283428942686,255,1446038283425964117,robocape,37.7951031701,19.5561688467,-2.25469156671,0.0,10.0,0.0,0.0,0.0,10.0,0.0,0.0,0.0,10.0,-0.0956074831338,0.585229649545,0.261921893209,1.0,0.0,0.0,0.0,1.0,0.0,0.0,0.0,1.0,-4.40444091797,4.39486083984,12.4337438965,0.1,0.0,0.0,0.0,0.1,0.0,0.0,0.0,0.1
1446038283463098186,256,1446038283459814071,robocape,37.7176701468,19.1944915436,-1.56584863848,0.0,10.0,0.0,0.0,0.0,10.0,0.0,0.0,0.0,10.0,-0.107059075821,0.0844222065555,0.373774658993,1.0,0.0,0.0,0.0,1.0,0.0,0.0,0.0,1.0,2.92192382813,1.95912597656,9.95849121094,0.1,0.0,0.0,0.0,0.1,0.0,0.0,0.0,0.1
1446038283495860728,257,1446038283492753982,robocape,38.2028818827,19.0262827023,-0.515970839958,0.0,10.0,0.0,0.0,0.0,10.0,0.0,0.0,0.0,10.0,0.164583355367,0.294279300454,0.44701158897,1.0,0.0,0.0,0.0,1.0,0.0,0.0,0.0,1.0,0.227526855469,6.28572875977,8.37059326172,0.1,0.0,0.0,0.0,0.1,0.0,0.0,0.0,0.1
1446038283528904311,258,1446038283525857925,robocape,37.5518508302,19.2431476845,1.32779997381,0.0,10.0,0.0,0.0,0.0,10.0,0.0,0.0,0.0,10.0,-0.634364971657,0.661795530885,0.646748670726,1.0,0.0,0.0,0.0,1.0,0.0,0.0,0.0,1.0,3.25842407227,6.31686401367,13.8731506348,0.1,0.0,0.0,0.0,0.1,0.0,0.0,0.0,0.1
1446038283562553478,259,1446038283559395074,robocape,36.243323985,19.5000630704,3.45226606132,0.0,10.0,0.0,0.0,0.0,10.0,0.0,0.0,0.0,10.0,-1.06659601658,0.730638245063,0.759933017054,1.0,0.0,0.0,0.0,1.0,0.0,0.0,0.0,1.0,3.15903076172,2.222578125,12.9834008789,0.1,0.0,0.0,0.0,0.1,0.0,0.0,0.0,0.1
1446038283595846936,260,1446038283592798948,robocape,34.079903886,18.721329171,5.34656677179,0.0,10.0,0.0,0.0,0.0,10.0,0.0,0.0,0.0,10.0,-1.52905393987,0.162186510386,1.0036122568,1.0,0.0,0.0,0.0,1.0,0.0,0.0,0.0,1.0,-3.45481567383,3.64282470703,9.91298583984,0.1,0.0,0.0,0.0,0.1,0.0,0.0,0.0,0.1
1446038283628960645,261,1446038283625930070,robocape,30.9512052375,18.3238604901,7.40107714988,0.0,10.0,0.0,0.0,0.0,10.0,0.0,0.0,0.0,10.0,-2.06647984785,0.313187744193,0.968591688462,1.0,0.0,0.0,0.0,1.0,0.0,0.0,0.0,1.0,-4.46072387695,0.735270996094,11.225456543,0.1,0.0,0.0,0.0,0.1,0.0,0.0,0.0,0.1
1446038283662637936,262,1446038283659548044,robocape,27.9232794637,18.5199773577,8.1519753604,0.0,10.0,0.0,0.0,0.0,10.0,0.0,0.0,0.0,10.0,-1.76101527081,0.2335592276,0.269245586207,1.0,0.0,0.0,0.0,1.0,0.0,0.0,0.0,1.0,-5.77558959961,-3.96016479492,9.25675048828,0.1,0.0,0.0,0.0,0.1,0.0,0.0,0.0,0.1
1446038283696031853,263,1446038283692992925,robocape,26.9448105466,18.2398208893,7.2934617783,0.0,10.0,0.0,0.0,0.0,10.0,0.0,0.0,0.0,10.0,-0.367116756267,-0.324106704663,-0.310657741158,1.0,0.0,0.0,0.0,1.0,0.0,0.0,0.0,1.0,-1.61065063477,-3.30512695313,7.64969238281,0.1,0.0,0.0,0.0,0.1,0.0,0.0,0.0,0.1
1446038283728857561,264,1446038283725899934,robocape,27.6182863742,18.3399161436,7.64277450215,0.0,10.0,0.0,0.0,0.0,10.0,0.0,0.0,0.0,10.0,0.355798321635,0.172173364474,0.137419112248,1.0,0.0,0.0,0.0,1.0,0.0,0.0,0.0,1.0,0.105380859375,1.46575195313,10.5165307617,0.1,0.0,0.0,0.0,0.1,0.0,0.0,0.0,0.1
1446038283762440895,265,1446038283759402990,robocape,26.5871535881,18.1247196695,10.163355428,0.0,10.0,0.0,0.0,0.0,10.0,0.0,0.0,0.0,10.0,-0.939696390634,0.482165315359,1.17032614104,1.0,0.0,0.0,0.0,1.0,0.0,0.0,0.0,1.0,-0.512534179688,7.33953735352,10.1225500488,0.1,0.0,0.0,0.0,0.1,0.0,0.0,0.0,0.1
1446038283795749353,266,1446038283792763948,robocape,21.8753603752,17.4219216187,13.7188331427,0.0,10.0,0.0,0.0,0.0,10.0,0.0,0.0,0.0,10.0,-3.09659055749,0.328900394625,1.74277261735,1.0,0.0,0.0,0.0,1.0,0.0,0.0,0.0,1.0,-5.2534753418,6.67970947266,11.0170898438,0.1,0.0,0.0,0.0,0.1,0.0,0.0,0.0,0.1
1446038283829005895,267,1446038283826023101,robocape,14.545205036,16.6447141412,16.8045804489,0.0,10.0,0.0,0.0,0.0,10.0,0.0,0.0,0.0,10.0,-4.36332312999,0.0194410759576,1.54822869972,1.0,0.0,0.0,0.0,1.0,0.0,0.0,0.0,1.0,-4.64514038086,3.0237121582,5.7516394043,0.1,0.0,0.0,0.0,0.1,0.0,0.0,0.0,0.1
1446038283866858686,268,1446038283861376047,robocape,6.75347644967,15.9924611168,18.629585666,0.0,10.0,0.0,0.0,0.0,10.0,0.0,0.0,0.0,10.0,-4.36332312999,-0.202932875064,0.934503226509,1.0,0.0,0.0,0.0,1.0,0.0,0.0,0.0,1.0,-4.81279174805,0.241896972656,4.65232543945,0.1,0.0,0.0,0.0,0.1,0.0,0.0,0.0,0.1
1446038283896369478,269,1446038283893280982,robocape,-1.31602349446,15.4321500641,19.5477721231,0.0,10.0,0.0,0.0,0.0,10.0,0.0,0.0,0.0,10.0,-4.36332312999,-0.270710324807,0.478703205942,1.0,0.0,0.0,0.0,1.0,0.0,0.0,0.0,1.0,-3.74341552734,-2.11959228516,4.46551391602,0.1,0.0,0.0,0.0,0.1,0.0,0.0,0.0,0.1
1446038283929165686,270,1446038283926100969,robocape,-9.62072567829,15.0986978116,19.4105048716,0.0,10.0,0.0,0.0,0.0,10.0,0.0,0.0,0.0,10.0,-4.36332312999,-0.135421741431,-0.0434095257683,1.0,0.0,0.0,0.0,1.0,0.0,0.0,0.0,1.0,-0.784368896484,-4.24517211914,6.37673950195,0.1,0.0,0.0,0.0,0.1,0.0,0.0,0.0,0.1
1446038283962432686,271,1446038283959328889,robocape,-16.5909247793,15.0611187144,17.9190136197,0.0,10.0,0.0,0.0,0.0,10.0,0.0,0.0,0.0,10.0,-3.51523948085,0.19987023981,-0.672847649409,1.0,0.0,0.0,0.0,1.0,0.0,0.0,0.0,1.0,0.668210449219,-3.35063232422,9.98004638672,0.1,0.0,0.0,0.0,0.1,0.0,0.0,0.0,0.1
1446038283995864645,272,1446038283992763042,robocape,-22.2289572908,15.3748792083,16.4781141676,0.0,10.0,0.0,0.0,0.0,10.0,0.0,0.0,0.0,10.0,-2.87301818398,0.461126342747,-0.54102117545,1.0,0.0,0.0,0.0,1.0,0.0,0.0,0.0,1.0,-1.13044921875,-2.07049438477,8.64482299805,0.1,0.0,0.0,0.0,0.1,0.0,0.0,0.0,0.1
1446038284029124895,273,1446038284026037931,robocape,-26.5113397816,15.4581866797,14.8555581111,0.0,10.0,0.0,0.0,0.0,10.0,0.0,0.0,0.0,10.0,-2.14877152553,0.437424209046,-0.644484983799,1.0,0.0,0.0,0.0,1.0,0.0,0.0,0.0,1.0,4.03560791016,-12.5618774414,13.5115026855,0.1,0.0,0.0,0.0,0.1,0.0,0.0,0.0,0.1
1446038284062515520,274,1446038284059428930,robocape,-26.6398673422,16.0643803097,11.9709890702,0.0,10.0,0.0,0.0,0.0,10.0,0.0,0.0,0.0,10.0,0.341550409803,0.935035858727,-1.15740980975,1.0,0.0,0.0,0.0,1.0,0.0,0.0,0.0,1.0,4.34935546875,-8.98611328125,15.7173156738,0.1,0.0,0.0,0.0,0.1,0.0,0.0,0.0,0.1
1446038284095902020,275,1446038284092745065,robocape,-25.5494966929,16.4840724887,10.6445364625,0.0,10.0,0.0,0.0,0.0,10.0,0.0,0.0,0.0,10.0,0.772183558068,0.48722532143,-0.505734291006,1.0,0.0,0.0,0.0,1.0,0.0,0.0,0.0,1.0,-0.295784912109,0.243094482422,7.21858886719,0.1,0.0,0.0,0.0,0.1,0.0,0.0,0.0,0.1
1446038284129343561,276,1446038284126048088,robocape,-25.6158975116,16.2792298236,10.0714484554,0.0,10.0,0.0,0.0,0.0,10.0,0.0,0.0,0.0,10.0,0.0201068662301,0.0430100516048,-0.290950349091,1.0,0.0,0.0,0.0,1.0,0.0,0.0,0.0,1.0,0.150886230469,0.0934057617188,8.77056152344,0.1,0.0,0.0,0.0,0.1,0.0,0.0,0.0,0.1
1446038284162699145,277,1446038284159322977,robocape,-26.2705116381,15.949741158,9.03415483247,0.0,10.0,0.0,0.0,0.0,10.0,0.0,0.0,0.0,10.0,-0.230762908455,0.0929443220438,-0.526906421672,1.0,0.0,0.0,0.0,1.0,0.0,0.0,0.0,1.0,-3.16861083984,-0.550854492188,10.0063916016,0.1,0.0,0.0,0.0,0.1,0.0,0.0,0.0,0.1
1446038284196125270,278,1446038284192751884,robocape,-27.2639669748,16.2503315691,7.41901271777,0.0,10.0,0.0,0.0,0.0,10.0,0.0,0.0,0.0,10.0,-0.342615674239,0.536227485487,-0.631568652512,1.0,0.0,0.0,0.0,1.0,0.0,0.0,0.0,1.0,6.18633544922,-1.73519165039,10.8278833008,0.1,0.0,0.0,0.0,0.1,0.0,0.0,0.0,0.1
1446038284229567187,279,1446038284226017951,robocape,-27.692761526,17.0698639266,4.98321451701,0.0,10.0,0.0,0.0,0.0,10.0,0.0,0.0,0.0,10.0,0.0992027506055,0.968591688462,-0.871918940892,1.0,0.0,0.0,0.0,1.0,0.0,0.0,0.0,1.0,5.45824951172,-1.32564331055,16.4585742188,0.1,0.0,0.0,0.0,0.1,0.0,0.0,0.0,0.1
1446038284294860645,280,1446038284262157917,robocape,-27.6517730732,17.1876665462,3.08895229319,0.0,10.0,0.0,0.0,0.0,10.0,0.0,0.0,0.0,10.0,0.289751926601,0.509063242369,-0.804407807258,1.0,0.0,0.0,0.0,1.0,0.0,0.0,0.0,1.0,-3.1039453125,-2.86324584961,11.0242749023,0.1,0.0,0.0,0.0,0.1,0.0,0.0,0.0,0.1
1446038284313836270,281,1446038284310720920,robocape,-26.4458040692,16.9652861951,0.999522818889,0.0,10.0,0.0,0.0,0.0,10.0,0.0,0.0,0.0,10.0,0.971121691497,0.360192537433,-0.988299080528,1.0,0.0,0.0,0.0,1.0,0.0,0.0,0.0,1.0,-1.11368408203,-2.20701049805,8.1274987793,0.1,0.0,0.0,0.0,0.1,0.0,0.0,0.0,0.1
1446038284335714437,282,1446038284332577943,robocape,-25.36815076,17.3465334237,-0.591861112456,0.0,10.0,0.0,0.0,0.0,10.0,0.0,0.0,0.0,10.0,0.805606229749,0.530634847198,-0.628372859204,1.0,0.0,0.0,0.0,1.0,0.0,0.0,0.0,1.0,-0.347277832031,0.673000488281,10.7823779297,0.1,0.0,0.0,0.0,0.1,0.0,0.0,0.0,0.1
1446038284363401187,283,1446038284360053062,robocape,-25.500894399,17.2328828407,-0.797389999396,0.0,10.0,0.0,0.0,0.0,10.0,0.0,0.0,0.0,10.0,-0.0736364041407,0.0150468601589,-0.113983294655,1.0,0.0,0.0,0.0,1.0,0.0,0.0,0.0,1.0,-3.32428710938,2.47166015625,6.15879272461,0.1,0.0,0.0,0.0,0.1,0.0,0.0,0.0,0.1
1446038284397532562,284,1446038284394473075,robocape,-27.2134389676,16.9001453465,-0.709598072321,0.0,10.0,0.0,0.0,0.0,10.0,0.0,0.0,0.0,10.0,-0.990829083564,-0.125301729288,-0.0290284558819,1.0,0.0,0.0,0.0,1.0,0.0,0.0,0.0,1.0,-1.84177001953,0.520916748047,9.49505493164,0.1,0.0,0.0,0.0,0.1,0.0,0.0,0.0,0.1
1446038284430425645,285,1446038284427361965,robocape,-29.8363847056,17.1670003051,-1.96189955263,0.0,10.0,0.0,0.0,0.0,10.0,0.0,0.0,0.0,10.0,-1.31187315297,0.500807442989,-0.473376883762,1.0,0.0,0.0,0.0,1.0,0.0,0.0,0.0,1.0,4.93733276367,-5.03552856445,15.0095874023,0.1,0.0,0.0,0.0,0.1,0.0,0.0,0.0,0.1
1446038284463441603,286,1446038284460412025,robocape,-31.3539858583,17.5087395986,-6.031404426,0.0,10.0,0.0,0.0,0.0,10.0,0.0,0.0,0.0,10.0,-0.256728729084,1.25368308315,-1.66207883632,1.0,0.0,0.0,0.0,1.0,0.0,0.0,0.0,1.0,6.65935180664,-3.71587280273,15.2466943359,0.1,0.0,0.0,0.0,0.1,0.0,0.0,0.0,0.1
1446038284496439562,287,1446038284493172883,robocape,-31.1119855492,17.7128376877,-8.34001074154,0.0,10.0,0.0,0.0,0.0,10.0,0.0,0.0,0.0,10.0,0.446478956752,0.720251916812,-0.9342369104,1.0,0.0,0.0,0.0,1.0,0.0,0.0,0.0,1.0,-2.07528442383,-1.24660766602,9.63157104492,0.1,0.0,0.0,0.0,0.1,0.0,0.0,0.0,0.1
1446038284529949895,288,1446038284526911020,robocape,-30.8488646313,17.2143937885,-8.27879858197,0.0,10.0,0.0,0.0,0.0,10.0,0.0,0.0,0.0,10.0,0.0989364344964,-0.220509738259,-0.111586449674,1.0,0.0,0.0,0.0,1.0,0.0,0.0,0.0,1.0,-7.3958203125,0.902922363281,9.90220825195,0.1,0.0,0.0,0.0,0.1,0.0,0.0,0.0,0.1
1446038284562552478,289,1446038284559446096,robocape,-31.313105473,17.104613871,-9.55635847581,0.0,10.0,0.0,0.0,0.0,10.0,0.0,0.0,0.0,10.0,-0.114382768819,0.326237233535,-0.587493336471,1.0,0.0,0.0,0.0,1.0,0.0,0.0,0.0,1.0,-1.60466308594,-2.66565673828,12.2636975098,0.1,0.0,0.0,0.0,0.1,0.0,0.0,0.0,0.1
1446038284596475062,290,1446038284593226909,robocape,-30.658983008,16.9605852551,-12.6630050042,0.0,10.0,0.0,0.0,0.0,10.0,0.0,0.0,0.0,10.0,0.781238305775,0.764060916744,-1.38218060575,1.0,0.0,0.0,0.0,1.0,0.0,0.0,0.0,1.0,9.6914465332,-6.24740844727,17.1890551758,0.1,0.0,0.0,0.0,0.1,0.0,0.0,0.0,0.1
1446038284629117895,291,1446038284626032114,robocape,-27.5608344788,17.0660839282,-16.6232354732,0.0,10.0,0.0,0.0,0.0,10.0,0.0,0.0,0.0,10.0,2.24930585668,0.996821196017,-1.69869730131,1.0,0.0,0.0,0.0,1.0,0.0,0.0,0.0,1.0,4.7936315918,-4.28109741211,11.511661377,0.1,0.0,0.0,0.0,0.1,0.0,0.0,0.0,0.1
1446038284662734228,292,1446038284659336090,robocape,-22.6767485095,17.3297274595,-19.7742174579,0.0,10.0,0.0,0.0,0.0,10.0,0.0,0.0,0.0,10.0,3.08260896177,0.755006169037,-1.34383108605,1.0,0.0,0.0,0.0,1.0,0.0,0.0,0.0,1.0,-5.58877807617,0.05748046875,10.0770446777,0.1,0.0,0.0,0.0,0.1,0.0,0.0,0.0,0.1
1446038284696200978,293,1446038284692991018,robocape,-18.2950666596,17.1643387995,-19.7742162993,0.0,10.0,0.0,0.0,0.0,10.0,0.0,0.0,0.0,10.0,2.32760279273,-0.125434887343,0.00399474163512,1.0,0.0,0.0,0.0,1.0,0.0,0.0,0.0,1.0,0.225131835938,6.00670898438,6.76832519531,0.1,0.0,0.0,0.0,0.1,0.0,0.0,0.0,0.1
1446038284729103937,294,1446038284726074934,robocape,-18.7295543991,16.7541547881,-18.1035256232,0.0,10.0,0.0,0.0,0.0,10.0,0.0,0.0,0.0,10.0,-0.486559531157,-0.464721610219,0.721583497357,1.0,0.0,0.0,0.0,1.0,0.0,0.0,0.0,1.0,-4.76010131836,8.04247558594,5.74684936523,0.1,0.0,0.0,0.0,0.1,0.0,0.0,0.0,0.1
1446038284762904103,295,1446038284759469032,robocape,-23.6163239611,16.3716614566,-15.5167519135,0.0,10.0,0.0,0.0,0.0,10.0,0.0,0.0,0.0,10.0,-3.00417886766,-0.607999676865,1.10521185238,1.0,0.0,0.0,0.0,1.0,0.0,0.0,0.0,1.0,-1.61663818359,5.64027099609,5.49417480469,0.1,0.0,0.0,0.0,0.1,0.0,0.0,0.0,0.1
1446038284795948187,296,1446038284792905092,robocape,-31.0571411133,16.2868292274,-13.782345431,0.0,10.0,0.0,0.0,0.0,10.0,0.0,0.0,0.0,10.0,-4.36332312999,-0.309991950885,0.681502922951,1.0,0.0,0.0,0.0,1.0,0.0,0.0,0.0,1.0,2.96024414063,2.63332397461,4.72297851562,0.1,0.0,0.0,0.0,0.1,0.0,0.0,0.0,0.1
1446038284829120728,297,1446038284826107025,robocape,-38.7399568517,15.8804541986,-14.2873177236,0.0,10.0,0.0,0.0,0.0,10.0,0.0,0.0,0.0,10.0,-4.36332312999,0.190815492104,-0.4390221057,1.0,0.0,0.0,0.0,1.0,0.0,0.0,0.0,1.0,9.04359375,-19.62,11.2889245605,0.1,0.0,0.0,0.0,0.1,0.0,0.0,0.0,0.1
1446038284868871978,298,1446038284860858917,robocape,-38.7737857521,16.9564916301,-20.5332947711,0.0,10.0,0.0,0.0,0.0,10.0,0.0,0.0,0.0,10.0,0.74089141526,2.52227986841,-2.15436416382,1.0,0.0,0.0,0.0,1.0,0.0,0.0,0.0,1.0,6.15639770508,-19.62,19.6194012451,0.1,0.0,0.0,0.0,0.1,0.0,0.0,0.0,0.1
1446038284896927354,299,1446038284893904924,robocape,-33.2526306669,16.2979366695,-23.9432973395,0.0,10.0,0.0,0.0,0.0,10.0,0.0,0.0,0.0,10.0,3.53627845346,0.618519163171,-1.51360760555,1.0,0.0,0.0,0.0,1.0,0.0,0.0,0.0,1.0,-6.0965222168,-1.72561157227,7.18865112305,0.1,0.0,0.0,0.0,0.1,0.0,0.0,0.0,0.1
1446038284929206062,300,1446038284926150083,robocape,-27.9878895707,16.286851626,-25.6577216311,0.0,10.0,0.0,0.0,0.0,10.0,0.0,0.0,0.0,10.0,3.08940002255,0.357396218289,-0.679905026297,1.0,0.0,0.0,0.0,1.0,0.0,0.0,0.0,1.0,2.79139526367,1.23583007813,6.43182495117,0.1,0.0,0.0,0.0,0.1,0.0,0.0,0.0,0.1
1446038284962304354,301,1446038284959275960,robocape,-24.5331666369,17.0275198274,-26.7064995818,0.0,10.0,0.0,0.0,0.0,10.0,0.0,0.0,0.0,10.0,1.97579921273,0.570848579658,-0.290950349091,1.0,0.0,0.0,0.0,1.0,0.0,0.0,0.0,1.0,7.57065673828,4.2499621582,11.5871044922,0.1,0.0,0.0,0.0,0.1,0.0,0.0,0.0,0.1
1446038284996013562,302,1446038284992943048,robocape,-23.8309139671,17.3296826768,-26.5451143519,0.0,10.0,0.0,0.0,0.0,10.0,0.0,0.0,0.0,10.0,0.320644595246,0.136753321976,0.113051188274,1.0,0.0,0.0,0.0,1.0,0.0,0.0,0.0,1.0,2.05253173828,6.18753295898,7.21020629883,0.1,0.0,0.0,0.0,0.1,0.0,0.0,0.0,0.1
1446038285029091270,303,1446038285025953054,robocape,-26.446820352,17.2207513857,-25.0040115337,0.0,10.0,0.0,0.0,0.0,10.0,0.0,0.0,0.0,10.0,-1.66181252021,-0.328634078516,0.623978643406,1.0,0.0,0.0,0.0,1.0,0.0,0.0,0.0,1.0,5.08342895508,5.83067504883,8.78253662109,0.1,0.0,0.0,0.0,0.1,0.0,0.0,0.0,0.1
1446038285066618062,304,1446038285063128948,robocape,-32.0720487987,17.4880457345,-23.0113178292,0.0,10.0,0.0,0.0,0.0,10.0,0.0,0.0,0.0,10.0,-3.4132404111,-0.247008191105,0.836632056448,1.0,0.0,0.0,0.0,1.0,0.0,0.0,0.0,1.0,1.39270385742,3.8739440918,4.6020300293,0.1,0.0,0.0,0.0,0.1,0.0,0.0,0.0,0.1
1446038285096017354,305,1446038285092955112,robocape,-39.4131671147,17.1612784178,-21.9890507404,0.0,10.0,0.0,0.0,0.0,10.0,0.0,0.0,0.0,10.0,-4.36332312999,-0.213984993588,0.146873334118,1.0,0.0,0.0,0.0,1.0,0.0,0.0,0.0,1.0,3.91705444336,-3.63803466797,3.78532836914,0.1,0.0,0.0,0.0,0.1,0.0,0.0,0.0,0.1
1446038285129028895,306,1446038285125871896,robocape,-41.8686845873,17.4120814513,-26.9953031361,0.0,10.0,0.0,0.0,0.0,10.0,0.0,0.0,0.0,10.0,-0.85913576766,1.99177817927,-1.99337607592,1.0,0.0,0.0,0.0,1.0,0.0,0.0,0.0,1.0,19.6194012451,-19.62,18.6176843262,0.1,0.0,0.0,0.0,0.1,0.0,0.0,0.0,0.1
1446038285162603395,307,1446038285159435033,robocape,-39.4110401043,17.2386279292,-34.4067331034,0.0,10.0,0.0,0.0,0.0,10.0,0.0,0.0,0.0,10.0,2.28659011194,2.49711299611,-2.99592306828,1.0,0.0,0.0,0.0,1.0,0.0,0.0,0.0,1.0,4.61999267578,-14.4144250488,7.62095214844,0.1,0.0,0.0,0.0,0.1,0.0,0.0,0.0,0.1
1446038285196056854,308,1446038285192974090,robocape,-36.7267083117,17.0241480952,-40.1626259467,0.0,10.0,0.0,0.0,0.0,10.0,0.0,0.0,0.0,10.0,2.12972992374,1.86674276609,-2.51908407511,1.0,0.0,0.0,0.0,1.0,0.0,0.0,0.0,1.0,-2.48004272461,-2.6476940918,7.52036132813,0.1,0.0,0.0,0.0,0.1,0.0,0.0,0.0,0.1
1446038285229197770,309,1446038285226052045,robocape,-33.1082894577,16.8914420603,-44.3625791951,0.0,10.0,0.0,0.0,0.0,10.0,0.0,0.0,0.0,10.0,2.42920238832,1.28324417125,-1.92719652284,1.0,0.0,0.0,0.0,1.0,0.0,0.0,0.0,1.0,3.7901184082,-6.10131225586,11.3823303223,0.1,0.0,0.0,0.0,0.1,0.0,0.0,0.0,0.1
1446038285262649104,310,1446038285259442090,robocape,-26.5374236758,16.5213467552,-46.6767417829,0.0,10.0,0.0,0.0,0.0,10.0,0.0,0.0,0.0,10.0,3.80432561718,0.39321573495,-1.08244182506,1.0,0.0,0.0,0.0,1.0,0.0,0.0,0.0,1.0,3.14825317383,-3.35781738281,8.27119995117,0.1,0.0,0.0,0.0,0.1,0.0,0.0,0.0,0.1
1446038285295873770,311,1446038285292865991,robocape,-18.2081304901,17.0187569286,-46.3255959726,0.0,10.0,0.0,0.0,0.0,10.0,0.0,0.0,0.0,10.0,4.36318997193,0.0555269087282,0.449275275896,1.0,0.0,0.0,0.0,1.0,0.0,0.0,0.0,1.0,6.60546386719,-0.0167651367188,6.29051879883,0.1,0.0,0.0,0.0,0.1,0.0,0.0,0.0,0.1
1446038285329063395,312,1446038285326071023,robocape,-10.6637803291,17.6682445227,-43.4310860283,0.0,10.0,0.0,0.0,0.0,10.0,0.0,0.0,0.0,10.0,3.52589212521,-0.169243887275,1.72839154746,1.0,0.0,0.0,0.0,1.0,0.0,0.0,0.0,1.0,5.7133190918,5.07624389648,5.00918334961,0.1,0.0,0.0,0.0,0.1,0.0,0.0,0.0,0.1
1446038285362777312,313,1446038285359253883,robocape,-7.92389539261,18.546237852,-38.4984229283,0.0,10.0,0.0,0.0,0.0,10.0,0.0,0.0,0.0,10.0,0.645816564344,-0.0764327232853,2.73400117508,1.0,0.0,0.0,0.0,1.0,0.0,0.0,0.0,1.0,5.92168579102,10.5644311523,8.95976806641,0.1,0.0,0.0,0.0,0.1,0.0,0.0,0.0,0.1
1446038285395770854,314,1446038285392776966,robocape,-11.1238099276,19.0534995696,-32.5514891786,0.0,10.0,0.0,0.0,0.0,10.0,0.0,0.0,0.0,10.0,-2.63799421778,-0.366450965995,3.17608591603,1.0,0.0,0.0,0.0,1.0,0.0,0.0,0.0,1.0,1.4142590332,12.012220459,5.79714477539,0.1,0.0,0.0,0.0,0.1,0.0,0.0,0.0,0.1
1446038285428923104,315,1446038285425869941,robocape,-17.7026741128,18.729938842,-26.8245956011,0.0,10.0,0.0,0.0,0.0,10.0,0.0,0.0,0.0,10.0,-4.36332312999,-0.963531682391,2.82947550015,1.0,0.0,0.0,0.0,1.0,0.0,0.0,0.0,1.0,-0.125738525391,6.64857421875,0.0586779785156,0.1,0.0,0.0,0.0,0.1,0.0,0.0,0.0,0.1
1446038285462566770,316,1446038285459453105,robocape,-24.45452683,18.2289689124,-21.8737325794,0.0,10.0,0.0,0.0,0.0,10.0,0.0,0.0,0.0,10.0,-4.36332312999,-1.13410715021,2.20842633395,1.0,0.0,0.0,0.0,1.0,0.0,0.0,0.0,1.0,-2.40819213867,2.10162963867,-6.61743896484,0.1,0.0,0.0,0.0,0.1,0.0,0.0,0.0,0.1
1446038285495989312,317,1446038285492909908,robocape,-32.8093027953,18.1306123089,-23.7842377196,0.0,10.0,0.0,0.0,0.0,10.0,0.0,0.0,0.0,10.0,-4.36332312999,0.653939205669,-1.06153601051,1.0,0.0,0.0,0.0,1.0,0.0,0.0,0.0,1.0,19.6194012451,-19.62,9.24956542969,0.1,0.0,0.0,0.0,0.1,0.0,0.0,0.0,0.1
1446038285530284729,318,1446038285527188062,robocape,-32.0014659925,19.8319935038,-31.8223735604,0.0,10.0,0.0,0.0,0.0,10.0,0.0,0.0,0.0,10.0,1.5965650735,3.12135795563,-3.07142368519,1.0,0.0,0.0,0.0,1.0,0.0,0.0,0.0,1.0,10.0387243652,-19.62,11.0015222168,0.1,0.0,0.0,0.0,0.1,0.0,0.0,0.0,0.1
1446038285562156104,319,1446038285559149026,robocape,-29.0343069209,21.5594400666,-39.6753605231,0.0,10.0,0.0,0.0,0.0,10.0,0.0,0.0,0.0,10.0,2.84452236031,3.01017098012,-3.11683058177,1.0,0.0,0.0,0.0,1.0,0.0,0.0,0.0,1.0,0.609532470703,-5.748046875,2.20461547852,0.1,0.0,0.0,0.0,0.1,0.0,0.0,0.0,0.1
1446038285596498979,320,1446038285593442916,robocape,-27.5821939324,22.3364795014,-45.8052713884,0.0,10.0,0.0,0.0,0.0,10.0,0.0,0.0,0.0,10.0,1.78178792732,2.1315941365,-2.83560077066,1.0,0.0,0.0,0.0,1.0,0.0,0.0,0.0,1.0,2.23814575195,-1.64298339844,6.20669311523,0.1,0.0,0.0,0.0,0.1,0.0,0.0,0.0,0.1
1446038285629231937,321,1446038285626029014,robocape,-24.3335528757,23.1833577075,-51.2516768281,0.0,10.0,0.0,0.0,0.0,10.0,0.0,0.0,0.0,10.0,2.67967268884,1.91694335264,-2.63200210533,1.0,0.0,0.0,0.0,1.0,0.0,0.0,0.0,1.0,7.44132568359,-12.5463098145,11.4936987305,0.1,0.0,0.0,0.0,0.1,0.0,0.0,0.0,0.1
1446038285662530937,322,1446038285659444093,robocape,-17.3218354034,23.2536363429,-54.7041965259,0.0,10.0,0.0,0.0,0.0,10.0,0.0,0.0,0.0,10.0,4.36318997193,0.843556275283,-1.85755486033,1.0,0.0,0.0,0.0,1.0,0.0,0.0,0.0,1.0,-1.97110107422,-10.6350842285,8.06163574219,0.1,0.0,0.0,0.0,0.1,0.0,0.0,0.0,0.1
1446038285696031062,323,1446038285692997932,robocape,-9.39942693551,23.1516184371,-55.6562203368,0.0,10.0,0.0,0.0,0.0,10.0,0.0,0.0,0.0,10.0,4.36318997193,0.167113358402,-0.65487131205,1.0,0.0,0.0,0.0,1.0,0.0,0.0,0.0,1.0,0.659827880859,-1.18074462891,-2.17946777344,0.1,0.0,0.0,0.0,0.1,0.0,0.0,0.0,0.1
1446038285729145479,324,1446038285726032018,robocape,-1.17317977721,23.4542748554,-55.6490455165,0.0,10.0,0.0,0.0,0.0,10.0,0.0,0.0,0.0,10.0,4.36318997193,0.285357710802,-0.241415552816,1.0,0.0,0.0,0.0,1.0,0.0,0.0,0.0,1.0,2.92312133789,0.335302734375,-0.86220703125,0.1,0.0,0.0,0.0,0.1,0.0,0.0,0.0,0.1
1446038285762409771,325,1446038285759382009,robocape,7.23127088087,24.0718914218,-54.8792370455,0.0,10.0,0.0,0.0,0.0,10.0,0.0,0.0,0.0,10.0,4.36318997193,0.494948488591,-0.00825579937925,1.0,0.0,0.0,0.0,1.0,0.0,0.0,0.0,1.0,4.16254394531,1.39988891602,0.803529052734,0.1,0.0,0.0,0.0,0.1,0.0,0.0,0.0,0.1
1446038285796143479,326,1446038285793085098,robocape,16.034222206,25.2483500783,-52.800582231,0.0,10.0,0.0,0.0,0.0,10.0,0.0,0.0,0.0,10.0,4.36318997193,0.965529053208,0.416252078379,1.0,0.0,0.0,0.0,1.0,0.0,0.0,0.0,1.0,3.55420898438,13.5665881348,3.23447387695,0.1,0.0,0.0,0.0,0.1,0.0,0.0,0.0,0.1
1446038285829080562,327,1446038285826023101,robocape,22.7653118595,27.7788801587,-45.8828571907,0.0,10.0,0.0,0.0,0.0,10.0,0.0,0.0,0.0,10.0,1.86740855636,2.30216960432,2.68806164627,1.0,0.0,0.0,0.0,1.0,0.0,0.0,0.0,1.0,14.2575512695,19.6194012451,14.7581103516,0.1,0.0,0.0,0.0,0.1,0.0,0.0,0.0,0.1
1446038285867398979,328,1446038285859716892,robocape,22.9455194089,31.5038685105,-37.0210027088,0.0,10.0,0.0,0.0,0.0,10.0,0.0,0.0,0.0,10.0,-2.51868460094,3.11683058177,3.4591799399,1.0,0.0,0.0,0.0,1.0,0.0,0.0,0.0,1.0,-0.698148193359,13.6204760742,8.26281738281,0.1,0.0,0.0,0.0,0.1,0.0,0.0,0.0,0.1
1446038285896671354,329,1446038285893587112,robocape,20.0887050659,33.5464149027,-30.2601668572,0.0,10.0,0.0,0.0,0.0,10.0,0.0,0.0,0.0,10.0,-3.68701337116,1.8034926902,2.80297704731,1.0,0.0,0.0,0.0,1.0,0.0,0.0,0.0,1.0,-2.84408569336,8.41849365234,5.15168701172,0.1,0.0,0.0,0.0,0.1,0.0,0.0,0.0,0.1
1446038285929335729,330,1446038285926211118,robocape,13.6021267635,34.1942527991,-27.5857303154,0.0,10.0,0.0,0.0,0.0,10.0,0.0,0.0,0.0,10.0,-4.36332312999,0.413056285071,1.30761209523,1.0,0.0,0.0,0.0,1.0,0.0,0.0,0.0,1.0,-2.91952880859,5.76241699219,7.28924194336,0.1,0.0,0.0,0.0,0.1,0.0,0.0,0.0,0.1
1446038285962426646,331,1446038285959326028,robocape,5.88541293518,34.0293375446,-26.7955458424,0.0,10.0,0.0,0.0,0.0,10.0,0.0,0.0,0.0,10.0,-4.36332312999,-0.214384467751,0.539290120741,1.0,0.0,0.0,0.0,1.0,0.0,0.0,0.0,1.0,3.88112915039,-1.33163085938,1.93517578125,0.1,0.0,0.0,0.0,0.1,0.0,0.0,0.0,0.1
1446038285996204979,332,1446038285993118047,robocape,-1.99680732242,33.7727521592,-26.0862088761,0.0,10.0,0.0,0.0,0.0,10.0,0.0,0.0,0.0,10.0,-4.36332312999,-0.24421187196,0.415852604216,1.0,0.0,0.0,0.0,1.0,0.0,0.0,0.0,1.0,1.10889404297,0.289797363281,2.84169067383,0.1,0.0,0.0,0.0,0.1,0.0,0.0,0.0,0.1
1446038286029371396,333,1446038286026227951,robocape,-9.46528332367,33.665595528,-24.5416209548,0.0,10.0,0.0,0.0,0.0,10.0,0.0,0.0,0.0,10.0,-4.36332312999,-0.181760744398,0.706669795253,1.0,0.0,0.0,0.0,1.0,0.0,0.0,0.0,1.0,0.384400634766,1.33282836914,3.41769287109,0.1,0.0,0.0,0.0,0.1,0.0,0.0,0.0,0.1
1446038286062655604,334,1446038286059629917,robocape,-16.5277442079,33.0104869736,-22.2369646684,0.0,10.0,0.0,0.0,0.0,10.0,0.0,0.0,0.0,10.0,-4.36332312999,-0.581501224019,0.918524259968,1.0,0.0,0.0,0.0,1.0,0.0,0.0,0.0,1.0,2.85127075195,2.65847167969,-1.29331054688,0.1,0.0,0.0,0.0,0.1,0.0,0.0,0.0,0.1
1446038286096077104,335,1446038286093004941,robocape,-24.4467043906,31.638733029,-21.6828568744,0.0,10.0,0.0,0.0,0.0,10.0,0.0,0.0,0.0,10.0,-4.36332312999,-0.654072363723,-0.0743021944132,1.0,0.0,0.0,0.0,1.0,0.0,0.0,0.0,1.0,1.26576782227,-19.0344177246,-0.581989746094,0.1,0.0,0.0,0.0,0.1,0.0,0.0,0.0,0.1
1446038286129496979,336,1446038286126305103,robocape,-29.302838881,32.7864286327,-27.6156768205,0.0,10.0,0.0,0.0,0.0,10.0,0.0,0.0,0.0,10.0,-1.096956053,2.1465078386,-2.27114377762,1.0,0.0,0.0,0.0,1.0,0.0,0.0,0.0,1.0,19.6194012451,-19.62,16.4789318848,0.1,0.0,0.0,0.0,0.1,0.0,0.0,0.0,0.1
1446038286162554312,337,1446038286159512042,robocape,-28.7146339041,34.1483066747,-35.2554890832,0.0,10.0,0.0,0.0,0.0,10.0,0.0,0.0,0.0,10.0,2.3710123185,2.64265474969,-2.79085966435,1.0,0.0,0.0,0.0,1.0,0.0,0.0,0.0,1.0,4.6020300293,-14.2443786621,6.50726806641,0.1,0.0,0.0,0.0,0.1,0.0,0.0,0.0,0.1
1446038286196123896,338,1446038286192995071,robocape,-27.1451493066,35.0189433555,-41.4467372284,0.0,10.0,0.0,0.0,0.0,10.0,0.0,0.0,0.0,10.0,2.55250674679,2.06980879921,-2.42254448559,1.0,0.0,0.0,0.0,1.0,0.0,0.0,0.0,1.0,0.633482666016,-1.46934448242,2.21778808594,0.1,0.0,0.0,0.0,0.1,0.0,0.0,0.0,0.1
1446038286229179854,339,1446038286225967884,robocape,-24.9811872095,36.0292799633,-46.3731238473,0.0,10.0,0.0,0.0,0.0,10.0,0.0,0.0,0.0,10.0,2.55490359177,1.8433069485,-1.99657186923,1.0,0.0,0.0,0.0,1.0,0.0,0.0,0.0,1.0,-2.0309765625,-3.34464477539,11.6505725098,0.1,0.0,0.0,0.0,0.1,0.0,0.0,0.0,0.1
1446038286262494187,340,1446038286259417057,robocape,-21.3023755696,35.9810419058,-48.6061897833,0.0,10.0,0.0,0.0,0.0,10.0,0.0,0.0,0.0,10.0,2.59391890174,0.592819658652,-1.09322762748,1.0,0.0,0.0,0.0,1.0,0.0,0.0,0.0,1.0,-1.52442993164,2.59620117188,8.72745117187,0.1,0.0,0.0,0.0,0.1,0.0,0.0,0.0,0.1
1446038286295952104,341,1446038286292737007,robocape,-18.7950394119,36.2257939511,-49.2532688936,0.0,10.0,0.0,0.0,0.0,10.0,0.0,0.0,0.0,10.0,1.50575128033,0.402137324602,-0.392416786623,1.0,0.0,0.0,0.0,1.0,0.0,0.0,0.0,1.0,5.84504516602,1.44299926758,7.30959960938,0.1,0.0,0.0,0.0,0.1,0.0,0.0,0.0,0.1
1446038286329108729,342,1446038286326073884,robocape,-17.5054558574,35.7788618228,-50.0089965393,0.0,10.0,0.0,0.0,0.0,10.0,0.0,0.0,0.0,10.0,0.907871615608,0.0543284862376,-0.55846488059,1.0,0.0,0.0,0.0,1.0,0.0,0.0,0.0,1.0,1.49928222656,-0.202379150391,8.65081054688,0.1,0.0,0.0,0.0,0.1,0.0,0.0,0.0,0.1
1446038286362250854,343,1446038286359244108,robocape,-16.7575233538,35.4216686702,-51.4368022428,0.0,10.0,0.0,0.0,0.0,10.0,0.0,0.0,0.0,10.0,0.83343626314,0.242347659197,-0.898284235684,1.0,0.0,0.0,0.0,1.0,0.0,0.0,0.0,1.0,2.53632568359,-0.456251220703,10.7560327148,0.1,0.0,0.0,0.0,0.1,0.0,0.0,0.0,0.1
1446038286396029438,344,1446038286392791032,robocape,-16.2517801876,35.1446783006,-53.0797583669,0.0,10.0,0.0,0.0,0.0,10.0,0.0,0.0,0.0,10.0,0.775379351377,0.333427768478,-1.02624912606,1.0,0.0,0.0,0.0,1.0,0.0,0.0,0.0,1.0,-0.826281738281,-0.2682421875,9.11065429688,0.1,0.0,0.0,0.0,0.1,0.0,0.0,0.0,0.1
1446038286430243063,345,1446038286426127910,robocape,-16.0782984406,34.9713307803,-54.4616270631,0.0,10.0,0.0,0.0,0.0,10.0,0.0,0.0,0.0,10.0,0.522778521983,0.342083042021,-0.909469512262,1.0,0.0,0.0,0.0,1.0,0.0,0.0,0.0,1.0,-0.247884521484,0.0814306640625,11.9739001465,0.1,0.0,0.0,0.0,0.1,0.0,0.0,0.0,0.1
1446038286464734354,346,1446038286461328029,robocape,-16.2906866202,34.6850742776,-55.2252966159,0.0,10.0,0.0,0.0,0.0,10.0,0.0,0.0,0.0,10.0,0.129429628978,0.154995975443,-0.612393892664,1.0,0.0,0.0,0.0,1.0,0.0,0.0,0.0,1.0,0.215551757813,0.963995361328,9.67348388672,0.1,0.0,0.0,0.0,0.1,0.0,0.0,0.0,0.1
1446038286498556146,347,1446038286495331048,robocape,-17.5461378462,34.5540465422,-55.2619027695,0.0,10.0,0.0,0.0,0.0,10.0,0.0,0.0,0.0,10.0,-0.6430202452,0.0846885226645,-0.215849206351,1.0,0.0,0.0,0.0,1.0,0.0,0.0,0.0,1.0,3.46918579102,1.13763427734,9.64354614258,0.1,0.0,0.0,0.0,0.1,0.0,0.0,0.0,0.1
1446038286529132729,348,1446038286525952100,robocape,-19.6023447357,34.5033687986,-55.3088618131,0.0,10.0,0.0,0.0,0.0,10.0,0.0,0.0,0.0,10.0,-1.06659601658,0.134889109213,-0.214384467751,1.0,0.0,0.0,0.0,1.0,0.0,0.0,0.0,1.0,1.90523803711,0.543669433594,9.86388793945,0.1,0.0,0.0,0.0,0.1,0.0,0.0,0.0,0.1
1446038286562319021,349,1446038286559178113,robocape,-22.6704498,34.4848248133,-54.7985759443,0.0,10.0,0.0,0.0,0.0,10.0,0.0,0.0,0.0,10.0,-1.76980370241,0.0262321367373,0.067910607797,1.0,0.0,0.0,0.0,1.0,0.0,0.0,0.0,1.0,2.30400878906,2.47405517578,7.72034545898,0.1,0.0,0.0,0.0,0.1,0.0,0.0,0.0,0.1
1446038286597773938,350,1446038286594477891,robocape,-27.350890612,34.4392245965,-53.3918917591,0.0,10.0,0.0,0.0,0.0,10.0,0.0,0.0,0.0,10.0,-2.88353767028,-0.214783941915,0.471113196835,1.0,0.0,0.0,0.0,1.0,0.0,0.0,0.0,1.0,0.910107421875,2.55069580078,7.18266357422,0.1,0.0,0.0,0.0,0.1,0.0,0.0,0.0,0.1
1446038286630739313,351,1446038286627542972,robocape,-33.924591387,34.3575661606,-50.9259114134,0.0,10.0,0.0,0.0,0.0,10.0,0.0,0.0,0.0,10.0,-4.19927240684,-0.525574841127,0.84289048501,1.0,0.0,0.0,0.0,1.0,0.0,0.0,0.0,1.0,-0.067060546875,3.63204711914,2.87282592773,0.1,0.0,0.0,0.0,0.1,0.0,0.0,0.0,0.1
1446038286664116146,352,1446038286661025047,robocape,-41.1526070158,33.079291963,-49.4039309209,0.0,10.0,0.0,0.0,0.0,10.0,0.0,0.0,0.0,10.0,-4.36332312999,-0.692288725366,-0.0940095864798,1.0,0.0,0.0,0.0,1.0,0.0,0.0,0.0,1.0,3.98052246094,-19.62,6.75156005859,0.1,0.0,0.0,0.0,0.1,0.0,0.0,0.0,0.1
1446038286697152521,353,1446038286694025039,robocape,-41.7688581784,32.2692853955,-51.4686162544,0.0,10.0,0.0,0.0,0.0,10.0,0.0,0.0,0.0,10.0,0.0833569421195,0.644751299908,-1.23996780354,1.0,0.0,0.0,0.0,1.0,0.0,0.0,0.0,1.0,9.68785400391,-19.62,11.1092980957,0.1,0.0,0.0,0.0,0.1,0.0,0.0,0.0,0.1
1446038286730904604,354,1446038286727663040,robocape,-40.1003851163,31.9644047583,-53.6085910084,0.0,10.0,0.0,0.0,0.0,10.0,0.0,0.0,0.0,10.0,1.34676056325,0.775246193322,-1.04116282817,1.0,0.0,0.0,0.0,1.0,0.0,0.0,0.0,1.0,1.92559570313,-12.1750817871,5.64625854492,0.1,0.0,0.0,0.0,0.1,0.0,0.0,0.0,0.1
1446038286763374771,355,1446038286760220050,robocape,-38.5891967801,32.5084334999,-55.1770355389,0.0,10.0,0.0,0.0,0.0,10.0,0.0,0.0,0.0,10.0,1.11586449674,0.936766913435,-0.589490707289,1.0,0.0,0.0,0.0,1.0,0.0,0.0,0.0,1.0,1.76512939453,1.00950073242,5.518125,0.1,0.0,0.0,0.0,0.1,0.0,0.0,0.0,0.1
1446038286796466479,356,1446038286793344974,robocape,-38.7626160807,32.5242803671,-56.0220814685,0.0,10.0,0.0,0.0,0.0,10.0,0.0,0.0,0.0,10.0,0.0303600364269,0.525841157236,-0.540488543232,1.0,0.0,0.0,0.0,1.0,0.0,0.0,0.0,1.0,-0.245489501953,-1.81781982422,7.44252319336,0.1,0.0,0.0,0.0,0.1,0.0,0.0,0.0,0.1
1446038286829636979,357,1446038286826522111,robocape,-39.8970746824,32.4844656497,-57.1962366565,0.0,10.0,0.0,0.0,0.0,10.0,0.0,0.0,0.0,10.0,-0.417184184761,0.682035555169,-0.747416159931,1.0,0.0,0.0,0.0,1.0,0.0,0.0,0.0,1.0,2.45369750977,-3.4524206543,9.98842895508,0.1,0.0,0.0,0.0,0.1,0.0,0.0,0.0,0.1
1446038286869912604,358,1446038286862195014,robocape,-41.3910075571,32.4103873561,-57.95243106,0.0,10.0,0.0,0.0,0.0,10.0,0.0,0.0,0.0,10.0,-0.725711397047,0.546746971793,-0.602273880521,1.0,0.0,0.0,0.0,1.0,0.0,0.0,0.0,1.0,3.23207885742,-5.43190429688,7.42575805664,0.1,0.0,0.0,0.0,0.1,0.0,0.0,0.0,0.1
1446038286902704396,359,1446038286899199008,robocape,-42.022156139,32.3296493574,-58.6546816879,0.0,10.0,0.0,0.0,0.0,10.0,0.0,0.0,0.0,10.0,-0.27523769866,0.500008494662,-0.549809607047,1.0,0.0,0.0,0.0,1.0,0.0,0.0,0.0,1.0,2.02379150391,-7.75148071289,8.51429443359,0.1,0.0,0.0,0.0,0.1,0.0,0.0,0.0,0.1
1446038286929937313,360,1446038286926817893,robocape,-42.0010319657,32.068935726,-59.2557556458,0.0,10.0,0.0,0.0,0.0,10.0,0.0,0.0,0.0,10.0,0.0565921731642,0.360858327706,-0.544483284867,1.0,0.0,0.0,0.0,1.0,0.0,0.0,0.0,1.0,2.0728894043,-8.03289550781,8.51429443359,0.1,0.0,0.0,0.0,0.1,0.0,0.0,0.0,0.1
1446038286964084063,361,1446038286961029052,robocape,-42.2001125325,32.2736062068,-59.7879033028,0.0,10.0,0.0,0.0,0.0,10.0,0.0,0.0,0.0,10.0,-0.085354312937,0.538224856305,-0.374440449265,1.0,0.0,0.0,0.0,1.0,0.0,0.0,0.0,1.0,5.66062866211,-5.7133190918,8.60410766602,0.1,0.0,0.0,0.0,0.1,0.0,0.0,0.0,0.1
1446038286997603438,362,1446038286994468927,robocape,-42.1458612965,32.1205630105,-60.4294122695,0.0,10.0,0.0,0.0,0.0,10.0,0.0,0.0,0.0,10.0,0.0818922035199,0.429967357993,-0.536493801596,1.0,0.0,0.0,0.0,1.0,0.0,0.0,0.0,1.0,3.3721875,-5.11695922852,7.76944335938,0.1,0.0,0.0,0.0,0.1,0.0,0.0,0.0,0.1
1446038287030262646,363,1446038287027060985,robocape,-42.3313318988,31.6981759432,-61.0940833536,0.0,10.0,0.0,0.0,0.0,10.0,0.0,0.0,0.0,10.0,-0.0451405804768,0.348075154473,-0.659265527849,1.0,0.0,0.0,0.0,1.0,0.0,0.0,0.0,1.0,1.63100830078,-5.4031640625,7.91314453125,0.1,0.0,0.0,0.0,0.1,0.0,0.0,0.0,0.1
1446038287065827313,364,1446038287061074972,robocape,-42.6672521724,31.6136206509,-61.8199494323,0.0,10.0,0.0,0.0,0.0,10.0,0.0,0.0,0.0,10.0,-0.120641197381,0.525175366964,-0.587493336471,1.0,0.0,0.0,0.0,1.0,0.0,0.0,0.0,1.0,2.38064941406,-5.57201293945,8.42088867187,0.1,0.0,0.0,0.0,0.1,0.0,0.0,0.0,0.1
1446038287099470605,365,1446038287095427036,robocape,-42.9697734613,31.6574427934,-62.0014492825,0.0,10.0,0.0,0.0,0.0,10.0,0.0,0.0,0.0,10.0,-0.22943132791,0.352735686381,-0.308793528395,1.0,0.0,0.0,0.0,1.0,0.0,0.0,0.0,1.0,3.03808227539,-4.22481445313,7.75746826172,0.1,0.0,0.0,0.0,0.1,0.0,0.0,0.0,0.1
1446038287133692771,366,1446038287129606008,robocape,-43.2608938391,31.631994918,-62.1142131602,0.0,10.0,0.0,0.0,0.0,10.0,0.0,0.0,0.0,10.0,-0.240083972271,0.298540358198,-0.303733522324,1.0,0.0,0.0,0.0,1.0,0.0,0.0,0.0,1.0,2.72672973633,-8.13348632813,8.36700073242,0.1,0.0,0.0,0.0,0.1,0.0,0.0,0.0,0.1
1446038287165204563,367,1446038287162128925,robocape,-43.2313199703,31.9068905521,-62.2879395667,0.0,10.0,0.0,0.0,0.0,10.0,0.0,0.0,0.0,10.0,-0.0523311154201,0.427969987176,-0.209457619735,1.0,0.0,0.0,0.0,1.0,0.0,0.0,0.0,1.0,3.16741333008,-6.75036254883,7.77303588867,0.1,0.0,0.0,0.0,0.1,0.0,0.0,0.0,0.1
1446038287199794730,368,1446038287196758985,robocape,-43.1943784382,31.7606954841,-62.6296397107,0.0,10.0,0.0,0.0,0.0,10.0,0.0,0.0,0.0,10.0,-0.00692421883421,0.334892507077,-0.43223104492,1.0,0.0,0.0,0.0,1.0,0.0,0.0,0.0,1.0,5.84504516602,-9.09867919922,7.37905517578,0.1,0.0,0.0,0.0,0.1,0.0,0.0,0.0,0.1
1446038287233103021,369,1446038287229120969,robocape,-42.9974250834,31.7215950983,-62.7222668343,0.0,10.0,0.0,0.0,0.0,10.0,0.0,0.0,0.0,10.0,0.0235689756472,0.263652947918,-0.280697178894,1.0,0.0,0.0,0.0,1.0,0.0,0.0,0.0,1.0,2.37705688477,-6.38751708984,7.68082763672,0.1,0.0,0.0,0.0,0.1,0.0,0.0,0.0,0.1
1446038287266215938,370,1446038287262371063,robocape,-42.6750932677,31.4737224682,-63.0397033614,0.0,10.0,0.0,0.0,0.0,10.0,0.0,0.0,0.0,10.0,0.145275437464,0.269245586207,-0.448343169515,1.0,0.0,0.0,0.0,1.0,0.0,0.0,0.0,1.0,0.657432861328,-5.77439208984,8.09277099609,0.1,0.0,0.0,0.0,0.1,0.0,0.0,0.0,0.1
1446038287299827980,371,1446038287296607017,robocape,-42.5893251125,31.3615716878,-63.3501485113,0.0,10.0,0.0,0.0,0.0,10.0,0.0,0.0,0.0,10.0,0.0133158054504,0.332628820151,-0.41478733978,1.0,0.0,0.0,0.0,1.0,0.0,0.0,0.0,1.0,0.996328125,-4.95888793945,7.5838293457,0.1,0.0,0.0,0.0,0.1,0.0,0.0,0.0,0.1
1446038287332759521,372,1446038287329272985,robocape,-42.6843817394,31.3883755661,-63.2367427275,0.0,10.0,0.0,0.0,0.0,10.0,0.0,0.0,0.0,10.0,-0.181760744398,0.217447103005,-0.188152331014,1.0,0.0,0.0,0.0,1.0,0.0,0.0,0.0,1.0,3.13268554688,-6.72641235352,8.41011108398,0.1,0.0,0.0,0.0,0.1,0.0,0.0,0.0,0.1
1446038287365160605,373,1446038287361320972,robocape,-42.8986499984,31.4130975831,-62.9527894892,0.0,10.0,0.0,0.0,0.0,10.0,0.0,0.0,0.0,10.0,-0.28589034302,0.149669653262,-0.117445404072,1.0,0.0,0.0,0.0,1.0,0.0,0.0,0.0,1.0,1.89206542969,-6.81263305664,7.04135742188,0.1,0.0,0.0,0.0,0.1,0.0,0.0,0.0,0.1
1446038287399628480,374,1446038287396233081,robocape,-42.8964200358,31.3659070336,-62.6856895611,0.0,10.0,0.0,0.0,0.0,10.0,0.0,0.0,0.0,10.0,-0.16378440704,0.116380139636,-0.137019638085,1.0,0.0,0.0,0.0,1.0,0.0,0.0,0.0,1.0,4.50982177734,-8.78253662109,7.84847900391,0.1,0.0,0.0,0.0,0.1,0.0,0.0,0.0,0.1
1446038287433281271,375,1446038287429965019,robocape,-42.398062901,31.1240156103,-62.6500765414,0.0,10.0,0.0,0.0,0.0,10.0,0.0,0.0,0.0,10.0,0.161787036222,0.109322762748,-0.279898230567,1.0,0.0,0.0,0.0,1.0,0.0,0.0,0.0,1.0,2.69080444336,-5.28341308594,7.84967651367,0.1,0.0,0.0,0.0,0.1,0.0,0.0,0.0,0.1
1446038287466039146,376,1446038287462831974,robocape,-42.1021521651,31.0974049233,-62.7009996479,0.0,10.0,0.0,0.0,0.0,10.0,0.0,0.0,0.0,10.0,0.0705737688871,0.239551340053,-0.254598200212,1.0,0.0,0.0,0.0,1.0,0.0,0.0,0.0,1.0,2.39382202148,-6.48810791016,7.21020629883,0.1,0.0,0.0,0.0,0.1,0.0,0.0,0.0,0.1
1446038287498723438,377,1446038287495265007,robocape,-41.8063126811,31.0066627025,-62.4633435413,0.0,10.0,0.0,0.0,0.0,10.0,0.0,0.0,0.0,10.0,0.00798948327024,0.0910801092807,-0.146473859954,1.0,0.0,0.0,0.0,1.0,0.0,0.0,0.0,1.0,1.98068115234,-7.15152832031,7.78860351563,0.1,0.0,0.0,0.0,0.1,0.0,0.0,0.0,0.1
1446038287532488813,378,1446038287529192924,robocape,-41.4827471399,30.8483641436,-62.3313553041,0.0,10.0,0.0,0.0,0.0,10.0,0.0,0.0,0.0,10.0,0.0483363737849,0.103996440568,-0.21345236137,1.0,0.0,0.0,0.0,1.0,0.0,0.0,0.0,1.0,1.52802246094,-6.79347290039,7.4305480957,0.1,0.0,0.0,0.0,0.1,0.0,0.0,0.0,0.1
1446038287564878021,379,1446038287561608076,robocape,-41.2591844236,30.797610957,-62.1416617474,0.0,10.0,0.0,0.0,0.0,10.0,0.0,0.0,0.0,10.0,-0.0185089695761,0.126100677615,-0.15433018517,1.0,0.0,0.0,0.0,1.0,0.0,0.0,0.0,1.0,2.61775634766,-6.96112426758,8.20533691406,0.1,0.0,0.0,0.0,0.1,0.0,0.0,0.0,0.1
1446038287599027730,380,1446038287595880031,robocape,-41.117811981,30.9340085822,-61.6438859084,0.0,10.0,0.0,0.0,0.0,10.0,0.0,0.0,0.0,10.0,-0.131826473959,0.0770985135578,0.0466053190764,1.0,0.0,0.0,0.0,1.0,0.0,0.0,0.0,1.0,1.62142822266,-6.22824829102,7.41737548828,0.1,0.0,0.0,0.0,0.1,0.0,0.0,0.0,0.1
1446038287631702355,381,1446038287628401994,robocape,-40.9635142706,30.955508233,-61.2154586585,0.0,10.0,0.0,0.0,0.0,10.0,0.0,0.0,0.0,10.0,-0.108257498312,0.0565921731642,-0.0190416017941,1.0,0.0,0.0,0.0,1.0,0.0,0.0,0.0,1.0,2.07169189453,-7.34073486328,7.17787353516,0.1,0.0,0.0,0.0,0.1,0.0,0.0,0.0,0.1
1446038287665043105,382,1446038287661992073,robocape,-40.5458383107,30.9980798628,-60.7069000448,0.0,10.0,0.0,0.0,0.0,10.0,0.0,0.0,0.0,10.0,0.0183758115215,0.0183758115215,0.0402137324602,1.0,0.0,0.0,0.0,1.0,0.0,0.0,0.0,1.0,2.62494140625,-7.50599121094,7.42456054688,0.1,0.0,0.0,0.0,0.1,0.0,0.0,0.0,0.1
1446038287696321355,383,1446038287692579030,robocape,-40.0908147941,31.0737684693,-60.0927424649,0.0,10.0,0.0,0.0,0.0,10.0,0.0,0.0,0.0,10.0,0.016112124595,-0.0135821215594,0.104529072786,1.0,0.0,0.0,0.0,1.0,0.0,0.0,0.0,1.0,1.48491210938,-6.15160766602,7.76824584961,0.1,0.0,0.0,0.0,0.1,0.0,0.0,0.0,0.1
1446038287729430063,384,1446038287726232051,robocape,-39.7384624221,31.3697921003,-59.1480405547,0.0,10.0,0.0,0.0,0.0,10.0,0.0,0.0,0.0,10.0,-0.115847507418,-0.0484695318394,0.32344091439,1.0,0.0,0.0,0.0,1.0,0.0,0.0,0.0,1.0,0.358055419922,-6.43062744141,7.88919433594,0.1,0.0,0.0,0.0,0.1,0.0,0.0,0.0,0.1
1446038287762796230,385,1446038287759444952,robocape,-39.5003836008,31.5546121256,-58.3516970488,0.0,10.0,0.0,0.0,0.0,10.0,0.0,0.0,0.0,10.0,-0.144077014973,-0.0310258266994,0.22024342215,1.0,0.0,0.0,0.0,1.0,0.0,0.0,0.0,1.0,0.165256347656,-7.10841796875,8.02930297852,0.1,0.0,0.0,0.0,0.1,0.0,0.0,0.0,0.1
1446038287796354730,386,1446038287792783021,robocape,-39.2159946524,31.6253974884,-57.7509116482,0.0,10.0,0.0,0.0,0.0,10.0,0.0,0.0,0.0,10.0,-0.0725711397047,-0.00612527050718,0.103330650295,1.0,0.0,0.0,0.0,1.0,0.0,0.0,0.0,1.0,-0.262254638672,-7.22218139648,7.88320678711,0.1,0.0,0.0,0.0,0.1,0.0,0.0,0.0,0.1
1446038287829168272,387,1446038287826116085,robocape,-38.7035723743,31.4225796729,-57.6060494655,0.0,10.0,0.0,0.0,0.0,10.0,0.0,0.0,0.0,10.0,0.161653878168,0.0399474163512,-0.17057546782,1.0,0.0,0.0,0.0,1.0,0.0,0.0,0.0,1.0,0.168848876953,-6.22465576172,7.96104492188,0.1,0.0,0.0,0.0,0.1,0.0,0.0,0.0,0.1
1446038287867718397,388,1446038287860403060,robocape,-38.439360452,31.3471444459,-57.2737911735,0.0,10.0,0.0,0.0,0.0,10.0,0.0,0.0,0.0,10.0,-0.0165115987585,0.0315584589174,-0.0560595409462,1.0,0.0,0.0,0.0,1.0,0.0,0.0,0.0,1.0,0.534089355469,-7.44372070313,7.80896118164,0.1,0.0,0.0,0.0,0.1,0.0,0.0,0.0,0.1
1446038287896629397,389,1446038287893135070,robocape,-38.138154279,31.3851197797,-56.7669235007,0.0,10.0,0.0,0.0,0.0,10.0,0.0,0.0,0.0,10.0,-0.0370179391521,0.0111852765783,0.0611195470173,1.0,0.0,0.0,0.0,1.0,0.0,0.0,0.0,1.0,1.55197265625,-5.92527832031,7.71316040039,0.1,0.0,0.0,0.0,0.1,0.0,0.0,0.0,0.1
1446038287929495230,390,1446038287926222085,robocape,-37.7424008962,31.4675550233,-56.2047442222,0.0,10.0,0.0,0.0,0.0,10.0,0.0,0.0,0.0,10.0,0.00186421276306,0.00479368996214,0.106526443603,1.0,0.0,0.0,0.0,1.0,0.0,0.0,0.0,1.0,1.04901855469,-7.65927246094,7.53473144531,0.1,0.0,0.0,0.0,0.1,0.0,0.0,0.0,0.1
1446038287962600938,391,1446038287959491968,robocape,-37.2891679456,31.3032508079,-55.9599612281,0.0,10.0,0.0,0.0,0.0,10.0,0.0,0.0,0.0,10.0,0.111320133565,0.0103863282513,-0.103064334186,1.0,0.0,0.0,0.0,1.0,0.0,0.0,0.0,1.0,-0.195194091797,-6.38033203125,8.00056274414,0.1,0.0,0.0,0.0,0.1,0.0,0.0,0.0,0.1
1446038287997496230,392,1446038287992955923,robocape,-37.0052513099,31.2644345371,-55.5639119698,0.0,10.0,0.0,0.0,0.0,10.0,0.0,0.0,0.0,10.0,-0.0157126504315,0.0147805440499,-0.00213052887206,1.0,0.0,0.0,0.0,1.0,0.0,0.0,0.0,1.0,-0.0658630371094,-7.41857299805,7.86045410156,0.1,0.0,0.0,0.0,0.1,0.0,0.0,0.0,0.1
1446038288031050772,393,1446038288027851104,robocape,-36.5893526131,31.1203486772,-55.4292627754,0.0,10.0,0.0,0.0,0.0,10.0,0.0,0.0,0.0,10.0,0.11944277489,0.0560595409462,-0.142345960265,1.0,0.0,0.0,0.0,1.0,0.0,0.0,0.0,1.0,1.04662353516,-5.75882446289,8.01613037109,0.1,0.0,0.0,0.0,0.1,0.0,0.0,0.0,0.1
1446038288062877438,394,1446038288059781074,robocape,-36.3445547086,31.0852796539,-55.0537672442,0.0,10.0,0.0,0.0,0.0,10.0,0.0,0.0,0.0,10.0,-0.0294279300454,0.0223705531567,-0.00692421883421,1.0,0.0,0.0,0.0,1.0,0.0,0.0,0.0,1.0,0.707728271484,-7.96463745117,7.58263183594,0.1,0.0,0.0,0.0,0.1,0.0,0.0,0.0,0.1
1446038288098086105,395,1446038288094053983,robocape,-35.9491211252,30.9779938523,-54.7879071958,0.0,10.0,0.0,0.0,0.0,10.0,0.0,0.0,0.0,10.0,0.0796285165934,0.0218379209386,-0.068709556124,1.0,0.0,0.0,0.0,1.0,0.0,0.0,0.0,1.0,1.29690307617,-5.46663208008,7.88200927734,0.1,0.0,0.0,0.0,0.1,0.0,0.0,0.0,0.1
